type,verb,category,category_lowercase,trials.thisRepN,trials.thisTrialN,trials.thisN,trials.thisIndex,armleg_loop.thisRepN,armleg_loop.thisTrialN,armleg_loop.thisN,armleg_loop.thisIndex,rating.response,rating.rt,date,frameRate,expName,participant,
arm,NIP,Leg,leg,0,0,0,17,0,0,0,0,2,13.16,2018_Oct_22_1334,59.6175100231,verb_norming_L1-eng_no-translation,701,
arm,NIP,Arm,arm,0,0,0,17,0,1,1,1,7,5.866,2018_Oct_22_1334,59.6175100231,verb_norming_L1-eng_no-translation,701,
arm,NIP,,,0,0,0,17,,,,,,,2018_Oct_22_1334,59.6175100231,verb_norming_L1-eng_no-translation,701,
arm,SNATCH,Leg,leg,0,1,1,33,0,0,0,0,1,11.362,2018_Oct_22_1334,59.6175100231,verb_norming_L1-eng_no-translation,701,
arm,SNATCH,Arm,arm,0,1,1,33,0,1,1,1,7,3.081,2018_Oct_22_1334,59.6175100231,verb_norming_L1-eng_no-translation,701,
arm,SNATCH,,,0,1,1,33,,,,,,,2018_Oct_22_1334,59.6175100231,verb_norming_L1-eng_no-translation,701,
arm,PULL,Leg,leg,0,2,2,24,0,0,0,0,3,7.572,2018_Oct_22_1334,59.6175100231,verb_norming_L1-eng_no-translation,701,
arm,PULL,Arm,arm,0,2,2,24,0,1,1,1,7,2.629,2018_Oct_22_1334,59.6175100231,verb_norming_L1-eng_no-translation,701,
arm,PULL,,,0,2,2,24,,,,,,,2018_Oct_22_1334,59.6175100231,verb_norming_L1-eng_no-translation,701,
arm,STIR,Leg,leg,0,3,3,35,0,0,0,0,1,6.399,2018_Oct_22_1334,59.6175100231,verb_norming_L1-eng_no-translation,701,
arm,STIR,Arm,arm,0,3,3,35,0,1,1,1,7,3.569,2018_Oct_22_1334,59.6175100231,verb_norming_L1-eng_no-translation,701,
arm,STIR,,,0,3,3,35,,,,,,,2018_Oct_22_1334,59.6175100231,verb_norming_L1-eng_no-translation,701,
arm,PEEL,Leg,leg,0,4,4,19,0,0,0,0,1,6.014,2018_Oct_22_1334,59.6175100231,verb_norming_L1-eng_no-translation,701,
arm,PEEL,Arm,arm,0,4,4,19,0,1,1,1,7,2.696,2018_Oct_22_1334,59.6175100231,verb_norming_L1-eng_no-translation,701,
arm,PEEL,,,0,4,4,19,,,,,,,2018_Oct_22_1334,59.6175100231,verb_norming_L1-eng_no-translation,701,
leg,STRUT,Leg,leg,0,5,5,69,0,0,0,0,7,4.067,2018_Oct_22_1334,59.6175100231,verb_norming_L1-eng_no-translation,701,
leg,STRUT,Arm,arm,0,5,5,69,0,1,1,1,4,4.725,2018_Oct_22_1334,59.6175100231,verb_norming_L1-eng_no-translation,701,
leg,STRUT,,,0,5,5,69,,,,,,,2018_Oct_22_1334,59.6175100231,verb_norming_L1-eng_no-translation,701,
leg,TIPTOE,Leg,leg,0,6,6,71,0,0,0,0,7,4.016,2018_Oct_22_1334,59.6175100231,verb_norming_L1-eng_no-translation,701,
leg,TIPTOE,Arm,arm,0,6,6,71,0,1,1,1,2,3.45,2018_Oct_22_1334,59.6175100231,verb_norming_L1-eng_no-translation,701,
leg,TIPTOE,,,0,6,6,71,,,,,,,2018_Oct_22_1334,59.6175100231,verb_norming_L1-eng_no-translation,701,
leg,RUSH,Leg,leg,0,7,7,56,0,0,0,0,7,6.785,2018_Oct_22_1334,59.6175100231,verb_norming_L1-eng_no-translation,701,
leg,RUSH,Arm,arm,0,7,7,56,0,1,1,1,3,5.363,2018_Oct_22_1334,59.6175100231,verb_norming_L1-eng_no-translation,701,
leg,RUSH,,,0,7,7,56,,,,,,,2018_Oct_22_1334,59.6175100231,verb_norming_L1-eng_no-translation,701,
leg,JUMP,Leg,leg,0,8,8,46,0,0,0,0,7,4.938,2018_Oct_22_1334,59.6175100231,verb_norming_L1-eng_no-translation,701,
leg,JUMP,Arm,arm,0,8,8,46,0,1,1,1,1,2.998,2018_Oct_22_1334,59.6175100231,verb_norming_L1-eng_no-translation,701,
leg,JUMP,,,0,8,8,46,,,,,,,2018_Oct_22_1334,59.6175100231,verb_norming_L1-eng_no-translation,701,
leg,TRIP,Leg,leg,0,9,9,73,0,0,0,0,7,5.578,2018_Oct_22_1334,59.6175100231,verb_norming_L1-eng_no-translation,701,
leg,TRIP,Arm,arm,0,9,9,73,0,1,1,1,1,4.625,2018_Oct_22_1334,59.6175100231,verb_norming_L1-eng_no-translation,701,
leg,TRIP,,,0,9,9,73,,,,,,,2018_Oct_22_1334,59.6175100231,verb_norming_L1-eng_no-translation,701,
arm,CUT,Leg,leg,0,10,10,7,0,0,0,0,2,19.968,2018_Oct_22_1334,59.6175100231,verb_norming_L1-eng_no-translation,701,
arm,CUT,Arm,arm,0,10,10,7,0,1,1,1,7,4.423,2018_Oct_22_1334,59.6175100231,verb_norming_L1-eng_no-translation,701,
arm,CUT,,,0,10,10,7,,,,,,,2018_Oct_22_1334,59.6175100231,verb_norming_L1-eng_no-translation,701,
leg,SNEAK,Leg,leg,0,11,11,60,0,0,0,0,6,8.815,2018_Oct_22_1334,59.6175100231,verb_norming_L1-eng_no-translation,701,
leg,SNEAK,Arm,arm,0,11,11,60,0,1,1,1,1,3.4,2018_Oct_22_1334,59.6175100231,verb_norming_L1-eng_no-translation,701,
leg,SNEAK,,,0,11,11,60,,,,,,,2018_Oct_22_1334,59.6175100231,verb_norming_L1-eng_no-translation,701,
leg,PEDAL,Leg,leg,0,12,12,53,0,0,0,0,7,5.122,2018_Oct_22_1334,59.6175100231,verb_norming_L1-eng_no-translation,701,
leg,PEDAL,Arm,arm,0,12,12,53,0,1,1,1,1,2.444,2018_Oct_22_1334,59.6175100231,verb_norming_L1-eng_no-translation,701,
leg,PEDAL,,,0,12,12,53,,,,,,,2018_Oct_22_1334,59.6175100231,verb_norming_L1-eng_no-translation,701,
leg,STRAY,Leg,leg,0,13,13,66,0,0,0,0,4,10.424,2018_Oct_22_1334,59.6175100231,verb_norming_L1-eng_no-translation,701,
leg,STRAY,Arm,arm,0,13,13,66,0,1,1,1,4,1.858,2018_Oct_22_1334,59.6175100231,verb_norming_L1-eng_no-translation,701,
leg,STRAY,,,0,13,13,66,,,,,,,2018_Oct_22_1334,59.6175100231,verb_norming_L1-eng_no-translation,701,
leg,MARCH,Leg,leg,0,14,14,51,0,0,0,0,7,3.968,2018_Oct_22_1334,59.6175100231,verb_norming_L1-eng_no-translation,701,
leg,MARCH,Arm,arm,0,14,14,51,0,1,1,1,2,2.881,2018_Oct_22_1334,59.6175100231,verb_norming_L1-eng_no-translation,701,
leg,MARCH,,,0,14,14,51,,,,,,,2018_Oct_22_1334,59.6175100231,verb_norming_L1-eng_no-translation,701,
leg,ROAM,Leg,leg,0,15,15,54,0,0,0,0,4,5.091,2018_Oct_22_1334,59.6175100231,verb_norming_L1-eng_no-translation,701,
leg,ROAM,Arm,arm,0,15,15,54,0,1,1,1,4,1.64,2018_Oct_22_1334,59.6175100231,verb_norming_L1-eng_no-translation,701,
leg,ROAM,,,0,15,15,54,,,,,,,2018_Oct_22_1334,59.6175100231,verb_norming_L1-eng_no-translation,701,
leg,WALK,Leg,leg,0,16,16,77,0,0,0,0,7,3.565,2018_Oct_22_1334,59.6175100231,verb_norming_L1-eng_no-translation,701,
leg,WALK,Arm,arm,0,16,16,77,0,1,1,1,1,3.485,2018_Oct_22_1334,59.6175100231,verb_norming_L1-eng_no-translation,701,
leg,WALK,,,0,16,16,77,,,,,,,2018_Oct_22_1334,59.6175100231,verb_norming_L1-eng_no-translation,701,
arm,CLICK,Leg,leg,0,17,17,6,0,0,0,0,1,4.789,2018_Oct_22_1334,59.6175100231,verb_norming_L1-eng_no-translation,701,
arm,CLICK,Arm,arm,0,17,17,6,0,1,1,1,7,5.06,2018_Oct_22_1334,59.6175100231,verb_norming_L1-eng_no-translation,701,
arm,CLICK,,,0,17,17,6,,,,,,,2018_Oct_22_1334,59.6175100231,verb_norming_L1-eng_no-translation,701,
arm,CHOP,Leg,leg,0,18,18,3,0,0,0,0,1,4.99,2018_Oct_22_1334,59.6175100231,verb_norming_L1-eng_no-translation,701,
arm,CHOP,Arm,arm,0,18,18,3,0,1,1,1,7,1.975,2018_Oct_22_1334,59.6175100231,verb_norming_L1-eng_no-translation,701,
arm,CHOP,,,0,18,18,3,,,,,,,2018_Oct_22_1334,59.6175100231,verb_norming_L1-eng_no-translation,701,
arm,WHIP,Leg,leg,0,19,19,38,0,0,0,0,1,5.309,2018_Oct_22_1334,59.6175100231,verb_norming_L1-eng_no-translation,701,
arm,WHIP,Arm,arm,0,19,19,38,0,1,1,1,7,1.875,2018_Oct_22_1334,59.6175100231,verb_norming_L1-eng_no-translation,701,
arm,WHIP,,,0,19,19,38,,,,,,,2018_Oct_22_1334,59.6175100231,verb_norming_L1-eng_no-translation,701,
leg,FLEE,Leg,leg,0,20,20,41,0,0,0,0,7,4.085,2018_Oct_22_1334,59.6175100231,verb_norming_L1-eng_no-translation,701,
leg,FLEE,Arm,arm,0,20,20,41,0,1,1,1,1,2.445,2018_Oct_22_1334,59.6175100231,verb_norming_L1-eng_no-translation,701,
leg,FLEE,,,0,20,20,41,,,,,,,2018_Oct_22_1334,59.6175100231,verb_norming_L1-eng_no-translation,701,
leg,PACE,Leg,leg,0,21,21,52,0,0,0,0,7,4.857,2018_Oct_22_1334,59.6175100231,verb_norming_L1-eng_no-translation,701,
leg,PACE,Arm,arm,0,21,21,52,0,1,1,1,1,6.653,2018_Oct_22_1334,59.6175100231,verb_norming_L1-eng_no-translation,701,
leg,PACE,,,0,21,21,52,,,,,,,2018_Oct_22_1334,59.6175100231,verb_norming_L1-eng_no-translation,701,
arm,THROW,Leg,leg,0,22,22,36,0,0,0,0,1,3.112,2018_Oct_22_1334,59.6175100231,verb_norming_L1-eng_no-translation,701,
arm,THROW,Arm,arm,0,22,22,36,0,1,1,1,7,1.706,2018_Oct_22_1334,59.6175100231,verb_norming_L1-eng_no-translation,701,
arm,THROW,,,0,22,22,36,,,,,,,2018_Oct_22_1334,59.6175100231,verb_norming_L1-eng_no-translation,701,
arm,WIPE,Leg,leg,0,23,23,39,0,0,0,0,1,4.404,2018_Oct_22_1334,59.6175100231,verb_norming_L1-eng_no-translation,701,
arm,WIPE,Arm,arm,0,23,23,39,0,1,1,1,7,4.675,2018_Oct_22_1334,59.6175100231,verb_norming_L1-eng_no-translation,701,
arm,WIPE,,,0,23,23,39,,,,,,,2018_Oct_22_1334,59.6175100231,verb_norming_L1-eng_no-translation,701,
arm,HUG,Leg,leg,0,24,24,15,0,0,0,0,1,5.56,2018_Oct_22_1334,59.6175100231,verb_norming_L1-eng_no-translation,701,
arm,HUG,Arm,arm,0,24,24,15,0,1,1,1,7,2.411,2018_Oct_22_1334,59.6175100231,verb_norming_L1-eng_no-translation,701,
arm,HUG,,,0,24,24,15,,,,,,,2018_Oct_22_1334,59.6175100231,verb_norming_L1-eng_no-translation,701,
leg,STAND,Leg,leg,0,25,25,63,0,0,0,0,7,4.253,2018_Oct_22_1334,59.6175100231,verb_norming_L1-eng_no-translation,701,
leg,STAND,Arm,arm,0,25,25,63,0,1,1,1,1,4.792,2018_Oct_22_1334,59.6175100231,verb_norming_L1-eng_no-translation,701,
leg,STAND,,,0,25,25,63,,,,,,,2018_Oct_22_1334,59.6175100231,verb_norming_L1-eng_no-translation,701,
leg,SQUAT,Leg,leg,0,26,26,62,0,0,0,0,7,4.751,2018_Oct_22_1334,59.6175100231,verb_norming_L1-eng_no-translation,701,
leg,SQUAT,Arm,arm,0,26,26,62,0,1,1,1,1,3.634,2018_Oct_22_1334,59.6175100231,verb_norming_L1-eng_no-translation,701,
leg,SQUAT,,,0,26,26,62,,,,,,,2018_Oct_22_1334,59.6175100231,verb_norming_L1-eng_no-translation,701,
arm,POKE,Leg,leg,0,27,27,22,0,0,0,0,1,5.661,2018_Oct_22_1334,59.6175100231,verb_norming_L1-eng_no-translation,701,
arm,POKE,Arm,arm,0,27,27,22,0,1,1,1,7,3.384,2018_Oct_22_1334,59.6175100231,verb_norming_L1-eng_no-translation,701,
arm,POKE,,,0,27,27,22,,,,,,,2018_Oct_22_1334,59.6175100231,verb_norming_L1-eng_no-translation,701,
leg,SKIP,Leg,leg,0,28,28,58,0,0,0,0,7,4.89,2018_Oct_22_1334,59.6175100231,verb_norming_L1-eng_no-translation,701,
leg,SKIP,Arm,arm,0,28,28,58,0,1,1,1,4,2.428,2018_Oct_22_1334,59.6175100231,verb_norming_L1-eng_no-translation,701,
leg,SKIP,,,0,28,28,58,,,,,,,2018_Oct_22_1334,59.6175100231,verb_norming_L1-eng_no-translation,701,
leg,KNEEL,Leg,leg,0,29,29,48,0,0,0,0,7,3.951,2018_Oct_22_1334,59.6175100231,verb_norming_L1-eng_no-translation,701,
leg,KNEEL,Arm,arm,0,29,29,48,0,1,1,1,1,2.528,2018_Oct_22_1334,59.6175100231,verb_norming_L1-eng_no-translation,701,
leg,KNEEL,,,0,29,29,48,,,,,,,2018_Oct_22_1334,59.6175100231,verb_norming_L1-eng_no-translation,701,
arm,STAB,Leg,leg,0,30,30,34,0,0,0,0,1,3.109,2018_Oct_22_1334,59.6175100231,verb_norming_L1-eng_no-translation,701,
arm,STAB,Arm,arm,0,30,30,34,0,1,1,1,7,3.03,2018_Oct_22_1334,59.6175100231,verb_norming_L1-eng_no-translation,701,
arm,STAB,,,0,30,30,34,,,,,,,2018_Oct_22_1334,59.6175100231,verb_norming_L1-eng_no-translation,701,
leg,WADE,Leg,leg,0,31,31,76,0,0,0,0,7,4.907,2018_Oct_22_1334,59.6175100231,verb_norming_L1-eng_no-translation,701,
leg,WADE,Arm,arm,0,31,31,76,0,1,1,1,1,1.69,2018_Oct_22_1334,59.6175100231,verb_norming_L1-eng_no-translation,701,
leg,WADE,,,0,31,31,76,,,,,,,2018_Oct_22_1334,59.6175100231,verb_norming_L1-eng_no-translation,701,
leg,STEP,Leg,leg,0,32,32,64,0,0,0,0,7,6.166,2018_Oct_22_1334,59.6175100231,verb_norming_L1-eng_no-translation,701,
leg,STEP,Arm,arm,0,32,32,64,0,1,1,1,1,4.237,2018_Oct_22_1334,59.6175100231,verb_norming_L1-eng_no-translation,701,
leg,STEP,,,0,32,32,64,,,,,,,2018_Oct_22_1334,59.6175100231,verb_norming_L1-eng_no-translation,701,
leg,SLIP,Leg,leg,0,33,33,59,0,0,0,0,7,6.718,2018_Oct_22_1334,59.6175100231,verb_norming_L1-eng_no-translation,701,
leg,SLIP,Arm,arm,0,33,33,59,0,1,1,1,2,2.54,2018_Oct_22_1334,59.6175100231,verb_norming_L1-eng_no-translation,701,
leg,SLIP,,,0,33,33,59,,,,,,,2018_Oct_22_1334,59.6175100231,verb_norming_L1-eng_no-translation,701,
arm,KNOCK,Leg,leg,0,34,34,16,0,0,0,0,2,6.349,2018_Oct_22_1334,59.6175100231,verb_norming_L1-eng_no-translation,701,
arm,KNOCK,Arm,arm,0,34,34,16,0,1,1,1,7,4.591,2018_Oct_22_1334,59.6175100231,verb_norming_L1-eng_no-translation,701,
arm,KNOCK,,,0,34,34,16,,,,,,,2018_Oct_22_1334,59.6175100231,verb_norming_L1-eng_no-translation,701,
arm,GRAB,Leg,leg,0,35,35,11,0,0,0,0,1,9.669,2018_Oct_22_1334,59.6175100231,verb_norming_L1-eng_no-translation,701,
arm,GRAB,Arm,arm,0,35,35,11,0,1,1,1,7,2.779,2018_Oct_22_1334,59.6175100231,verb_norming_L1-eng_no-translation,701,
arm,GRAB,,,0,35,35,11,,,,,,,2018_Oct_22_1334,59.6175100231,verb_norming_L1-eng_no-translation,701,
arm,PUSH,Leg,leg,0,36,36,26,0,0,0,0,2,8.446,2018_Oct_22_1334,59.6175100231,verb_norming_L1-eng_no-translation,701,
arm,PUSH,Arm,arm,0,36,36,26,0,1,1,1,7,5.85,2018_Oct_22_1334,59.6175100231,verb_norming_L1-eng_no-translation,701,
arm,PUSH,,,0,36,36,26,,,,,,,2018_Oct_22_1334,59.6175100231,verb_norming_L1-eng_no-translation,701,
arm,PINCH,Leg,leg,0,37,37,20,0,0,0,0,1,4.772,2018_Oct_22_1334,59.6175100231,verb_norming_L1-eng_no-translation,701,
arm,PINCH,Arm,arm,0,37,37,20,0,1,1,1,7,2.964,2018_Oct_22_1334,59.6175100231,verb_norming_L1-eng_no-translation,701,
arm,PINCH,,,0,37,37,20,,,,,,,2018_Oct_22_1334,59.6175100231,verb_norming_L1-eng_no-translation,701,
arm,CARVE,Leg,leg,0,38,38,1,0,0,0,0,1,3.897,2018_Oct_22_1334,59.6175100231,verb_norming_L1-eng_no-translation,701,
arm,CARVE,Arm,arm,0,38,38,1,0,1,1,1,7,2.308,2018_Oct_22_1334,59.6175100231,verb_norming_L1-eng_no-translation,701,
arm,CARVE,,,0,38,38,1,,,,,,,2018_Oct_22_1334,59.6175100231,verb_norming_L1-eng_no-translation,701,
arm,PAT,Leg,leg,0,39,39,18,0,0,0,0,1,3.717,2018_Oct_22_1334,59.6175100231,verb_norming_L1-eng_no-translation,701,
arm,PAT,Arm,arm,0,39,39,18,0,1,1,1,7,1.942,2018_Oct_22_1334,59.6175100231,verb_norming_L1-eng_no-translation,701,
arm,PAT,,,0,39,39,18,,,,,,,2018_Oct_22_1334,59.6175100231,verb_norming_L1-eng_no-translation,701,
leg,LIMP,Leg,leg,0,40,40,50,0,0,0,0,7,3.951,2018_Oct_22_1334,59.6175100231,verb_norming_L1-eng_no-translation,701,
leg,LIMP,Arm,arm,0,40,40,50,0,1,1,1,1,2.78,2018_Oct_22_1334,59.6175100231,verb_norming_L1-eng_no-translation,701,
leg,LIMP,,,0,40,40,50,,,,,,,2018_Oct_22_1334,59.6175100231,verb_norming_L1-eng_no-translation,701,
leg,KICK,Leg,leg,0,41,41,47,0,0,0,0,7,5.779,2018_Oct_22_1334,59.6175100231,verb_norming_L1-eng_no-translation,701,
leg,KICK,Arm,arm,0,41,41,47,0,1,1,1,1,2.578,2018_Oct_22_1334,59.6175100231,verb_norming_L1-eng_no-translation,701,
leg,KICK,,,0,41,41,47,,,,,,,2018_Oct_22_1334,59.6175100231,verb_norming_L1-eng_no-translation,701,
arm,SCRATCH,Leg,leg,0,42,42,29,0,0,0,0,1,4.134,2018_Oct_22_1334,59.6175100231,verb_norming_L1-eng_no-translation,701,
arm,SCRATCH,Arm,arm,0,42,42,29,0,1,1,1,7,2.929,2018_Oct_22_1334,59.6175100231,verb_norming_L1-eng_no-translation,701,
arm,SCRATCH,,,0,42,42,29,,,,,,,2018_Oct_22_1334,59.6175100231,verb_norming_L1-eng_no-translation,701,
arm,SLAP,Leg,leg,0,43,43,32,0,0,0,0,1,3.029,2018_Oct_22_1334,59.6175100231,verb_norming_L1-eng_no-translation,701,
arm,SLAP,Arm,arm,0,43,43,32,0,1,1,1,7,2.192,2018_Oct_22_1334,59.6175100231,verb_norming_L1-eng_no-translation,701,
arm,SLAP,,,0,43,43,32,,,,,,,2018_Oct_22_1334,59.6175100231,verb_norming_L1-eng_no-translation,701,
leg,SKATE,Leg,leg,0,44,44,57,0,0,0,0,7,5.024,2018_Oct_22_1334,59.6175100231,verb_norming_L1-eng_no-translation,701,
leg,SKATE,Arm,arm,0,44,44,57,0,1,1,1,1,3.384,2018_Oct_22_1334,59.6175100231,verb_norming_L1-eng_no-translation,701,
leg,SKATE,,,0,44,44,57,,,,,,,2018_Oct_22_1334,59.6175100231,verb_norming_L1-eng_no-translation,701,
arm,HACK,Leg,leg,0,45,45,14,0,0,0,0,1,5.796,2018_Oct_22_1334,59.6175100231,verb_norming_L1-eng_no-translation,701,
arm,HACK,Arm,arm,0,45,45,14,0,1,1,1,7,2.176,2018_Oct_22_1334,59.6175100231,verb_norming_L1-eng_no-translation,701,
arm,HACK,,,0,45,45,14,,,,,,,2018_Oct_22_1334,59.6175100231,verb_norming_L1-eng_no-translation,701,
arm,SCOOP,Leg,leg,0,46,46,28,0,0,0,0,1,5.544,2018_Oct_22_1334,59.6175100231,verb_norming_L1-eng_no-translation,701,
arm,SCOOP,Arm,arm,0,46,46,28,0,1,1,1,7,2.243,2018_Oct_22_1334,59.6175100231,verb_norming_L1-eng_no-translation,701,
arm,SCOOP,,,0,46,46,28,,,,,,,2018_Oct_22_1334,59.6175100231,verb_norming_L1-eng_no-translation,701,
leg,SPRINT,Leg,leg,0,47,47,61,0,0,0,0,7,6.7,2018_Oct_22_1334,59.6175100231,verb_norming_L1-eng_no-translation,701,
leg,SPRINT,Arm,arm,0,47,47,61,0,1,1,1,2,6.502,2018_Oct_22_1334,59.6175100231,verb_norming_L1-eng_no-translation,701,
leg,SPRINT,,,0,47,47,61,,,,,,,2018_Oct_22_1334,59.6175100231,verb_norming_L1-eng_no-translation,701,
arm,BRUSH,Leg,leg,0,48,48,0,0,0,0,0,1,3.496,2018_Oct_22_1334,59.6175100231,verb_norming_L1-eng_no-translation,701,
arm,BRUSH,Arm,arm,0,48,48,0,0,1,1,1,7,2.963,2018_Oct_22_1334,59.6175100231,verb_norming_L1-eng_no-translation,701,
arm,BRUSH,,,0,48,48,0,,,,,,,2018_Oct_22_1334,59.6175100231,verb_norming_L1-eng_no-translation,701,
arm,FOLD,Leg,leg,0,49,49,9,0,0,0,0,1,9.67,2018_Oct_22_1334,59.6175100231,verb_norming_L1-eng_no-translation,701,
arm,FOLD,Arm,arm,0,49,49,9,0,1,1,1,7,3.064,2018_Oct_22_1334,59.6175100231,verb_norming_L1-eng_no-translation,701,
arm,FOLD,,,0,49,49,9,,,,,,,2018_Oct_22_1334,59.6175100231,verb_norming_L1-eng_no-translation,701,
leg,LEAP,Leg,leg,0,50,50,49,0,0,0,0,7,9.653,2018_Oct_22_1334,59.6175100231,verb_norming_L1-eng_no-translation,701,
leg,LEAP,Arm,arm,0,50,50,49,0,1,1,1,1,2.595,2018_Oct_22_1334,59.6175100231,verb_norming_L1-eng_no-translation,701,
leg,LEAP,,,0,50,50,49,,,,,,,2018_Oct_22_1334,59.6175100231,verb_norming_L1-eng_no-translation,701,
arm,CLEAN,Leg,leg,0,51,51,5,0,0,0,0,1,5.561,2018_Oct_22_1334,59.6175100231,verb_norming_L1-eng_no-translation,701,
arm,CLEAN,Arm,arm,0,51,51,5,0,1,1,1,7,3.266,2018_Oct_22_1334,59.6175100231,verb_norming_L1-eng_no-translation,701,
arm,CLEAN,,,0,51,51,5,,,,,,,2018_Oct_22_1334,59.6175100231,verb_norming_L1-eng_no-translation,701,
arm,PLUCK,Leg,leg,0,52,52,21,0,0,0,0,1,3.934,2018_Oct_22_1334,59.6175100231,verb_norming_L1-eng_no-translation,701,
arm,PLUCK,Arm,arm,0,52,52,21,0,1,1,1,7,1.521,2018_Oct_22_1334,59.6175100231,verb_norming_L1-eng_no-translation,701,
arm,PLUCK,,,0,52,52,21,,,,,,,2018_Oct_22_1334,59.6175100231,verb_norming_L1-eng_no-translation,701,
arm,WASH,Leg,leg,0,53,53,37,0,0,0,0,1,5.93,2018_Oct_22_1334,59.6175100231,verb_norming_L1-eng_no-translation,701,
arm,WASH,Arm,arm,0,53,53,37,0,1,1,1,7,3.434,2018_Oct_22_1334,59.6175100231,verb_norming_L1-eng_no-translation,701,
arm,WASH,,,0,53,53,37,,,,,,,2018_Oct_22_1334,59.6175100231,verb_norming_L1-eng_no-translation,701,
arm,CLAP,Leg,leg,0,54,54,4,0,0,0,0,1,4.119,2018_Oct_22_1334,59.6175100231,verb_norming_L1-eng_no-translation,701,
arm,CLAP,Arm,arm,0,54,54,4,0,1,1,1,7,3.82,2018_Oct_22_1334,59.6175100231,verb_norming_L1-eng_no-translation,701,
arm,CLAP,,,0,54,54,4,,,,,,,2018_Oct_22_1334,59.6175100231,verb_norming_L1-eng_no-translation,701,
arm,GESTURE,Leg,leg,0,55,55,10,0,0,0,0,1,2.809,2018_Oct_22_1334,59.6175100231,verb_norming_L1-eng_no-translation,701,
arm,GESTURE,Arm,arm,0,55,55,10,0,1,1,1,7,1.487,2018_Oct_22_1334,59.6175100231,verb_norming_L1-eng_no-translation,701,
arm,GESTURE,,,0,55,55,10,,,,,,,2018_Oct_22_1334,59.6175100231,verb_norming_L1-eng_no-translation,701,
leg,HIKE,Leg,leg,0,56,56,43,0,0,0,0,7,4.438,2018_Oct_22_1334,59.6175100231,verb_norming_L1-eng_no-translation,701,
leg,HIKE,Arm,arm,0,56,56,43,0,1,1,1,1,1.808,2018_Oct_22_1334,59.6175100231,verb_norming_L1-eng_no-translation,701,
leg,HIKE,,,0,56,56,43,,,,,,,2018_Oct_22_1334,59.6175100231,verb_norming_L1-eng_no-translation,701,
leg,WANDER,Leg,leg,0,57,57,78,0,0,0,0,6,8.83,2018_Oct_22_1334,59.6175100231,verb_norming_L1-eng_no-translation,701,
leg,WANDER,Arm,arm,0,57,57,78,0,1,1,1,1,2.896,2018_Oct_22_1334,59.6175100231,verb_norming_L1-eng_no-translation,701,
leg,WANDER,,,0,57,57,78,,,,,,,2018_Oct_22_1334,59.6175100231,verb_norming_L1-eng_no-translation,701,
arm,SIGN,Leg,leg,0,58,58,31,0,0,0,0,1,4.488,2018_Oct_22_1334,59.6175100231,verb_norming_L1-eng_no-translation,701,
arm,SIGN,Arm,arm,0,58,58,31,0,1,1,1,7,1.925,2018_Oct_22_1334,59.6175100231,verb_norming_L1-eng_no-translation,701,
arm,SIGN,,,0,58,58,31,,,,,,,2018_Oct_22_1334,59.6175100231,verb_norming_L1-eng_no-translation,701,
arm,PUNCH,Leg,leg,0,59,59,25,0,0,0,0,1,3.229,2018_Oct_22_1334,59.6175100231,verb_norming_L1-eng_no-translation,701,
arm,PUNCH,Arm,arm,0,59,59,25,0,1,1,1,7,1.606,2018_Oct_22_1334,59.6175100231,verb_norming_L1-eng_no-translation,701,
arm,PUNCH,,,0,59,59,25,,,,,,,2018_Oct_22_1334,59.6175100231,verb_norming_L1-eng_no-translation,701,
leg,GLIDE,Leg,leg,0,60,60,42,0,0,0,0,6,8.093,2018_Oct_22_1334,59.6175100231,verb_norming_L1-eng_no-translation,701,
leg,GLIDE,Arm,arm,0,60,60,42,0,1,1,1,1,2.226,2018_Oct_22_1334,59.6175100231,verb_norming_L1-eng_no-translation,701,
leg,GLIDE,,,0,60,60,42,,,,,,,2018_Oct_22_1334,59.6175100231,verb_norming_L1-eng_no-translation,701,
leg,WOBBLE,Leg,leg,0,61,61,79,0,0,0,0,7,5.307,2018_Oct_22_1334,59.6175100231,verb_norming_L1-eng_no-translation,701,
leg,WOBBLE,Arm,arm,0,61,61,79,0,1,1,1,2,2.425,2018_Oct_22_1334,59.6175100231,verb_norming_L1-eng_no-translation,701,
leg,WOBBLE,,,0,61,61,79,,,,,,,2018_Oct_22_1334,59.6175100231,verb_norming_L1-eng_no-translation,701,
arm,CATCH,Leg,leg,0,62,62,2,0,0,0,0,1,3.615,2018_Oct_22_1334,59.6175100231,verb_norming_L1-eng_no-translation,701,
arm,CATCH,Arm,arm,0,62,62,2,0,1,1,1,7,1.891,2018_Oct_22_1334,59.6175100231,verb_norming_L1-eng_no-translation,701,
arm,CATCH,,,0,62,62,2,,,,,,,2018_Oct_22_1334,59.6175100231,verb_norming_L1-eng_no-translation,701,
leg,HOP,Leg,leg,0,63,63,44,0,0,0,0,7,4.488,2018_Oct_22_1334,59.6175100231,verb_norming_L1-eng_no-translation,701,
leg,HOP,Arm,arm,0,63,63,44,0,1,1,1,1,1.657,2018_Oct_22_1334,59.6175100231,verb_norming_L1-eng_no-translation,701,
leg,HOP,,,0,63,63,44,,,,,,,2018_Oct_22_1334,59.6175100231,verb_norming_L1-eng_no-translation,701,
leg,STRIDE,Leg,leg,0,64,64,67,0,0,0,0,7,8.042,2018_Oct_22_1334,59.6175100231,verb_norming_L1-eng_no-translation,701,
leg,STRIDE,Arm,arm,0,64,64,67,0,1,1,1,3,4.137,2018_Oct_22_1334,59.6175100231,verb_norming_L1-eng_no-translation,701,
leg,STRIDE,,,0,64,64,67,,,,,,,2018_Oct_22_1334,59.6175100231,verb_norming_L1-eng_no-translation,701,
arm,GRIP,Leg,leg,0,65,65,13,0,0,0,0,1,4.79,2018_Oct_22_1334,59.6175100231,verb_norming_L1-eng_no-translation,701,
arm,GRIP,Arm,arm,0,65,65,13,0,1,1,1,7,2.142,2018_Oct_22_1334,59.6175100231,verb_norming_L1-eng_no-translation,701,
arm,GRIP,,,0,65,65,13,,,,,,,2018_Oct_22_1334,59.6175100231,verb_norming_L1-eng_no-translation,701,
leg,STROLL,Leg,leg,0,66,66,68,0,0,0,0,7,5.275,2018_Oct_22_1334,59.6175100231,verb_norming_L1-eng_no-translation,701,
leg,STROLL,Arm,arm,0,66,66,68,0,1,1,1,1,1.974,2018_Oct_22_1334,59.6175100231,verb_norming_L1-eng_no-translation,701,
leg,STROLL,,,0,66,66,68,,,,,,,2018_Oct_22_1334,59.6175100231,verb_norming_L1-eng_no-translation,701,
leg,RUN,Leg,leg,0,67,67,55,0,0,0,0,7,4.086,2018_Oct_22_1334,59.6175100231,verb_norming_L1-eng_no-translation,701,
leg,RUN,Arm,arm,0,67,67,55,0,1,1,1,1,1.657,2018_Oct_22_1334,59.6175100231,verb_norming_L1-eng_no-translation,701,
leg,RUN,,,0,67,67,55,,,,,,,2018_Oct_22_1334,59.6175100231,verb_norming_L1-eng_no-translation,701,
leg,BOUNCE,Leg,leg,0,68,68,40,0,0,0,0,5,6.75,2018_Oct_22_1334,59.6175100231,verb_norming_L1-eng_no-translation,701,
leg,BOUNCE,Arm,arm,0,68,68,40,0,1,1,1,5,5.73,2018_Oct_22_1334,59.6175100231,verb_norming_L1-eng_no-translation,701,
leg,BOUNCE,,,0,68,68,40,,,,,,,2018_Oct_22_1334,59.6175100231,verb_norming_L1-eng_no-translation,701,
arm,GRASP,Leg,leg,0,69,69,12,0,0,0,0,1,6.114,2018_Oct_22_1334,59.6175100231,verb_norming_L1-eng_no-translation,701,
arm,GRASP,Arm,arm,0,69,69,12,0,1,1,1,7,2.361,2018_Oct_22_1334,59.6175100231,verb_norming_L1-eng_no-translation,701,
arm,GRASP,,,0,69,69,12,,,,,,,2018_Oct_22_1334,59.6175100231,verb_norming_L1-eng_no-translation,701,
leg,STUMBLE,Leg,leg,0,70,70,70,0,0,0,0,7,5.172,2018_Oct_22_1334,59.6175100231,verb_norming_L1-eng_no-translation,701,
leg,STUMBLE,Arm,arm,0,70,70,70,0,1,1,1,1,2.643,2018_Oct_22_1334,59.6175100231,verb_norming_L1-eng_no-translation,701,
leg,STUMBLE,,,0,70,70,70,,,,,,,2018_Oct_22_1334,59.6175100231,verb_norming_L1-eng_no-translation,701,
leg,TRUDGE,Leg,leg,0,71,71,75,0,0,0,0,7,4.453,2018_Oct_22_1334,59.6175100231,verb_norming_L1-eng_no-translation,701,
leg,TRUDGE,Arm,arm,0,71,71,75,0,1,1,1,1,4.739,2018_Oct_22_1334,59.6175100231,verb_norming_L1-eng_no-translation,701,
leg,TRUDGE,,,0,71,71,75,,,,,,,2018_Oct_22_1334,59.6175100231,verb_norming_L1-eng_no-translation,701,
arm,POLISH,Leg,leg,0,72,72,23,0,0,0,0,1,11.447,2018_Oct_22_1334,59.6175100231,verb_norming_L1-eng_no-translation,701,
arm,POLISH,Arm,arm,0,72,72,23,0,1,1,1,7,1.991,2018_Oct_22_1334,59.6175100231,verb_norming_L1-eng_no-translation,701,
arm,POLISH,,,0,72,72,23,,,,,,,2018_Oct_22_1334,59.6175100231,verb_norming_L1-eng_no-translation,701,
leg,TROT,Leg,leg,0,73,73,74,0,0,0,0,7,4.304,2018_Oct_22_1334,59.6175100231,verb_norming_L1-eng_no-translation,701,
leg,TROT,Arm,arm,0,73,73,74,0,1,1,1,1,3.652,2018_Oct_22_1334,59.6175100231,verb_norming_L1-eng_no-translation,701,
leg,TROT,,,0,73,73,74,,,,,,,2018_Oct_22_1334,59.6175100231,verb_norming_L1-eng_no-translation,701,
arm,SCRUB,Leg,leg,0,74,74,30,0,0,0,0,1,8.025,2018_Oct_22_1334,59.6175100231,verb_norming_L1-eng_no-translation,701,
arm,SCRUB,Arm,arm,0,74,74,30,0,1,1,1,7,3.18,2018_Oct_22_1334,59.6175100231,verb_norming_L1-eng_no-translation,701,
arm,SCRUB,,,0,74,74,30,,,,,,,2018_Oct_22_1334,59.6175100231,verb_norming_L1-eng_no-translation,701,
leg,TRAMPLE,Leg,leg,0,75,75,72,0,0,0,0,7,5.794,2018_Oct_22_1334,59.6175100231,verb_norming_L1-eng_no-translation,701,
leg,TRAMPLE,Arm,arm,0,75,75,72,0,1,1,1,1,3.399,2018_Oct_22_1334,59.6175100231,verb_norming_L1-eng_no-translation,701,
leg,TRAMPLE,,,0,75,75,72,,,,,,,2018_Oct_22_1334,59.6175100231,verb_norming_L1-eng_no-translation,701,
arm,DIG,Leg,leg,0,76,76,8,0,0,0,0,1,3.633,2018_Oct_22_1334,59.6175100231,verb_norming_L1-eng_no-translation,701,
arm,DIG,Arm,arm,0,76,76,8,0,1,1,1,7,1.757,2018_Oct_22_1334,59.6175100231,verb_norming_L1-eng_no-translation,701,
arm,DIG,,,0,76,76,8,,,,,,,2018_Oct_22_1334,59.6175100231,verb_norming_L1-eng_no-translation,701,
arm,RUB,Leg,leg,0,77,77,27,0,0,0,0,1,3.48,2018_Oct_22_1334,59.6175100231,verb_norming_L1-eng_no-translation,701,
arm,RUB,Arm,arm,0,77,77,27,0,1,1,1,7,1.89,2018_Oct_22_1334,59.6175100231,verb_norming_L1-eng_no-translation,701,
arm,RUB,,,0,77,77,27,,,,,,,2018_Oct_22_1334,59.6175100231,verb_norming_L1-eng_no-translation,701,
leg,STOMP,Leg,leg,0,78,78,65,0,0,0,0,7,10.324,2018_Oct_22_1334,59.6175100231,verb_norming_L1-eng_no-translation,701,
leg,STOMP,Arm,arm,0,78,78,65,0,1,1,1,1,3.065,2018_Oct_22_1334,59.6175100231,verb_norming_L1-eng_no-translation,701,
leg,STOMP,,,0,78,78,65,,,,,,,2018_Oct_22_1334,59.6175100231,verb_norming_L1-eng_no-translation,701,
leg,JOG,Leg,leg,0,79,79,45,0,0,0,0,7,4.773,2018_Oct_22_1334,59.6175100231,verb_norming_L1-eng_no-translation,701,
leg,JOG,Arm,arm,0,79,79,45,0,1,1,1,1,2.513,2018_Oct_22_1334,59.6175100231,verb_norming_L1-eng_no-translation,701,
leg,JOG,,,0,79,79,45,,,,,,,2018_Oct_22_1334,59.6175100231,verb_norming_L1-eng_no-translation,701,
