type,verb,category,category_lowercase,trials.thisRepN,trials.thisTrialN,trials.thisN,trials.thisIndex,armleg_loop.thisRepN,armleg_loop.thisTrialN,armleg_loop.thisN,armleg_loop.thisIndex,rating.response,rating.rt,date,frameRate,expName,participant,
arm,BRUSH,Arm,arm,0,0,0,0,0,0,0,0,7,6.116,2018_Nov_01_1331,60.0702012431,verb_norming_L1-eng_no-translation,704,
arm,BRUSH,Leg,leg,0,0,0,0,0,1,1,1,2,6.606,2018_Nov_01_1331,60.0702012431,verb_norming_L1-eng_no-translation,704,
arm,BRUSH,,,0,0,0,0,,,,,,,2018_Nov_01_1331,60.0702012431,verb_norming_L1-eng_no-translation,704,
arm,STAB,Arm,arm,0,1,1,34,0,0,0,0,7,4.586,2018_Nov_01_1331,60.0702012431,verb_norming_L1-eng_no-translation,704,
arm,STAB,Leg,leg,0,1,1,34,0,1,1,1,1,2.908,2018_Nov_01_1331,60.0702012431,verb_norming_L1-eng_no-translation,704,
arm,STAB,,,0,1,1,34,,,,,,,2018_Nov_01_1331,60.0702012431,verb_norming_L1-eng_no-translation,704,
leg,PACE,Arm,arm,0,2,2,52,0,0,0,0,1,4.336,2018_Nov_01_1331,60.0702012431,verb_norming_L1-eng_no-translation,704,
leg,PACE,Leg,leg,0,2,2,52,0,1,1,1,7,2.275,2018_Nov_01_1331,60.0702012431,verb_norming_L1-eng_no-translation,704,
leg,PACE,,,0,2,2,52,,,,,,,2018_Nov_01_1331,60.0702012431,verb_norming_L1-eng_no-translation,704,
arm,GRAB,Arm,arm,0,3,3,11,0,0,0,0,7,3.701,2018_Nov_01_1331,60.0702012431,verb_norming_L1-eng_no-translation,704,
arm,GRAB,Leg,leg,0,3,3,11,0,1,1,1,1,9.755,2018_Nov_01_1331,60.0702012431,verb_norming_L1-eng_no-translation,704,
arm,GRAB,,,0,3,3,11,,,,,,,2018_Nov_01_1331,60.0702012431,verb_norming_L1-eng_no-translation,704,
arm,PUSH,Arm,arm,0,4,4,26,0,0,0,0,7,4.853,2018_Nov_01_1331,60.0702012431,verb_norming_L1-eng_no-translation,704,
arm,PUSH,Leg,leg,0,4,4,26,0,1,1,1,3,3.391,2018_Nov_01_1331,60.0702012431,verb_norming_L1-eng_no-translation,704,
arm,PUSH,,,0,4,4,26,,,,,,,2018_Nov_01_1331,60.0702012431,verb_norming_L1-eng_no-translation,704,
leg,TIPTOE,Arm,arm,0,5,5,71,0,0,0,0,1,7.332,2018_Nov_01_1331,60.0702012431,verb_norming_L1-eng_no-translation,704,
leg,TIPTOE,Leg,leg,0,5,5,71,0,1,1,1,7,4.655,2018_Nov_01_1331,60.0702012431,verb_norming_L1-eng_no-translation,704,
leg,TIPTOE,,,0,5,5,71,,,,,,,2018_Nov_01_1331,60.0702012431,verb_norming_L1-eng_no-translation,704,
arm,CLAP,Arm,arm,0,6,6,4,0,0,0,0,7,5.57,2018_Nov_01_1331,60.0702012431,verb_norming_L1-eng_no-translation,704,
arm,CLAP,Leg,leg,0,6,6,4,0,1,1,1,1,4.358,2018_Nov_01_1331,60.0702012431,verb_norming_L1-eng_no-translation,704,
arm,CLAP,,,0,6,6,4,,,,,,,2018_Nov_01_1331,60.0702012431,verb_norming_L1-eng_no-translation,704,
arm,POLISH,Arm,arm,0,7,7,23,0,0,0,0,7,6.601,2018_Nov_01_1331,60.0702012431,verb_norming_L1-eng_no-translation,704,
arm,POLISH,Leg,leg,0,7,7,23,0,1,1,1,2,4.672,2018_Nov_01_1331,60.0702012431,verb_norming_L1-eng_no-translation,704,
arm,POLISH,,,0,7,7,23,,,,,,,2018_Nov_01_1331,60.0702012431,verb_norming_L1-eng_no-translation,704,
arm,GRIP,Arm,arm,0,8,8,13,0,0,0,0,7,12.617,2018_Nov_01_1331,60.0702012431,verb_norming_L1-eng_no-translation,704,
arm,GRIP,Leg,leg,0,8,8,13,0,1,1,1,3,4.506,2018_Nov_01_1331,60.0702012431,verb_norming_L1-eng_no-translation,704,
arm,GRIP,,,0,8,8,13,,,,,,,2018_Nov_01_1331,60.0702012431,verb_norming_L1-eng_no-translation,704,
arm,SCRATCH,Arm,arm,0,9,9,29,0,0,0,0,7,5.631,2018_Nov_01_1331,60.0702012431,verb_norming_L1-eng_no-translation,704,
arm,SCRATCH,Leg,leg,0,9,9,29,0,1,1,1,2,2.956,2018_Nov_01_1331,60.0702012431,verb_norming_L1-eng_no-translation,704,
arm,SCRATCH,,,0,9,9,29,,,,,,,2018_Nov_01_1331,60.0702012431,verb_norming_L1-eng_no-translation,704,
leg,LIMP,Arm,arm,0,10,10,50,0,0,0,0,1,9.398,2018_Nov_01_1331,60.0702012431,verb_norming_L1-eng_no-translation,704,
leg,LIMP,Leg,leg,0,10,10,50,0,1,1,1,7,3.674,2018_Nov_01_1331,60.0702012431,verb_norming_L1-eng_no-translation,704,
leg,LIMP,,,0,10,10,50,,,,,,,2018_Nov_01_1331,60.0702012431,verb_norming_L1-eng_no-translation,704,
leg,ROAM,Arm,arm,0,11,11,54,0,0,0,0,1,9.702,2018_Nov_01_1331,60.0702012431,verb_norming_L1-eng_no-translation,704,
leg,ROAM,Leg,leg,0,11,11,54,0,1,1,1,6,6.956,2018_Nov_01_1331,60.0702012431,verb_norming_L1-eng_no-translation,704,
leg,ROAM,,,0,11,11,54,,,,,,,2018_Nov_01_1331,60.0702012431,verb_norming_L1-eng_no-translation,704,
arm,SLAP,Arm,arm,0,12,12,32,0,0,0,0,7,5.452,2018_Nov_01_1331,60.0702012431,verb_norming_L1-eng_no-translation,704,
arm,SLAP,Leg,leg,0,12,12,32,0,1,1,1,2,9.323,2018_Nov_01_1331,60.0702012431,verb_norming_L1-eng_no-translation,704,
arm,SLAP,,,0,12,12,32,,,,,,,2018_Nov_01_1331,60.0702012431,verb_norming_L1-eng_no-translation,704,
leg,STOMP,Arm,arm,0,13,13,65,0,0,0,0,1,5.469,2018_Nov_01_1331,60.0702012431,verb_norming_L1-eng_no-translation,704,
leg,STOMP,Leg,leg,0,13,13,65,0,1,1,1,7,3.707,2018_Nov_01_1331,60.0702012431,verb_norming_L1-eng_no-translation,704,
leg,STOMP,,,0,13,13,65,,,,,,,2018_Nov_01_1331,60.0702012431,verb_norming_L1-eng_no-translation,704,
leg,KICK,Arm,arm,0,14,14,47,0,0,0,0,1,5.269,2018_Nov_01_1331,60.0702012431,verb_norming_L1-eng_no-translation,704,
leg,KICK,Leg,leg,0,14,14,47,0,1,1,1,7,3.306,2018_Nov_01_1331,60.0702012431,verb_norming_L1-eng_no-translation,704,
leg,KICK,,,0,14,14,47,,,,,,,2018_Nov_01_1331,60.0702012431,verb_norming_L1-eng_no-translation,704,
leg,GLIDE,Arm,arm,0,15,15,42,0,0,0,0,2,8.514,2018_Nov_01_1331,60.0702012431,verb_norming_L1-eng_no-translation,704,
leg,GLIDE,Leg,leg,0,15,15,42,0,1,1,1,6,3.54,2018_Nov_01_1331,60.0702012431,verb_norming_L1-eng_no-translation,704,
leg,GLIDE,,,0,15,15,42,,,,,,,2018_Nov_01_1331,60.0702012431,verb_norming_L1-eng_no-translation,704,
leg,RUSH,Arm,arm,0,16,16,56,0,0,0,0,4,6.186,2018_Nov_01_1331,60.0702012431,verb_norming_L1-eng_no-translation,704,
leg,RUSH,Leg,leg,0,16,16,56,0,1,1,1,6,6.274,2018_Nov_01_1331,60.0702012431,verb_norming_L1-eng_no-translation,704,
leg,RUSH,,,0,16,16,56,,,,,,,2018_Nov_01_1331,60.0702012431,verb_norming_L1-eng_no-translation,704,
leg,BOUNCE,Arm,arm,0,17,17,40,0,0,0,0,4,6.195,2018_Nov_01_1331,60.0702012431,verb_norming_L1-eng_no-translation,704,
leg,BOUNCE,Leg,leg,0,17,17,40,0,1,1,1,4,3.287,2018_Nov_01_1331,60.0702012431,verb_norming_L1-eng_no-translation,704,
leg,BOUNCE,,,0,17,17,40,,,,,,,2018_Nov_01_1331,60.0702012431,verb_norming_L1-eng_no-translation,704,
leg,WANDER,Arm,arm,0,18,18,78,0,0,0,0,4,14.312,2018_Nov_01_1331,60.0702012431,verb_norming_L1-eng_no-translation,704,
leg,WANDER,Leg,leg,0,18,18,78,0,1,1,1,6,3.287,2018_Nov_01_1331,60.0702012431,verb_norming_L1-eng_no-translation,704,
leg,WANDER,,,0,18,18,78,,,,,,,2018_Nov_01_1331,60.0702012431,verb_norming_L1-eng_no-translation,704,
arm,CHOP,Arm,arm,0,19,19,3,0,0,0,0,7,4.536,2018_Nov_01_1331,60.0702012431,verb_norming_L1-eng_no-translation,704,
arm,CHOP,Leg,leg,0,19,19,3,0,1,1,1,2,10.706,2018_Nov_01_1331,60.0702012431,verb_norming_L1-eng_no-translation,704,
arm,CHOP,,,0,19,19,3,,,,,,,2018_Nov_01_1331,60.0702012431,verb_norming_L1-eng_no-translation,704,
arm,SCOOP,Arm,arm,0,20,20,28,0,0,0,0,7,4.636,2018_Nov_01_1331,60.0702012431,verb_norming_L1-eng_no-translation,704,
arm,SCOOP,Leg,leg,0,20,20,28,0,1,1,1,1,3.457,2018_Nov_01_1331,60.0702012431,verb_norming_L1-eng_no-translation,704,
arm,SCOOP,,,0,20,20,28,,,,,,,2018_Nov_01_1331,60.0702012431,verb_norming_L1-eng_no-translation,704,
arm,CARVE,Arm,arm,0,21,21,1,0,0,0,0,7,6.246,2018_Nov_01_1331,60.0702012431,verb_norming_L1-eng_no-translation,704,
arm,CARVE,Leg,leg,0,21,21,1,0,1,1,1,1,5.453,2018_Nov_01_1331,60.0702012431,verb_norming_L1-eng_no-translation,704,
arm,CARVE,,,0,21,21,1,,,,,,,2018_Nov_01_1331,60.0702012431,verb_norming_L1-eng_no-translation,704,
arm,CLICK,Arm,arm,0,22,22,6,0,0,0,0,7,4.652,2018_Nov_01_1331,60.0702012431,verb_norming_L1-eng_no-translation,704,
arm,CLICK,Leg,leg,0,22,22,6,0,1,1,1,3,3.673,2018_Nov_01_1331,60.0702012431,verb_norming_L1-eng_no-translation,704,
arm,CLICK,,,0,22,22,6,,,,,,,2018_Nov_01_1331,60.0702012431,verb_norming_L1-eng_no-translation,704,
leg,STRAY,Arm,arm,0,23,23,66,0,0,0,0,3,5.833,2018_Nov_01_1331,60.0702012431,verb_norming_L1-eng_no-translation,704,
leg,STRAY,Leg,leg,0,23,23,66,0,1,1,1,5,3.091,2018_Nov_01_1331,60.0702012431,verb_norming_L1-eng_no-translation,704,
leg,STRAY,,,0,23,23,66,,,,,,,2018_Nov_01_1331,60.0702012431,verb_norming_L1-eng_no-translation,704,
arm,CATCH,Arm,arm,0,24,24,2,0,0,0,0,7,4.269,2018_Nov_01_1331,60.0702012431,verb_norming_L1-eng_no-translation,704,
arm,CATCH,Leg,leg,0,24,24,2,0,1,1,1,1,3.889,2018_Nov_01_1331,60.0702012431,verb_norming_L1-eng_no-translation,704,
arm,CATCH,,,0,24,24,2,,,,,,,2018_Nov_01_1331,60.0702012431,verb_norming_L1-eng_no-translation,704,
arm,NIP,Arm,arm,0,25,25,17,0,0,0,0,4,22.397,2018_Nov_01_1331,60.0702012431,verb_norming_L1-eng_no-translation,704,
arm,NIP,Leg,leg,0,25,25,17,0,1,1,1,1,4.856,2018_Nov_01_1331,60.0702012431,verb_norming_L1-eng_no-translation,704,
arm,NIP,,,0,25,25,17,,,,,,,2018_Nov_01_1331,60.0702012431,verb_norming_L1-eng_no-translation,704,
arm,CUT,Arm,arm,0,26,26,7,0,0,0,0,7,8.719,2018_Nov_01_1331,60.0702012431,verb_norming_L1-eng_no-translation,704,
arm,CUT,Leg,leg,0,26,26,7,0,1,1,1,3,5.641,2018_Nov_01_1331,60.0702012431,verb_norming_L1-eng_no-translation,704,
arm,CUT,,,0,26,26,7,,,,,,,2018_Nov_01_1331,60.0702012431,verb_norming_L1-eng_no-translation,704,
arm,KNOCK,Arm,arm,0,27,27,16,0,0,0,0,7,3.7,2018_Nov_01_1331,60.0702012431,verb_norming_L1-eng_no-translation,704,
arm,KNOCK,Leg,leg,0,27,27,16,0,1,1,1,3,4.104,2018_Nov_01_1331,60.0702012431,verb_norming_L1-eng_no-translation,704,
arm,KNOCK,,,0,27,27,16,,,,,,,2018_Nov_01_1331,60.0702012431,verb_norming_L1-eng_no-translation,704,
arm,PINCH,Arm,arm,0,28,28,20,0,0,0,0,7,4.631,2018_Nov_01_1331,60.0702012431,verb_norming_L1-eng_no-translation,704,
arm,PINCH,Leg,leg,0,28,28,20,0,1,1,1,2,10.068,2018_Nov_01_1331,60.0702012431,verb_norming_L1-eng_no-translation,704,
arm,PINCH,,,0,28,28,20,,,,,,,2018_Nov_01_1331,60.0702012431,verb_norming_L1-eng_no-translation,704,
leg,JOG,Arm,arm,0,29,29,45,0,0,0,0,2,13.83,2018_Nov_01_1331,60.0702012431,verb_norming_L1-eng_no-translation,704,
leg,JOG,Leg,leg,0,29,29,45,0,1,1,1,7,2.206,2018_Nov_01_1331,60.0702012431,verb_norming_L1-eng_no-translation,704,
leg,JOG,,,0,29,29,45,,,,,,,2018_Nov_01_1331,60.0702012431,verb_norming_L1-eng_no-translation,704,
leg,STAND,Arm,arm,0,30,30,63,0,0,0,0,1,6.882,2018_Nov_01_1331,60.0702012431,verb_norming_L1-eng_no-translation,704,
leg,STAND,Leg,leg,0,30,30,63,0,1,1,1,7,3.304,2018_Nov_01_1331,60.0702012431,verb_norming_L1-eng_no-translation,704,
leg,STAND,,,0,30,30,63,,,,,,,2018_Nov_01_1331,60.0702012431,verb_norming_L1-eng_no-translation,704,
arm,SCRUB,Arm,arm,0,31,31,30,0,0,0,0,7,4.169,2018_Nov_01_1331,60.0702012431,verb_norming_L1-eng_no-translation,704,
arm,SCRUB,Leg,leg,0,31,31,30,0,1,1,1,1,4.789,2018_Nov_01_1331,60.0702012431,verb_norming_L1-eng_no-translation,704,
arm,SCRUB,,,0,31,31,30,,,,,,,2018_Nov_01_1331,60.0702012431,verb_norming_L1-eng_no-translation,704,
arm,SIGN,Arm,arm,0,32,32,31,0,0,0,0,7,4.817,2018_Nov_01_1331,60.0702012431,verb_norming_L1-eng_no-translation,704,
arm,SIGN,Leg,leg,0,32,32,31,0,1,1,1,1,4.503,2018_Nov_01_1331,60.0702012431,verb_norming_L1-eng_no-translation,704,
arm,SIGN,,,0,32,32,31,,,,,,,2018_Nov_01_1331,60.0702012431,verb_norming_L1-eng_no-translation,704,
arm,THROW,Arm,arm,0,33,33,36,0,0,0,0,7,5.803,2018_Nov_01_1331,60.0702012431,verb_norming_L1-eng_no-translation,704,
arm,THROW,Leg,leg,0,33,33,36,0,1,1,1,1,4.04,2018_Nov_01_1331,60.0702012431,verb_norming_L1-eng_no-translation,704,
arm,THROW,,,0,33,33,36,,,,,,,2018_Nov_01_1331,60.0702012431,verb_norming_L1-eng_no-translation,704,
leg,LEAP,Arm,arm,0,34,34,49,0,0,0,0,1,4.62,2018_Nov_01_1331,60.0702012431,verb_norming_L1-eng_no-translation,704,
leg,LEAP,Leg,leg,0,34,34,49,0,1,1,1,7,2.907,2018_Nov_01_1331,60.0702012431,verb_norming_L1-eng_no-translation,704,
leg,LEAP,,,0,34,34,49,,,,,,,2018_Nov_01_1331,60.0702012431,verb_norming_L1-eng_no-translation,704,
arm,WASH,Arm,arm,0,35,35,37,0,0,0,0,7,3.237,2018_Nov_01_1331,60.0702012431,verb_norming_L1-eng_no-translation,704,
arm,WASH,Leg,leg,0,35,35,37,0,1,1,1,1,4.091,2018_Nov_01_1331,60.0702012431,verb_norming_L1-eng_no-translation,704,
arm,WASH,,,0,35,35,37,,,,,,,2018_Nov_01_1331,60.0702012431,verb_norming_L1-eng_no-translation,704,
leg,SKATE,Arm,arm,0,36,36,57,0,0,0,0,1,5.385,2018_Nov_01_1331,60.0702012431,verb_norming_L1-eng_no-translation,704,
leg,SKATE,Leg,leg,0,36,36,57,0,1,1,1,7,2.474,2018_Nov_01_1331,60.0702012431,verb_norming_L1-eng_no-translation,704,
leg,SKATE,,,0,36,36,57,,,,,,,2018_Nov_01_1331,60.0702012431,verb_norming_L1-eng_no-translation,704,
arm,STIR,Arm,arm,0,37,37,35,0,0,0,0,7,6.286,2018_Nov_01_1331,60.0702012431,verb_norming_L1-eng_no-translation,704,
arm,STIR,Leg,leg,0,37,37,35,0,1,1,1,3,2.907,2018_Nov_01_1331,60.0702012431,verb_norming_L1-eng_no-translation,704,
arm,STIR,,,0,37,37,35,,,,,,,2018_Nov_01_1331,60.0702012431,verb_norming_L1-eng_no-translation,704,
leg,SPRINT,Arm,arm,0,38,38,61,0,0,0,0,2,6.546,2018_Nov_01_1331,60.0702012431,verb_norming_L1-eng_no-translation,704,
leg,SPRINT,Leg,leg,0,38,38,61,0,1,1,1,7,1.968,2018_Nov_01_1331,60.0702012431,verb_norming_L1-eng_no-translation,704,
leg,SPRINT,,,0,38,38,61,,,,,,,2018_Nov_01_1331,60.0702012431,verb_norming_L1-eng_no-translation,704,
leg,WADE,Arm,arm,0,39,39,76,0,0,0,0,7,4.769,2018_Nov_01_1331,60.0702012431,verb_norming_L1-eng_no-translation,704,
leg,WADE,Leg,leg,0,39,39,76,0,1,1,1,4,5.606,2018_Nov_01_1331,60.0702012431,verb_norming_L1-eng_no-translation,704,
leg,WADE,,,0,39,39,76,,,,,,,2018_Nov_01_1331,60.0702012431,verb_norming_L1-eng_no-translation,704,
arm,PUNCH,Arm,arm,0,40,40,25,0,0,0,0,7,2.783,2018_Nov_01_1331,60.0702012431,verb_norming_L1-eng_no-translation,704,
arm,PUNCH,Leg,leg,0,40,40,25,0,1,1,1,1,2.271,2018_Nov_01_1331,60.0702012431,verb_norming_L1-eng_no-translation,704,
arm,PUNCH,,,0,40,40,25,,,,,,,2018_Nov_01_1331,60.0702012431,verb_norming_L1-eng_no-translation,704,
leg,SKIP,Arm,arm,0,41,41,58,0,0,0,0,2,11.268,2018_Nov_01_1331,60.0702012431,verb_norming_L1-eng_no-translation,704,
leg,SKIP,Leg,leg,0,41,41,58,0,1,1,1,7,3.108,2018_Nov_01_1331,60.0702012431,verb_norming_L1-eng_no-translation,704,
leg,SKIP,,,0,41,41,58,,,,,,,2018_Nov_01_1331,60.0702012431,verb_norming_L1-eng_no-translation,704,
leg,WALK,Arm,arm,0,42,42,77,0,0,0,0,2,6.435,2018_Nov_01_1331,60.0702012431,verb_norming_L1-eng_no-translation,704,
leg,WALK,Leg,leg,0,42,42,77,0,1,1,1,7,3.224,2018_Nov_01_1331,60.0702012431,verb_norming_L1-eng_no-translation,704,
leg,WALK,,,0,42,42,77,,,,,,,2018_Nov_01_1331,60.0702012431,verb_norming_L1-eng_no-translation,704,
arm,RUB,Arm,arm,0,43,43,27,0,0,0,0,7,5.086,2018_Nov_01_1331,60.0702012431,verb_norming_L1-eng_no-translation,704,
arm,RUB,Leg,leg,0,43,43,27,0,1,1,1,1,3.724,2018_Nov_01_1331,60.0702012431,verb_norming_L1-eng_no-translation,704,
arm,RUB,,,0,43,43,27,,,,,,,2018_Nov_01_1331,60.0702012431,verb_norming_L1-eng_no-translation,704,
leg,TROT,Arm,arm,0,44,44,74,0,0,0,0,1,5.202,2018_Nov_01_1331,60.0702012431,verb_norming_L1-eng_no-translation,704,
leg,TROT,Leg,leg,0,44,44,74,0,1,1,1,7,2.658,2018_Nov_01_1331,60.0702012431,verb_norming_L1-eng_no-translation,704,
leg,TROT,,,0,44,44,74,,,,,,,2018_Nov_01_1331,60.0702012431,verb_norming_L1-eng_no-translation,704,
arm,PAT,Arm,arm,0,45,45,18,0,0,0,0,7,3.652,2018_Nov_01_1331,60.0702012431,verb_norming_L1-eng_no-translation,704,
arm,PAT,Leg,leg,0,45,45,18,0,1,1,1,1,3.391,2018_Nov_01_1331,60.0702012431,verb_norming_L1-eng_no-translation,704,
arm,PAT,,,0,45,45,18,,,,,,,2018_Nov_01_1331,60.0702012431,verb_norming_L1-eng_no-translation,704,
leg,STRUT,Arm,arm,0,46,46,69,0,0,0,0,2,8.001,2018_Nov_01_1331,60.0702012431,verb_norming_L1-eng_no-translation,704,
leg,STRUT,Leg,leg,0,46,46,69,0,1,1,1,7,3.09,2018_Nov_01_1331,60.0702012431,verb_norming_L1-eng_no-translation,704,
leg,STRUT,,,0,46,46,69,,,,,,,2018_Nov_01_1331,60.0702012431,verb_norming_L1-eng_no-translation,704,
leg,TRIP,Arm,arm,0,47,47,73,0,0,0,0,1,5.819,2018_Nov_01_1331,60.0702012431,verb_norming_L1-eng_no-translation,704,
leg,TRIP,Leg,leg,0,47,47,73,0,1,1,1,7,2.141,2018_Nov_01_1331,60.0702012431,verb_norming_L1-eng_no-translation,704,
leg,TRIP,,,0,47,47,73,,,,,,,2018_Nov_01_1331,60.0702012431,verb_norming_L1-eng_no-translation,704,
arm,WHIP,Arm,arm,0,48,48,38,0,0,0,0,7,3.053,2018_Nov_01_1331,60.0702012431,verb_norming_L1-eng_no-translation,704,
arm,WHIP,Leg,leg,0,48,48,38,0,1,1,1,1,2.423,2018_Nov_01_1331,60.0702012431,verb_norming_L1-eng_no-translation,704,
arm,WHIP,,,0,48,48,38,,,,,,,2018_Nov_01_1331,60.0702012431,verb_norming_L1-eng_no-translation,704,
leg,TRUDGE,Arm,arm,0,49,49,75,0,0,0,0,1,7.551,2018_Nov_01_1331,60.0702012431,verb_norming_L1-eng_no-translation,704,
leg,TRUDGE,Leg,leg,0,49,49,75,0,1,1,1,7,2.84,2018_Nov_01_1331,60.0702012431,verb_norming_L1-eng_no-translation,704,
leg,TRUDGE,,,0,49,49,75,,,,,,,2018_Nov_01_1331,60.0702012431,verb_norming_L1-eng_no-translation,704,
leg,KNEEL,Arm,arm,0,50,50,48,0,0,0,0,1,3.05,2018_Nov_01_1331,60.0702012431,verb_norming_L1-eng_no-translation,704,
leg,KNEEL,Leg,leg,0,50,50,48,0,1,1,1,7,3.388,2018_Nov_01_1331,60.0702012431,verb_norming_L1-eng_no-translation,704,
leg,KNEEL,,,0,50,50,48,,,,,,,2018_Nov_01_1331,60.0702012431,verb_norming_L1-eng_no-translation,704,
leg,SNEAK,Arm,arm,0,51,51,60,0,0,0,0,3,4.649,2018_Nov_01_1331,60.0702012431,verb_norming_L1-eng_no-translation,704,
leg,SNEAK,Leg,leg,0,51,51,60,0,1,1,1,7,2.438,2018_Nov_01_1331,60.0702012431,verb_norming_L1-eng_no-translation,704,
leg,SNEAK,,,0,51,51,60,,,,,,,2018_Nov_01_1331,60.0702012431,verb_norming_L1-eng_no-translation,704,
arm,GRASP,Arm,arm,0,52,52,12,0,0,0,0,7,3.819,2018_Nov_01_1331,60.0702012431,verb_norming_L1-eng_no-translation,704,
arm,GRASP,Leg,leg,0,52,52,12,0,1,1,1,2,3.64,2018_Nov_01_1331,60.0702012431,verb_norming_L1-eng_no-translation,704,
arm,GRASP,,,0,52,52,12,,,,,,,2018_Nov_01_1331,60.0702012431,verb_norming_L1-eng_no-translation,704,
arm,HUG,Arm,arm,0,53,53,15,0,0,0,0,7,3.686,2018_Nov_01_1331,60.0702012431,verb_norming_L1-eng_no-translation,704,
arm,HUG,Leg,leg,0,53,53,15,0,1,1,1,1,3.026,2018_Nov_01_1331,60.0702012431,verb_norming_L1-eng_no-translation,704,
arm,HUG,,,0,53,53,15,,,,,,,2018_Nov_01_1331,60.0702012431,verb_norming_L1-eng_no-translation,704,
leg,STROLL,Arm,arm,0,54,54,68,0,0,0,0,1,6.35,2018_Nov_01_1331,60.0702012431,verb_norming_L1-eng_no-translation,704,
leg,STROLL,Leg,leg,0,54,54,68,0,1,1,1,7,2.74,2018_Nov_01_1331,60.0702012431,verb_norming_L1-eng_no-translation,704,
leg,STROLL,,,0,54,54,68,,,,,,,2018_Nov_01_1331,60.0702012431,verb_norming_L1-eng_no-translation,704,
leg,WOBBLE,Arm,arm,0,55,55,79,0,0,0,0,2,4.551,2018_Nov_01_1331,60.0702012431,verb_norming_L1-eng_no-translation,704,
leg,WOBBLE,Leg,leg,0,55,55,79,0,1,1,1,7,2.307,2018_Nov_01_1331,60.0702012431,verb_norming_L1-eng_no-translation,704,
leg,WOBBLE,,,0,55,55,79,,,,,,,2018_Nov_01_1331,60.0702012431,verb_norming_L1-eng_no-translation,704,
leg,STEP,Arm,arm,0,56,56,64,0,0,0,0,3,6.819,2018_Nov_01_1331,60.0702012431,verb_norming_L1-eng_no-translation,704,
leg,STEP,Leg,leg,0,56,56,64,0,1,1,1,7,14.972,2018_Nov_01_1331,60.0702012431,verb_norming_L1-eng_no-translation,704,
leg,STEP,,,0,56,56,64,,,,,,,2018_Nov_01_1331,60.0702012431,verb_norming_L1-eng_no-translation,704,
arm,SNATCH,Arm,arm,0,57,57,33,0,0,0,0,7,4.981,2018_Nov_01_1331,60.0702012431,verb_norming_L1-eng_no-translation,704,
arm,SNATCH,Leg,leg,0,57,57,33,0,1,1,1,1,5.869,2018_Nov_01_1331,60.0702012431,verb_norming_L1-eng_no-translation,704,
arm,SNATCH,,,0,57,57,33,,,,,,,2018_Nov_01_1331,60.0702012431,verb_norming_L1-eng_no-translation,704,
arm,PLUCK,Arm,arm,0,58,58,21,0,0,0,0,7,3.303,2018_Nov_01_1331,60.0702012431,verb_norming_L1-eng_no-translation,704,
arm,PLUCK,Leg,leg,0,58,58,21,0,1,1,1,1,2.29,2018_Nov_01_1331,60.0702012431,verb_norming_L1-eng_no-translation,704,
arm,PLUCK,,,0,58,58,21,,,,,,,2018_Nov_01_1331,60.0702012431,verb_norming_L1-eng_no-translation,704,
leg,STUMBLE,Arm,arm,0,59,59,70,0,0,0,0,1,9.166,2018_Nov_01_1331,60.0702012431,verb_norming_L1-eng_no-translation,704,
leg,STUMBLE,Leg,leg,0,59,59,70,0,1,1,1,7,4.088,2018_Nov_01_1331,60.0702012431,verb_norming_L1-eng_no-translation,704,
leg,STUMBLE,,,0,59,59,70,,,,,,,2018_Nov_01_1331,60.0702012431,verb_norming_L1-eng_no-translation,704,
arm,GESTURE,Arm,arm,0,60,60,10,0,0,0,0,7,3.482,2018_Nov_01_1331,60.0702012431,verb_norming_L1-eng_no-translation,704,
arm,GESTURE,Leg,leg,0,60,60,10,0,1,1,1,1,6.887,2018_Nov_01_1331,60.0702012431,verb_norming_L1-eng_no-translation,704,
arm,GESTURE,,,0,60,60,10,,,,,,,2018_Nov_01_1331,60.0702012431,verb_norming_L1-eng_no-translation,704,
arm,PULL,Arm,arm,0,61,61,24,0,0,0,0,7,4.019,2018_Nov_01_1331,60.0702012431,verb_norming_L1-eng_no-translation,704,
arm,PULL,Leg,leg,0,61,61,24,0,1,1,1,2,4.69,2018_Nov_01_1331,60.0702012431,verb_norming_L1-eng_no-translation,704,
arm,PULL,,,0,61,61,24,,,,,,,2018_Nov_01_1331,60.0702012431,verb_norming_L1-eng_no-translation,704,
arm,HACK,Arm,arm,0,62,62,14,0,0,0,0,7,3.685,2018_Nov_01_1331,60.0702012431,verb_norming_L1-eng_no-translation,704,
arm,HACK,Leg,leg,0,62,62,14,0,1,1,1,1,3.839,2018_Nov_01_1331,60.0702012431,verb_norming_L1-eng_no-translation,704,
arm,HACK,,,0,62,62,14,,,,,,,2018_Nov_01_1331,60.0702012431,verb_norming_L1-eng_no-translation,704,
leg,RUN,Arm,arm,0,63,63,55,0,0,0,0,4,7.483,2018_Nov_01_1331,60.0702012431,verb_norming_L1-eng_no-translation,704,
leg,RUN,Leg,leg,0,63,63,55,0,1,1,1,7,1.989,2018_Nov_01_1331,60.0702012431,verb_norming_L1-eng_no-translation,704,
leg,RUN,,,0,63,63,55,,,,,,,2018_Nov_01_1331,60.0702012431,verb_norming_L1-eng_no-translation,704,
leg,FLEE,Arm,arm,0,64,64,41,0,0,0,0,2,4.369,2018_Nov_01_1331,60.0702012431,verb_norming_L1-eng_no-translation,704,
leg,FLEE,Leg,leg,0,64,64,41,0,1,1,1,7,3.024,2018_Nov_01_1331,60.0702012431,verb_norming_L1-eng_no-translation,704,
leg,FLEE,,,0,64,64,41,,,,,,,2018_Nov_01_1331,60.0702012431,verb_norming_L1-eng_no-translation,704,
leg,SQUAT,Arm,arm,0,65,65,62,0,0,0,0,3,4.378,2018_Nov_01_1331,60.0702012431,verb_norming_L1-eng_no-translation,704,
leg,SQUAT,Leg,leg,0,65,65,62,0,1,1,1,7,2.004,2018_Nov_01_1331,60.0702012431,verb_norming_L1-eng_no-translation,704,
leg,SQUAT,,,0,65,65,62,,,,,,,2018_Nov_01_1331,60.0702012431,verb_norming_L1-eng_no-translation,704,
arm,PEEL,Arm,arm,0,66,66,19,0,0,0,0,7,3.536,2018_Nov_01_1331,60.0702012431,verb_norming_L1-eng_no-translation,704,
arm,PEEL,Leg,leg,0,66,66,19,0,1,1,1,1,2.324,2018_Nov_01_1331,60.0702012431,verb_norming_L1-eng_no-translation,704,
arm,PEEL,,,0,66,66,19,,,,,,,2018_Nov_01_1331,60.0702012431,verb_norming_L1-eng_no-translation,704,
leg,PEDAL,Arm,arm,0,67,67,53,0,0,0,0,1,4.218,2018_Nov_01_1331,60.0702012431,verb_norming_L1-eng_no-translation,704,
leg,PEDAL,Leg,leg,0,67,67,53,0,1,1,1,7,2.39,2018_Nov_01_1331,60.0702012431,verb_norming_L1-eng_no-translation,704,
leg,PEDAL,,,0,67,67,53,,,,,,,2018_Nov_01_1331,60.0702012431,verb_norming_L1-eng_no-translation,704,
leg,JUMP,Arm,arm,0,68,68,46,0,0,0,0,1,3.401,2018_Nov_01_1331,60.0702012431,verb_norming_L1-eng_no-translation,704,
leg,JUMP,Leg,leg,0,68,68,46,0,1,1,1,7,2.738,2018_Nov_01_1331,60.0702012431,verb_norming_L1-eng_no-translation,704,
leg,JUMP,,,0,68,68,46,,,,,,,2018_Nov_01_1331,60.0702012431,verb_norming_L1-eng_no-translation,704,
leg,HIKE,Arm,arm,0,69,69,43,0,0,0,0,3,29.346,2018_Nov_01_1331,60.0702012431,verb_norming_L1-eng_no-translation,704,
leg,HIKE,Leg,leg,0,69,69,43,0,1,1,1,7,1.691,2018_Nov_01_1331,60.0702012431,verb_norming_L1-eng_no-translation,704,
leg,HIKE,,,0,69,69,43,,,,,,,2018_Nov_01_1331,60.0702012431,verb_norming_L1-eng_no-translation,704,
arm,WIPE,Arm,arm,0,70,70,39,0,0,0,0,7,3.619,2018_Nov_01_1331,60.0702012431,verb_norming_L1-eng_no-translation,704,
arm,WIPE,Leg,leg,0,70,70,39,0,1,1,1,1,1.871,2018_Nov_01_1331,60.0702012431,verb_norming_L1-eng_no-translation,704,
arm,WIPE,,,0,70,70,39,,,,,,,2018_Nov_01_1331,60.0702012431,verb_norming_L1-eng_no-translation,704,
arm,FOLD,Arm,arm,0,71,71,9,0,0,0,0,7,5.07,2018_Nov_01_1331,60.0702012431,verb_norming_L1-eng_no-translation,704,
arm,FOLD,Leg,leg,0,71,71,9,0,1,1,1,2,2.523,2018_Nov_01_1331,60.0702012431,verb_norming_L1-eng_no-translation,704,
arm,FOLD,,,0,71,71,9,,,,,,,2018_Nov_01_1331,60.0702012431,verb_norming_L1-eng_no-translation,704,
arm,DIG,Arm,arm,0,72,72,8,0,0,0,0,7,2.82,2018_Nov_01_1331,60.0702012431,verb_norming_L1-eng_no-translation,704,
arm,DIG,Leg,leg,0,72,72,8,0,1,1,1,2,3.507,2018_Nov_01_1331,60.0702012431,verb_norming_L1-eng_no-translation,704,
arm,DIG,,,0,72,72,8,,,,,,,2018_Nov_01_1331,60.0702012431,verb_norming_L1-eng_no-translation,704,
leg,SLIP,Arm,arm,0,73,73,59,0,0,0,0,3,5.018,2018_Nov_01_1331,60.0702012431,verb_norming_L1-eng_no-translation,704,
leg,SLIP,Leg,leg,0,73,73,59,0,1,1,1,7,1.792,2018_Nov_01_1331,60.0702012431,verb_norming_L1-eng_no-translation,704,
leg,SLIP,,,0,73,73,59,,,,,,,2018_Nov_01_1331,60.0702012431,verb_norming_L1-eng_no-translation,704,
arm,POKE,Arm,arm,0,74,74,22,0,0,0,0,7,3.77,2018_Nov_01_1331,60.0702012431,verb_norming_L1-eng_no-translation,704,
arm,POKE,Leg,leg,0,74,74,22,0,1,1,1,1,5.657,2018_Nov_01_1331,60.0702012431,verb_norming_L1-eng_no-translation,704,
arm,POKE,,,0,74,74,22,,,,,,,2018_Nov_01_1331,60.0702012431,verb_norming_L1-eng_no-translation,704,
leg,HOP,Arm,arm,0,75,75,44,0,0,0,0,1,4.152,2018_Nov_01_1331,60.0702012431,verb_norming_L1-eng_no-translation,704,
leg,HOP,Leg,leg,0,75,75,44,0,1,1,1,7,4.475,2018_Nov_01_1331,60.0702012431,verb_norming_L1-eng_no-translation,704,
leg,HOP,,,0,75,75,44,,,,,,,2018_Nov_01_1331,60.0702012431,verb_norming_L1-eng_no-translation,704,
arm,CLEAN,Arm,arm,0,76,76,5,0,0,0,0,7,2.749,2018_Nov_01_1331,60.0702012431,verb_norming_L1-eng_no-translation,704,
arm,CLEAN,Leg,leg,0,76,76,5,0,1,1,1,1,5.453,2018_Nov_01_1331,60.0702012431,verb_norming_L1-eng_no-translation,704,
arm,CLEAN,,,0,76,76,5,,,,,,,2018_Nov_01_1331,60.0702012431,verb_norming_L1-eng_no-translation,704,
leg,TRAMPLE,Arm,arm,0,77,77,72,0,0,0,0,1,4.184,2018_Nov_01_1331,60.0702012431,verb_norming_L1-eng_no-translation,704,
leg,TRAMPLE,Leg,leg,0,77,77,72,0,1,1,1,7,3.637,2018_Nov_01_1331,60.0702012431,verb_norming_L1-eng_no-translation,704,
leg,TRAMPLE,,,0,77,77,72,,,,,,,2018_Nov_01_1331,60.0702012431,verb_norming_L1-eng_no-translation,704,
leg,STRIDE,Arm,arm,0,78,78,67,0,0,0,0,1,8.467,2018_Nov_01_1331,60.0702012431,verb_norming_L1-eng_no-translation,704,
leg,STRIDE,Leg,leg,0,78,78,67,0,1,1,1,7,1.971,2018_Nov_01_1331,60.0702012431,verb_norming_L1-eng_no-translation,704,
leg,STRIDE,,,0,78,78,67,,,,,,,2018_Nov_01_1331,60.0702012431,verb_norming_L1-eng_no-translation,704,
leg,MARCH,Arm,arm,0,79,79,51,0,0,0,0,2,7.885,2018_Nov_01_1331,60.0702012431,verb_norming_L1-eng_no-translation,704,
leg,MARCH,Leg,leg,0,79,79,51,0,1,1,1,7,2.107,2018_Nov_01_1331,60.0702012431,verb_norming_L1-eng_no-translation,704,
leg,MARCH,,,0,79,79,51,,,,,,,2018_Nov_01_1331,60.0702012431,verb_norming_L1-eng_no-translation,704,
