type,verb,category,category_lowercase,trials.thisRepN,trials.thisTrialN,trials.thisN,trials.thisIndex,armleg_loop.thisRepN,armleg_loop.thisTrialN,armleg_loop.thisN,armleg_loop.thisIndex,rating.response,rating.rt,date,frameRate,expName,participant,
leg,SLIP,Arm,arm,0,0,0,59,0,0,0,0,2,13.186,2018_Sep_28_1343,59.5852471633,verb_norming_L1-eng_no-translation,990,
leg,SLIP,Leg,leg,0,0,0,59,0,1,1,1,7,5.577,2018_Sep_28_1343,59.5852471633,verb_norming_L1-eng_no-translation,990,
leg,SLIP,,,0,0,0,59,,,,,,,2018_Sep_28_1343,59.5852471633,verb_norming_L1-eng_no-translation,990,
leg,WANDER,Arm,arm,0,1,1,78,0,0,0,0,2,7.226,2018_Sep_28_1343,59.5852471633,verb_norming_L1-eng_no-translation,990,
leg,WANDER,Leg,leg,0,1,1,78,0,1,1,1,7,3.362,2018_Sep_28_1343,59.5852471633,verb_norming_L1-eng_no-translation,990,
leg,WANDER,,,0,1,1,78,,,,,,,2018_Sep_28_1343,59.5852471633,verb_norming_L1-eng_no-translation,990,
leg,STEP,Arm,arm,0,2,2,64,0,0,0,0,1,5.166,2018_Sep_28_1343,59.5852471633,verb_norming_L1-eng_no-translation,990,
leg,STEP,Leg,leg,0,2,2,64,0,1,1,1,7,3.378,2018_Sep_28_1343,59.5852471633,verb_norming_L1-eng_no-translation,990,
leg,STEP,,,0,2,2,64,,,,,,,2018_Sep_28_1343,59.5852471633,verb_norming_L1-eng_no-translation,990,
arm,PLUCK,Arm,arm,0,3,3,21,0,0,0,0,1,4.997,2018_Sep_28_1343,59.5852471633,verb_norming_L1-eng_no-translation,990,
arm,PLUCK,Leg,leg,0,3,3,21,0,1,1,1,1,8.763,2018_Sep_28_1343,59.5852471633,verb_norming_L1-eng_no-translation,990,
arm,PLUCK,,,0,3,3,21,,,,,,,2018_Sep_28_1343,59.5852471633,verb_norming_L1-eng_no-translation,990,
arm,SCOOP,Arm,arm,0,4,4,28,0,0,0,0,5,6.39,2018_Sep_28_1343,59.5852471633,verb_norming_L1-eng_no-translation,990,
arm,SCOOP,Leg,leg,0,4,4,28,0,1,1,1,1,3.156,2018_Sep_28_1343,59.5852471633,verb_norming_L1-eng_no-translation,990,
arm,SCOOP,,,0,4,4,28,,,,,,,2018_Sep_28_1343,59.5852471633,verb_norming_L1-eng_no-translation,990,
leg,TIPTOE,Arm,arm,0,5,5,71,0,0,0,0,1,5.036,2018_Sep_28_1343,59.5852471633,verb_norming_L1-eng_no-translation,990,
leg,TIPTOE,Leg,leg,0,5,5,71,0,1,1,1,7,5.153,2018_Sep_28_1343,59.5852471633,verb_norming_L1-eng_no-translation,990,
leg,TIPTOE,,,0,5,5,71,,,,,,,2018_Sep_28_1343,59.5852471633,verb_norming_L1-eng_no-translation,990,
arm,WHIP,Arm,arm,0,6,6,38,0,0,0,0,7,4.964,2018_Sep_28_1343,59.5852471633,verb_norming_L1-eng_no-translation,990,
arm,WHIP,Leg,leg,0,6,6,38,0,1,1,1,1,3.746,2018_Sep_28_1343,59.5852471633,verb_norming_L1-eng_no-translation,990,
arm,WHIP,,,0,6,6,38,,,,,,,2018_Sep_28_1343,59.5852471633,verb_norming_L1-eng_no-translation,990,
leg,STROLL,Arm,arm,0,7,7,68,0,0,0,0,1,7.987,2018_Sep_28_1343,59.5852471633,verb_norming_L1-eng_no-translation,990,
leg,STROLL,Leg,leg,0,7,7,68,0,1,1,1,7,4.786,2018_Sep_28_1343,59.5852471633,verb_norming_L1-eng_no-translation,990,
leg,STROLL,,,0,7,7,68,,,,,,,2018_Sep_28_1343,59.5852471633,verb_norming_L1-eng_no-translation,990,
leg,SNEAK,Arm,arm,0,8,8,60,0,0,0,0,3,5.94,2018_Sep_28_1343,59.5852471633,verb_norming_L1-eng_no-translation,990,
leg,SNEAK,Leg,leg,0,8,8,60,0,1,1,1,5,4.146,2018_Sep_28_1343,59.5852471633,verb_norming_L1-eng_no-translation,990,
leg,SNEAK,,,0,8,8,60,,,,,,,2018_Sep_28_1343,59.5852471633,verb_norming_L1-eng_no-translation,990,
leg,STUMBLE,Arm,arm,0,9,9,70,0,0,0,0,1,7.007,2018_Sep_28_1343,59.5852471633,verb_norming_L1-eng_no-translation,990,
leg,STUMBLE,Leg,leg,0,9,9,70,0,1,1,1,7,3.01,2018_Sep_28_1343,59.5852471633,verb_norming_L1-eng_no-translation,990,
leg,STUMBLE,,,0,9,9,70,,,,,,,2018_Sep_28_1343,59.5852471633,verb_norming_L1-eng_no-translation,990,
arm,CARVE,Arm,arm,0,10,10,1,0,0,0,0,6,6.913,2018_Sep_28_1343,59.5852471633,verb_norming_L1-eng_no-translation,990,
arm,CARVE,Leg,leg,0,10,10,1,0,1,1,1,1,5.427,2018_Sep_28_1343,59.5852471633,verb_norming_L1-eng_no-translation,990,
arm,CARVE,,,0,10,10,1,,,,,,,2018_Sep_28_1343,59.5852471633,verb_norming_L1-eng_no-translation,990,
leg,KNEEL,Arm,arm,0,11,11,48,0,0,0,0,1,5.135,2018_Sep_28_1343,59.5852471633,verb_norming_L1-eng_no-translation,990,
leg,KNEEL,Leg,leg,0,11,11,48,0,1,1,1,7,3.296,2018_Sep_28_1343,59.5852471633,verb_norming_L1-eng_no-translation,990,
leg,KNEEL,,,0,11,11,48,,,,,,,2018_Sep_28_1343,59.5852471633,verb_norming_L1-eng_no-translation,990,
leg,HOP,Arm,arm,0,12,12,44,0,0,0,0,1,10.934,2018_Sep_28_1343,59.5852471633,verb_norming_L1-eng_no-translation,990,
leg,HOP,Leg,leg,0,12,12,44,0,1,1,1,7,2.452,2018_Sep_28_1343,59.5852471633,verb_norming_L1-eng_no-translation,990,
leg,HOP,,,0,12,12,44,,,,,,,2018_Sep_28_1343,59.5852471633,verb_norming_L1-eng_no-translation,990,
arm,HACK,Arm,arm,0,13,13,14,0,0,0,0,5,15.065,2018_Sep_28_1343,59.5852471633,verb_norming_L1-eng_no-translation,990,
arm,HACK,Leg,leg,0,13,13,14,0,1,1,1,1,3.089,2018_Sep_28_1343,59.5852471633,verb_norming_L1-eng_no-translation,990,
arm,HACK,,,0,13,13,14,,,,,,,2018_Sep_28_1343,59.5852471633,verb_norming_L1-eng_no-translation,990,
leg,TRIP,Arm,arm,0,14,14,73,0,0,0,0,2,5.974,2018_Sep_28_1343,59.5852471633,verb_norming_L1-eng_no-translation,990,
leg,TRIP,Leg,leg,0,14,14,73,0,1,1,1,7,3.36,2018_Sep_28_1343,59.5852471633,verb_norming_L1-eng_no-translation,990,
leg,TRIP,,,0,14,14,73,,,,,,,2018_Sep_28_1343,59.5852471633,verb_norming_L1-eng_no-translation,990,
arm,BRUSH,Arm,arm,0,15,15,0,0,0,0,0,6,4.736,2018_Sep_28_1343,59.5852471633,verb_norming_L1-eng_no-translation,990,
arm,BRUSH,Leg,leg,0,15,15,0,0,1,1,1,1,2.553,2018_Sep_28_1343,59.5852471633,verb_norming_L1-eng_no-translation,990,
arm,BRUSH,,,0,15,15,0,,,,,,,2018_Sep_28_1343,59.5852471633,verb_norming_L1-eng_no-translation,990,
arm,FOLD,Arm,arm,0,16,16,9,0,0,0,0,6,9.157,2018_Sep_28_1343,59.5852471633,verb_norming_L1-eng_no-translation,990,
arm,FOLD,Leg,leg,0,16,16,9,0,1,1,1,1,3.829,2018_Sep_28_1343,59.5852471633,verb_norming_L1-eng_no-translation,990,
arm,FOLD,,,0,16,16,9,,,,,,,2018_Sep_28_1343,59.5852471633,verb_norming_L1-eng_no-translation,990,
leg,TROT,Arm,arm,0,17,17,74,0,0,0,0,1,4.04,2018_Sep_28_1343,59.5852471633,verb_norming_L1-eng_no-translation,990,
leg,TROT,Leg,leg,0,17,17,74,0,1,1,1,7,4.166,2018_Sep_28_1343,59.5852471633,verb_norming_L1-eng_no-translation,990,
leg,TROT,,,0,17,17,74,,,,,,,2018_Sep_28_1343,59.5852471633,verb_norming_L1-eng_no-translation,990,
leg,SKATE,Arm,arm,0,18,18,57,0,0,0,0,2,9.963,2018_Sep_28_1343,59.5852471633,verb_norming_L1-eng_no-translation,990,
leg,SKATE,Leg,leg,0,18,18,57,0,1,1,1,7,3.038,2018_Sep_28_1343,59.5852471633,verb_norming_L1-eng_no-translation,990,
leg,SKATE,,,0,18,18,57,,,,,,,2018_Sep_28_1343,59.5852471633,verb_norming_L1-eng_no-translation,990,
leg,MARCH,Arm,arm,0,19,19,51,0,0,0,0,3,5.551,2018_Sep_28_1343,59.5852471633,verb_norming_L1-eng_no-translation,990,
leg,MARCH,Leg,leg,0,19,19,51,0,1,1,1,7,2.016,2018_Sep_28_1343,59.5852471633,verb_norming_L1-eng_no-translation,990,
leg,MARCH,,,0,19,19,51,,,,,,,2018_Sep_28_1343,59.5852471633,verb_norming_L1-eng_no-translation,990,
leg,RUN,Arm,arm,0,20,20,55,0,0,0,0,3,4.467,2018_Sep_28_1343,59.5852471633,verb_norming_L1-eng_no-translation,990,
leg,RUN,Leg,leg,0,20,20,55,0,1,1,1,7,2.308,2018_Sep_28_1343,59.5852471633,verb_norming_L1-eng_no-translation,990,
leg,RUN,,,0,20,20,55,,,,,,,2018_Sep_28_1343,59.5852471633,verb_norming_L1-eng_no-translation,990,
leg,WOBBLE,Arm,arm,0,21,21,79,0,0,0,0,5,5.052,2018_Sep_28_1343,59.5852471633,verb_norming_L1-eng_no-translation,990,
leg,WOBBLE,Leg,leg,0,21,21,79,0,1,1,1,5,2.806,2018_Sep_28_1343,59.5852471633,verb_norming_L1-eng_no-translation,990,
leg,WOBBLE,,,0,21,21,79,,,,,,,2018_Sep_28_1343,59.5852471633,verb_norming_L1-eng_no-translation,990,
arm,PUNCH,Arm,arm,0,22,22,25,0,0,0,0,7,2.401,2018_Sep_28_1343,59.5852471633,verb_norming_L1-eng_no-translation,990,
arm,PUNCH,Leg,leg,0,22,22,25,0,1,1,1,2,3.073,2018_Sep_28_1343,59.5852471633,verb_norming_L1-eng_no-translation,990,
arm,PUNCH,,,0,22,22,25,,,,,,,2018_Sep_28_1343,59.5852471633,verb_norming_L1-eng_no-translation,990,
leg,WADE,Arm,arm,0,23,23,76,0,0,0,0,7,3.258,2018_Sep_28_1343,59.5852471633,verb_norming_L1-eng_no-translation,990,
leg,WADE,Leg,leg,0,23,23,76,0,1,1,1,5,2.403,2018_Sep_28_1343,59.5852471633,verb_norming_L1-eng_no-translation,990,
leg,WADE,,,0,23,23,76,,,,,,,2018_Sep_28_1343,59.5852471633,verb_norming_L1-eng_no-translation,990,
arm,CHOP,Arm,arm,0,24,24,3,0,0,0,0,7,2.654,2018_Sep_28_1343,59.5852471633,verb_norming_L1-eng_no-translation,990,
arm,CHOP,Leg,leg,0,24,24,3,0,1,1,1,1,3.596,2018_Sep_28_1343,59.5852471633,verb_norming_L1-eng_no-translation,990,
arm,CHOP,,,0,24,24,3,,,,,,,2018_Sep_28_1343,59.5852471633,verb_norming_L1-eng_no-translation,990,
leg,HIKE,Arm,arm,0,25,25,43,0,0,0,0,2,6.004,2018_Sep_28_1343,59.5852471633,verb_norming_L1-eng_no-translation,990,
leg,HIKE,Leg,leg,0,25,25,43,0,1,1,1,7,5.454,2018_Sep_28_1343,59.5852471633,verb_norming_L1-eng_no-translation,990,
leg,HIKE,,,0,25,25,43,,,,,,,2018_Sep_28_1343,59.5852471633,verb_norming_L1-eng_no-translation,990,
leg,TRAMPLE,Arm,arm,0,26,26,72,0,0,0,0,1,4.527,2018_Sep_28_1343,59.5852471633,verb_norming_L1-eng_no-translation,990,
leg,TRAMPLE,Leg,leg,0,26,26,72,0,1,1,1,7,3.057,2018_Sep_28_1343,59.5852471633,verb_norming_L1-eng_no-translation,990,
leg,TRAMPLE,,,0,26,26,72,,,,,,,2018_Sep_28_1343,59.5852471633,verb_norming_L1-eng_no-translation,990,
leg,STOMP,Arm,arm,0,27,27,65,0,0,0,0,1,2.856,2018_Sep_28_1343,59.5852471633,verb_norming_L1-eng_no-translation,990,
leg,STOMP,Leg,leg,0,27,27,65,0,1,1,1,7,2.506,2018_Sep_28_1343,59.5852471633,verb_norming_L1-eng_no-translation,990,
leg,STOMP,,,0,27,27,65,,,,,,,2018_Sep_28_1343,59.5852471633,verb_norming_L1-eng_no-translation,990,
arm,CUT,Arm,arm,0,28,28,7,0,0,0,0,5,8.388,2018_Sep_28_1343,59.5852471633,verb_norming_L1-eng_no-translation,990,
arm,CUT,Leg,leg,0,28,28,7,0,1,1,1,1,2.484,2018_Sep_28_1343,59.5852471633,verb_norming_L1-eng_no-translation,990,
arm,CUT,,,0,28,28,7,,,,,,,2018_Sep_28_1343,59.5852471633,verb_norming_L1-eng_no-translation,990,
arm,PULL,Arm,arm,0,29,29,24,0,0,0,0,6,4.248,2018_Sep_28_1343,59.5852471633,verb_norming_L1-eng_no-translation,990,
arm,PULL,Leg,leg,0,29,29,24,0,1,1,1,1,5.695,2018_Sep_28_1343,59.5852471633,verb_norming_L1-eng_no-translation,990,
arm,PULL,,,0,29,29,24,,,,,,,2018_Sep_28_1343,59.5852471633,verb_norming_L1-eng_no-translation,990,
leg,KICK,Arm,arm,0,30,30,47,0,0,0,0,1,3.981,2018_Sep_28_1343,59.5852471633,verb_norming_L1-eng_no-translation,990,
leg,KICK,Leg,leg,0,30,30,47,0,1,1,1,7,2.558,2018_Sep_28_1343,59.5852471633,verb_norming_L1-eng_no-translation,990,
leg,KICK,,,0,30,30,47,,,,,,,2018_Sep_28_1343,59.5852471633,verb_norming_L1-eng_no-translation,990,
arm,WASH,Arm,arm,0,31,31,37,0,0,0,0,6,4.919,2018_Sep_28_1343,59.5852471633,verb_norming_L1-eng_no-translation,990,
arm,WASH,Leg,leg,0,31,31,37,0,1,1,1,1,4.37,2018_Sep_28_1343,59.5852471633,verb_norming_L1-eng_no-translation,990,
arm,WASH,,,0,31,31,37,,,,,,,2018_Sep_28_1343,59.5852471633,verb_norming_L1-eng_no-translation,990,
arm,PAT,Arm,arm,0,32,32,18,0,0,0,0,7,3.596,2018_Sep_28_1343,59.5852471633,verb_norming_L1-eng_no-translation,990,
arm,PAT,Leg,leg,0,32,32,18,0,1,1,1,1,2.555,2018_Sep_28_1343,59.5852471633,verb_norming_L1-eng_no-translation,990,
arm,PAT,,,0,32,32,18,,,,,,,2018_Sep_28_1343,59.5852471633,verb_norming_L1-eng_no-translation,990,
arm,STAB,Arm,arm,0,33,33,34,0,0,0,0,6,4.458,2018_Sep_28_1343,59.5852471633,verb_norming_L1-eng_no-translation,990,
arm,STAB,Leg,leg,0,33,33,34,0,1,1,1,1,2.703,2018_Sep_28_1343,59.5852471633,verb_norming_L1-eng_no-translation,990,
arm,STAB,,,0,33,33,34,,,,,,,2018_Sep_28_1343,59.5852471633,verb_norming_L1-eng_no-translation,990,
leg,STRUT,Arm,arm,0,34,34,69,0,0,0,0,2,6.425,2018_Sep_28_1343,59.5852471633,verb_norming_L1-eng_no-translation,990,
leg,STRUT,Leg,leg,0,34,34,69,0,1,1,1,6,4.131,2018_Sep_28_1343,59.5852471633,verb_norming_L1-eng_no-translation,990,
leg,STRUT,,,0,34,34,69,,,,,,,2018_Sep_28_1343,59.5852471633,verb_norming_L1-eng_no-translation,990,
leg,TRUDGE,Arm,arm,0,35,35,75,0,0,0,0,2,6.257,2018_Sep_28_1343,59.5852471633,verb_norming_L1-eng_no-translation,990,
leg,TRUDGE,Leg,leg,0,35,35,75,0,1,1,1,7,1.811,2018_Sep_28_1343,59.5852471633,verb_norming_L1-eng_no-translation,990,
leg,TRUDGE,,,0,35,35,75,,,,,,,2018_Sep_28_1343,59.5852471633,verb_norming_L1-eng_no-translation,990,
arm,STIR,Arm,arm,0,36,36,35,0,0,0,0,7,4.399,2018_Sep_28_1343,59.5852471633,verb_norming_L1-eng_no-translation,990,
arm,STIR,Leg,leg,0,36,36,35,0,1,1,1,1,3.444,2018_Sep_28_1343,59.5852471633,verb_norming_L1-eng_no-translation,990,
arm,STIR,,,0,36,36,35,,,,,,,2018_Sep_28_1343,59.5852471633,verb_norming_L1-eng_no-translation,990,
arm,CLEAN,Arm,arm,0,37,37,5,0,0,0,0,5,6.425,2018_Sep_28_1343,59.5852471633,verb_norming_L1-eng_no-translation,990,
arm,CLEAN,Leg,leg,0,37,37,5,0,1,1,1,1,2.167,2018_Sep_28_1343,59.5852471633,verb_norming_L1-eng_no-translation,990,
arm,CLEAN,,,0,37,37,5,,,,,,,2018_Sep_28_1343,59.5852471633,verb_norming_L1-eng_no-translation,990,
leg,WALK,Arm,arm,0,38,38,77,0,0,0,0,1,5.722,2018_Sep_28_1343,59.5852471633,verb_norming_L1-eng_no-translation,990,
leg,WALK,Leg,leg,0,38,38,77,0,1,1,1,7,2.738,2018_Sep_28_1343,59.5852471633,verb_norming_L1-eng_no-translation,990,
leg,WALK,,,0,38,38,77,,,,,,,2018_Sep_28_1343,59.5852471633,verb_norming_L1-eng_no-translation,990,
arm,DIG,Arm,arm,0,39,39,8,0,0,0,0,4,5.398,2018_Sep_28_1343,59.5852471633,verb_norming_L1-eng_no-translation,990,
arm,DIG,Leg,leg,0,39,39,8,0,1,1,1,1,4.281,2018_Sep_28_1343,59.5852471633,verb_norming_L1-eng_no-translation,990,
arm,DIG,,,0,39,39,8,,,,,,,2018_Sep_28_1343,59.5852471633,verb_norming_L1-eng_no-translation,990,
arm,HUG,Arm,arm,0,40,40,15,0,0,0,0,7,2.513,2018_Sep_28_1343,59.5852471633,verb_norming_L1-eng_no-translation,990,
arm,HUG,Leg,leg,0,40,40,15,0,1,1,1,1,3.225,2018_Sep_28_1343,59.5852471633,verb_norming_L1-eng_no-translation,990,
arm,HUG,,,0,40,40,15,,,,,,,2018_Sep_28_1343,59.5852471633,verb_norming_L1-eng_no-translation,990,
leg,STRAY,Arm,arm,0,41,41,66,0,0,0,0,1,3.389,2018_Sep_28_1343,59.5852471633,verb_norming_L1-eng_no-translation,990,
leg,STRAY,Leg,leg,0,41,41,66,0,1,1,1,5,4.468,2018_Sep_28_1343,59.5852471633,verb_norming_L1-eng_no-translation,990,
leg,STRAY,,,0,41,41,66,,,,,,,2018_Sep_28_1343,59.5852471633,verb_norming_L1-eng_no-translation,990,
arm,SNATCH,Arm,arm,0,42,42,33,0,0,0,0,6,2.749,2018_Sep_28_1343,59.5852471633,verb_norming_L1-eng_no-translation,990,
arm,SNATCH,Leg,leg,0,42,42,33,0,1,1,1,1,2.488,2018_Sep_28_1343,59.5852471633,verb_norming_L1-eng_no-translation,990,
arm,SNATCH,,,0,42,42,33,,,,,,,2018_Sep_28_1343,59.5852471633,verb_norming_L1-eng_no-translation,990,
arm,CLAP,Arm,arm,0,43,43,4,0,0,0,0,7,2.264,2018_Sep_28_1343,59.5852471633,verb_norming_L1-eng_no-translation,990,
arm,CLAP,Leg,leg,0,43,43,4,0,1,1,1,1,2.356,2018_Sep_28_1343,59.5852471633,verb_norming_L1-eng_no-translation,990,
arm,CLAP,,,0,43,43,4,,,,,,,2018_Sep_28_1343,59.5852471633,verb_norming_L1-eng_no-translation,990,
leg,JOG,Arm,arm,0,44,44,45,0,0,0,0,3,4.679,2018_Sep_28_1343,59.5852471633,verb_norming_L1-eng_no-translation,990,
leg,JOG,Leg,leg,0,44,44,45,0,1,1,1,7,2.472,2018_Sep_28_1343,59.5852471633,verb_norming_L1-eng_no-translation,990,
leg,JOG,,,0,44,44,45,,,,,,,2018_Sep_28_1343,59.5852471633,verb_norming_L1-eng_no-translation,990,
leg,PACE,Arm,arm,0,45,45,52,0,0,0,0,1,6.424,2018_Sep_28_1343,59.5852471633,verb_norming_L1-eng_no-translation,990,
leg,PACE,Leg,leg,0,45,45,52,0,1,1,1,5,2.334,2018_Sep_28_1343,59.5852471633,verb_norming_L1-eng_no-translation,990,
leg,PACE,,,0,45,45,52,,,,,,,2018_Sep_28_1343,59.5852471633,verb_norming_L1-eng_no-translation,990,
arm,THROW,Arm,arm,0,46,46,36,0,0,0,0,7,2.967,2018_Sep_28_1343,59.5852471633,verb_norming_L1-eng_no-translation,990,
arm,THROW,Leg,leg,0,46,46,36,0,1,1,1,1,1.616,2018_Sep_28_1343,59.5852471633,verb_norming_L1-eng_no-translation,990,
arm,THROW,,,0,46,46,36,,,,,,,2018_Sep_28_1343,59.5852471633,verb_norming_L1-eng_no-translation,990,
leg,SQUAT,Arm,arm,0,47,47,62,0,0,0,0,1,6.387,2018_Sep_28_1343,59.5852471633,verb_norming_L1-eng_no-translation,990,
leg,SQUAT,Leg,leg,0,47,47,62,0,1,1,1,5,5.166,2018_Sep_28_1343,59.5852471633,verb_norming_L1-eng_no-translation,990,
leg,SQUAT,,,0,47,47,62,,,,,,,2018_Sep_28_1343,59.5852471633,verb_norming_L1-eng_no-translation,990,
arm,PUSH,Arm,arm,0,48,48,26,0,0,0,0,6,4.55,2018_Sep_28_1343,59.5852471633,verb_norming_L1-eng_no-translation,990,
arm,PUSH,Leg,leg,0,48,48,26,0,1,1,1,1,3.005,2018_Sep_28_1343,59.5852471633,verb_norming_L1-eng_no-translation,990,
arm,PUSH,,,0,48,48,26,,,,,,,2018_Sep_28_1343,59.5852471633,verb_norming_L1-eng_no-translation,990,
arm,GRAB,Arm,arm,0,49,49,11,0,0,0,0,7,2.229,2018_Sep_28_1343,59.5852471633,verb_norming_L1-eng_no-translation,990,
arm,GRAB,Leg,leg,0,49,49,11,0,1,1,1,1,5.051,2018_Sep_28_1343,59.5852471633,verb_norming_L1-eng_no-translation,990,
arm,GRAB,,,0,49,49,11,,,,,,,2018_Sep_28_1343,59.5852471633,verb_norming_L1-eng_no-translation,990,
arm,POKE,Arm,arm,0,50,50,22,0,0,0,0,7,3.708,2018_Sep_28_1343,59.5852471633,verb_norming_L1-eng_no-translation,990,
arm,POKE,Leg,leg,0,50,50,22,0,1,1,1,5,5.252,2018_Sep_28_1343,59.5852471633,verb_norming_L1-eng_no-translation,990,
arm,POKE,,,0,50,50,22,,,,,,,2018_Sep_28_1343,59.5852471633,verb_norming_L1-eng_no-translation,990,
leg,SPRINT,Arm,arm,0,51,51,61,0,0,0,0,2,8.484,2018_Sep_28_1343,59.5852471633,verb_norming_L1-eng_no-translation,990,
leg,SPRINT,Leg,leg,0,51,51,61,0,1,1,1,7,2.166,2018_Sep_28_1343,59.5852471633,verb_norming_L1-eng_no-translation,990,
leg,SPRINT,,,0,51,51,61,,,,,,,2018_Sep_28_1343,59.5852471633,verb_norming_L1-eng_no-translation,990,
arm,CLICK,Arm,arm,0,52,52,6,0,0,0,0,7,6.224,2018_Sep_28_1343,59.5852471633,verb_norming_L1-eng_no-translation,990,
arm,CLICK,Leg,leg,0,52,52,6,0,1,1,1,1,0.962,2018_Sep_28_1343,59.5852471633,verb_norming_L1-eng_no-translation,990,
arm,CLICK,,,0,52,52,6,,,,,,,2018_Sep_28_1343,59.5852471633,verb_norming_L1-eng_no-translation,990,
arm,SCRUB,Arm,arm,0,53,53,30,0,0,0,0,6,3.942,2018_Sep_28_1343,59.5852471633,verb_norming_L1-eng_no-translation,990,
arm,SCRUB,Leg,leg,0,53,53,30,0,1,1,1,1,2.635,2018_Sep_28_1343,59.5852471633,verb_norming_L1-eng_no-translation,990,
arm,SCRUB,,,0,53,53,30,,,,,,,2018_Sep_28_1343,59.5852471633,verb_norming_L1-eng_no-translation,990,
leg,PEDAL,Arm,arm,0,54,54,53,0,0,0,0,1,2.903,2018_Sep_28_1343,59.5852471633,verb_norming_L1-eng_no-translation,990,
leg,PEDAL,Leg,leg,0,54,54,53,0,1,1,1,7,1.246,2018_Sep_28_1343,59.5852471633,verb_norming_L1-eng_no-translation,990,
leg,PEDAL,,,0,54,54,53,,,,,,,2018_Sep_28_1343,59.5852471633,verb_norming_L1-eng_no-translation,990,
arm,PINCH,Arm,arm,0,55,55,20,0,0,0,0,5,6.04,2018_Sep_28_1343,59.5852471633,verb_norming_L1-eng_no-translation,990,
arm,PINCH,Leg,leg,0,55,55,20,0,1,1,1,1,4.1,2018_Sep_28_1343,59.5852471633,verb_norming_L1-eng_no-translation,990,
arm,PINCH,,,0,55,55,20,,,,,,,2018_Sep_28_1343,59.5852471633,verb_norming_L1-eng_no-translation,990,
arm,RUB,Arm,arm,0,56,56,27,0,0,0,0,7,4.499,2018_Sep_28_1343,59.5852471633,verb_norming_L1-eng_no-translation,990,
arm,RUB,Leg,leg,0,56,56,27,0,1,1,1,1,2.241,2018_Sep_28_1343,59.5852471633,verb_norming_L1-eng_no-translation,990,
arm,RUB,,,0,56,56,27,,,,,,,2018_Sep_28_1343,59.5852471633,verb_norming_L1-eng_no-translation,990,
arm,POLISH,Arm,arm,0,57,57,23,0,0,0,0,5,7.111,2018_Sep_28_1343,59.5852471633,verb_norming_L1-eng_no-translation,990,
arm,POLISH,Leg,leg,0,57,57,23,0,1,1,1,1,1.651,2018_Sep_28_1343,59.5852471633,verb_norming_L1-eng_no-translation,990,
arm,POLISH,,,0,57,57,23,,,,,,,2018_Sep_28_1343,59.5852471633,verb_norming_L1-eng_no-translation,990,
leg,RUSH,Arm,arm,0,58,58,56,0,0,0,0,1,5.636,2018_Sep_28_1343,59.5852471633,verb_norming_L1-eng_no-translation,990,
leg,RUSH,Leg,leg,0,58,58,56,0,1,1,1,4,4.989,2018_Sep_28_1343,59.5852471633,verb_norming_L1-eng_no-translation,990,
leg,RUSH,,,0,58,58,56,,,,,,,2018_Sep_28_1343,59.5852471633,verb_norming_L1-eng_no-translation,990,
arm,SCRATCH,Arm,arm,0,59,59,29,0,0,0,0,7,2.097,2018_Sep_28_1343,59.5852471633,verb_norming_L1-eng_no-translation,990,
arm,SCRATCH,Leg,leg,0,59,59,29,0,1,1,1,1,3.662,2018_Sep_28_1343,59.5852471633,verb_norming_L1-eng_no-translation,990,
arm,SCRATCH,,,0,59,59,29,,,,,,,2018_Sep_28_1343,59.5852471633,verb_norming_L1-eng_no-translation,990,
arm,WIPE,Arm,arm,0,60,60,39,0,0,0,0,6,6.447,2018_Sep_28_1343,59.5852471633,verb_norming_L1-eng_no-translation,990,
arm,WIPE,Leg,leg,0,60,60,39,0,1,1,1,1,3.915,2018_Sep_28_1343,59.5852471633,verb_norming_L1-eng_no-translation,990,
arm,WIPE,,,0,60,60,39,,,,,,,2018_Sep_28_1343,59.5852471633,verb_norming_L1-eng_no-translation,990,
arm,CATCH,Arm,arm,0,61,61,2,0,0,0,0,7,2.689,2018_Sep_28_1343,59.5852471633,verb_norming_L1-eng_no-translation,990,
arm,CATCH,Leg,leg,0,61,61,2,0,1,1,1,1,2.568,2018_Sep_28_1343,59.5852471633,verb_norming_L1-eng_no-translation,990,
arm,CATCH,,,0,61,61,2,,,,,,,2018_Sep_28_1343,59.5852471633,verb_norming_L1-eng_no-translation,990,
arm,SIGN,Arm,arm,0,62,62,31,0,0,0,0,7,2.966,2018_Sep_28_1343,59.5852471633,verb_norming_L1-eng_no-translation,990,
arm,SIGN,Leg,leg,0,62,62,31,0,1,1,1,1,3.627,2018_Sep_28_1343,59.5852471633,verb_norming_L1-eng_no-translation,990,
arm,SIGN,,,0,62,62,31,,,,,,,2018_Sep_28_1343,59.5852471633,verb_norming_L1-eng_no-translation,990,
leg,STRIDE,Arm,arm,0,63,63,67,0,0,0,0,2,3.173,2018_Sep_28_1343,59.5852471633,verb_norming_L1-eng_no-translation,990,
leg,STRIDE,Leg,leg,0,63,63,67,0,1,1,1,7,3.477,2018_Sep_28_1343,59.5852471633,verb_norming_L1-eng_no-translation,990,
leg,STRIDE,,,0,63,63,67,,,,,,,2018_Sep_28_1343,59.5852471633,verb_norming_L1-eng_no-translation,990,
leg,ROAM,Arm,arm,0,64,64,54,0,0,0,0,1,3.257,2018_Sep_28_1343,59.5852471633,verb_norming_L1-eng_no-translation,990,
leg,ROAM,Leg,leg,0,64,64,54,0,1,1,1,4,3.962,2018_Sep_28_1343,59.5852471633,verb_norming_L1-eng_no-translation,990,
leg,ROAM,,,0,64,64,54,,,,,,,2018_Sep_28_1343,59.5852471633,verb_norming_L1-eng_no-translation,990,
arm,GESTURE,Arm,arm,0,65,65,10,0,0,0,0,7,1.946,2018_Sep_28_1343,59.5852471633,verb_norming_L1-eng_no-translation,990,
arm,GESTURE,Leg,leg,0,65,65,10,0,1,1,1,3,2.099,2018_Sep_28_1343,59.5852471633,verb_norming_L1-eng_no-translation,990,
arm,GESTURE,,,0,65,65,10,,,,,,,2018_Sep_28_1343,59.5852471633,verb_norming_L1-eng_no-translation,990,
arm,PEEL,Arm,arm,0,66,66,19,0,0,0,0,5,3.523,2018_Sep_28_1343,59.5852471633,verb_norming_L1-eng_no-translation,990,
arm,PEEL,Leg,leg,0,66,66,19,0,1,1,1,1,1.882,2018_Sep_28_1343,59.5852471633,verb_norming_L1-eng_no-translation,990,
arm,PEEL,,,0,66,66,19,,,,,,,2018_Sep_28_1343,59.5852471633,verb_norming_L1-eng_no-translation,990,
leg,BOUNCE,Arm,arm,0,67,67,40,0,0,0,0,2,3.688,2018_Sep_28_1343,59.5852471633,verb_norming_L1-eng_no-translation,990,
leg,BOUNCE,Leg,leg,0,67,67,40,0,1,1,1,6,2.088,2018_Sep_28_1343,59.5852471633,verb_norming_L1-eng_no-translation,990,
leg,BOUNCE,,,0,67,67,40,,,,,,,2018_Sep_28_1343,59.5852471633,verb_norming_L1-eng_no-translation,990,
leg,FLEE,Arm,arm,0,68,68,41,0,0,0,0,1,3.241,2018_Sep_28_1343,59.5852471633,verb_norming_L1-eng_no-translation,990,
leg,FLEE,Leg,leg,0,68,68,41,0,1,1,1,6,5.153,2018_Sep_28_1343,59.5852471633,verb_norming_L1-eng_no-translation,990,
leg,FLEE,,,0,68,68,41,,,,,,,2018_Sep_28_1343,59.5852471633,verb_norming_L1-eng_no-translation,990,
leg,SKIP,Arm,arm,0,69,69,58,0,0,0,0,2,3.998,2018_Sep_28_1343,59.5852471633,verb_norming_L1-eng_no-translation,990,
leg,SKIP,Leg,leg,0,69,69,58,0,1,1,1,7,2.14,2018_Sep_28_1343,59.5852471633,verb_norming_L1-eng_no-translation,990,
leg,SKIP,,,0,69,69,58,,,,,,,2018_Sep_28_1343,59.5852471633,verb_norming_L1-eng_no-translation,990,
leg,JUMP,Arm,arm,0,70,70,46,0,0,0,0,3,3.075,2018_Sep_28_1343,59.5852471633,verb_norming_L1-eng_no-translation,990,
leg,JUMP,Leg,leg,0,70,70,46,0,1,1,1,7,2.238,2018_Sep_28_1343,59.5852471633,verb_norming_L1-eng_no-translation,990,
leg,JUMP,,,0,70,70,46,,,,,,,2018_Sep_28_1343,59.5852471633,verb_norming_L1-eng_no-translation,990,
leg,GLIDE,Arm,arm,0,71,71,42,0,0,0,0,5,5.953,2018_Sep_28_1343,59.5852471633,verb_norming_L1-eng_no-translation,990,
leg,GLIDE,Leg,leg,0,71,71,42,0,1,1,1,3,4.143,2018_Sep_28_1343,59.5852471633,verb_norming_L1-eng_no-translation,990,
leg,GLIDE,,,0,71,71,42,,,,,,,2018_Sep_28_1343,59.5852471633,verb_norming_L1-eng_no-translation,990,
arm,KNOCK,Arm,arm,0,72,72,16,0,0,0,0,7,3.186,2018_Sep_28_1343,59.5852471633,verb_norming_L1-eng_no-translation,990,
arm,KNOCK,Leg,leg,0,72,72,16,0,1,1,1,1,1.784,2018_Sep_28_1343,59.5852471633,verb_norming_L1-eng_no-translation,990,
arm,KNOCK,,,0,72,72,16,,,,,,,2018_Sep_28_1343,59.5852471633,verb_norming_L1-eng_no-translation,990,
leg,STAND,Arm,arm,0,73,73,63,0,0,0,0,1,4.241,2018_Sep_28_1343,59.5852471633,verb_norming_L1-eng_no-translation,990,
leg,STAND,Leg,leg,0,73,73,63,0,1,1,1,7,3.592,2018_Sep_28_1343,59.5852471633,verb_norming_L1-eng_no-translation,990,
leg,STAND,,,0,73,73,63,,,,,,,2018_Sep_28_1343,59.5852471633,verb_norming_L1-eng_no-translation,990,
arm,NIP,Arm,arm,0,74,74,17,0,0,0,0,1,8.307,2018_Sep_28_1343,59.5852471633,verb_norming_L1-eng_no-translation,990,
arm,NIP,Leg,leg,0,74,74,17,0,1,1,1,1,0.876,2018_Sep_28_1343,59.5852471633,verb_norming_L1-eng_no-translation,990,
arm,NIP,,,0,74,74,17,,,,,,,2018_Sep_28_1343,59.5852471633,verb_norming_L1-eng_no-translation,990,
leg,LIMP,Arm,arm,0,75,75,50,0,0,0,0,1,3.759,2018_Sep_28_1343,59.5852471633,verb_norming_L1-eng_no-translation,990,
leg,LIMP,Leg,leg,0,75,75,50,0,1,1,1,6,2.707,2018_Sep_28_1343,59.5852471633,verb_norming_L1-eng_no-translation,990,
leg,LIMP,,,0,75,75,50,,,,,,,2018_Sep_28_1343,59.5852471633,verb_norming_L1-eng_no-translation,990,
arm,GRASP,Arm,arm,0,76,76,12,0,0,0,0,7,2.194,2018_Sep_28_1343,59.5852471633,verb_norming_L1-eng_no-translation,990,
arm,GRASP,Leg,leg,0,76,76,12,0,1,1,1,1,1.395,2018_Sep_28_1343,59.5852471633,verb_norming_L1-eng_no-translation,990,
arm,GRASP,,,0,76,76,12,,,,,,,2018_Sep_28_1343,59.5852471633,verb_norming_L1-eng_no-translation,990,
arm,GRIP,Arm,arm,0,77,77,13,0,0,0,0,6,4.08,2018_Sep_28_1343,59.5852471633,verb_norming_L1-eng_no-translation,990,
arm,GRIP,Leg,leg,0,77,77,13,0,1,1,1,1,3.424,2018_Sep_28_1343,59.5852471633,verb_norming_L1-eng_no-translation,990,
arm,GRIP,,,0,77,77,13,,,,,,,2018_Sep_28_1343,59.5852471633,verb_norming_L1-eng_no-translation,990,
leg,LEAP,Arm,arm,0,78,78,49,0,0,0,0,2,2.749,2018_Sep_28_1343,59.5852471633,verb_norming_L1-eng_no-translation,990,
leg,LEAP,Leg,leg,0,78,78,49,0,1,1,1,7,2.136,2018_Sep_28_1343,59.5852471633,verb_norming_L1-eng_no-translation,990,
leg,LEAP,,,0,78,78,49,,,,,,,2018_Sep_28_1343,59.5852471633,verb_norming_L1-eng_no-translation,990,
arm,SLAP,Arm,arm,0,79,79,32,0,0,0,0,7,5.505,2018_Sep_28_1343,59.5852471633,verb_norming_L1-eng_no-translation,990,
arm,SLAP,Leg,leg,0,79,79,32,0,1,1,1,1,1.967,2018_Sep_28_1343,59.5852471633,verb_norming_L1-eng_no-translation,990,
arm,SLAP,,,0,79,79,32,,,,,,,2018_Sep_28_1343,59.5852471633,verb_norming_L1-eng_no-translation,990,
