type,word1,word2,word3,word4,BlockType,Effector,BlockLabel,BlockInstructions,practice_block.thisRepN,practice_block.thisTrialN,practice_block.thisN,practice_block.thisIndex,word_presentation_practice.thisRepN,word_presentation_practice.thisTrialN,word_presentation_practice.thisN,word_presentation_practice.thisIndex,block.thisRepN,block.thisTrialN,block.thisN,block.thisIndex,training_block.thisRepN,training_block.thisTrialN,training_block.thisN,training_block.thisIndex,word_presentation_training.thisRepN,word_presentation_training.thisTrialN,word_presentation_training.thisN,word_presentation_training.thisIndex,word_presentation.thisRepN,word_presentation.thisTrialN,word_presentation.thisN,word_presentation.thisIndex,key_resp_2.keys,key_resp_2.rt,key_resp_8.keys,key_resp_8.rt,key_resp_15.keys,key_resp_15.rt,key_resp_6.keys,key_resp_6.rt,key_resp_7.keys,key_resp_7.rt,date,frameRate,expName,session,participant,
training,stay,chew,save,like,,,,,0,0,0,0,0,0,0,3,,,,,,,,,,,,,,,,,space,29.5660275226,,,,,,,,,2018_Sep_28_1240,59.6774132701,sheb_replication_1810,1,990,
training,sigh,stare,blush,bless,,,,,0,0,0,0,0,1,1,1,,,,,,,,,,,,,,,,,space,6.75934248857,,,,,,,,,2018_Sep_28_1240,59.6774132701,sheb_replication_1810,1,990,
training,look,soothe,yell,wait,,,,,0,0,0,0,0,2,2,0,,,,,,,,,,,,,,,,,space,7.6299469327,,,,,,,,,2018_Sep_28_1240,59.6774132701,sheb_replication_1810,1,990,
training,print,lick,thank,ruin,,,,,0,0,0,0,0,3,3,2,,,,,,,,,,,,,,,,,space,5.03253577628,,,,,,,,,2018_Sep_28_1240,59.6774132701,sheb_replication_1810,1,990,
training,chew,ruin,blush,stare,HANDS,hands,with hand drumming,perform a rhythmic exercise with your hands,0,0,0,0,,,,,0,0,0,0,0,0,0,0,0,0,0,1,,,,,space,7.49639520857,s,42.5993689294,return,968.31177228,space,7.02843294796,,,2018_Sep_28_1240,59.6774132701,sheb_replication_1810,1,990,
training,stay,save,yell,wait,HANDS,hands,with hand drumming,perform a rhythmic exercise with your hands,0,0,0,0,,,,,0,0,0,0,0,0,0,0,0,1,1,0,,,,,space,14.1386834204,,,,,,,,,2018_Sep_28_1240,59.6774132701,sheb_replication_1810,1,990,
training,print,soothe,sigh,thank,HANDS,hands,with hand drumming,perform a rhythmic exercise with your hands,0,0,0,0,,,,,0,0,0,0,0,0,0,0,0,2,2,3,,,,,space,16.7703123389,,,,,,,,,2018_Sep_28_1240,59.6774132701,sheb_replication_1810,1,990,
training,lick,bless,like,look,HANDS,hands,with hand drumming,perform a rhythmic exercise with your hands,0,0,0,0,,,,,0,0,0,0,0,0,0,0,0,3,3,2,,,,,space,9.02342215551,,,,,,,,,2018_Sep_28_1240,59.6774132701,sheb_replication_1810,1,990,
,,,,,HANDS,hands,with hand drumming,perform a rhythmic exercise with your hands,0,0,0,0,,,,,0,0,0,0,0,0,0,0,,,,,,,,,,,p,3.23788264978,,,,,,,2018_Sep_28_1240,59.6774132701,sheb_replication_1810,1,990,
training,stay,save,yell,wait,HANDS,hands,with hand drumming,perform a rhythmic exercise with your hands,0,0,0,0,,,,,0,0,0,0,1,0,1,0,0,0,0,0,,,,,space,5.60231447879,,,,,,,,,2018_Sep_28_1240,59.6774132701,sheb_replication_1810,1,990,
training,print,soothe,sigh,thank,HANDS,hands,with hand drumming,perform a rhythmic exercise with your hands,0,0,0,0,,,,,0,0,0,0,1,0,1,0,0,1,1,3,,,,,space,6.10529697104,,,,,,,,,2018_Sep_28_1240,59.6774132701,sheb_replication_1810,1,990,
training,lick,bless,like,look,HANDS,hands,with hand drumming,perform a rhythmic exercise with your hands,0,0,0,0,,,,,0,0,0,0,1,0,1,0,0,2,2,2,,,,,space,4.17680131904,,,,,,,,,2018_Sep_28_1240,59.6774132701,sheb_replication_1810,1,990,
training,chew,ruin,blush,stare,HANDS,hands,with hand drumming,perform a rhythmic exercise with your hands,0,0,0,0,,,,,0,0,0,0,1,0,1,0,0,3,3,1,,,,,space,4.99825519165,,,,,,,,,2018_Sep_28_1240,59.6774132701,sheb_replication_1810,1,990,
arm,rub,pat,poke,clean,HANDS,hands,with hand drumming,perform a rhythmic exercise with your hands,0,0,0,0,,,,,0,0,0,0,1,0,1,0,,,,,0,0,0,0,space,5.60084703807,s,29.4845331986,,,,,space,3.67349325566,2018_Sep_28_1240,59.6774132701,sheb_replication_1810,1,990,
leg,trudge,glide,wander,skate,HANDS,hands,with hand drumming,perform a rhythmic exercise with your hands,0,0,0,0,,,,,0,0,0,0,1,0,1,0,,,,,0,1,1,1,space,10.7339352975,,,,,,,,,2018_Sep_28_1240,59.6774132701,sheb_replication_1810,1,990,
arm,wipe,pull,snatch,scoop,HANDS,hands,with hand drumming,perform a rhythmic exercise with your hands,0,0,0,0,,,,,0,0,0,0,1,0,1,0,,,,,0,2,2,2,space,15.0435530398,,,,,,,,,2018_Sep_28_1240,59.6774132701,sheb_replication_1810,1,990,
arm,slap,grip,hug,punch,HANDS,hands,with hand drumming,perform a rhythmic exercise with your hands,0,0,0,0,,,,,0,0,0,0,1,0,1,0,,,,,0,3,3,3,space,8.58595611033,,,,,,,,,2018_Sep_28_1240,59.6774132701,sheb_replication_1810,1,990,
leg,sneak,stroll,hop,step,HANDS,hands,with hand drumming,perform a rhythmic exercise with your hands,0,0,0,0,,,,,0,0,0,0,1,0,1,0,,,,,0,4,4,4,space,23.5975913268,,,,,,,,,2018_Sep_28_1240,59.6774132701,sheb_replication_1810,1,990,
arm,grab,scrub,dig,click,HANDS,hands,with hand drumming,perform a rhythmic exercise with your hands,0,0,0,0,,,,,0,0,0,0,1,0,1,0,,,,,0,5,5,5,space,7.91657516564,,,,,,,,,2018_Sep_28_1240,59.6774132701,sheb_replication_1810,1,990,
leg,walk,slip,roam,hike,HANDS,hands,with hand drumming,perform a rhythmic exercise with your hands,0,0,0,0,,,,,0,0,0,0,1,0,1,0,,,,,0,6,6,6,space,8.65428258388,,,,,,,,,2018_Sep_28_1240,59.6774132701,sheb_replication_1810,1,990,
arm,stir,polish,chop,peel,HANDS,hands,with hand drumming,perform a rhythmic exercise with your hands,0,0,0,0,,,,,0,0,0,0,1,0,1,0,,,,,0,7,7,7,space,15.8661353483,,,,,,,,,2018_Sep_28_1240,59.6774132701,sheb_replication_1810,1,990,
leg,pace,trot,stride,jog,HANDS,hands,with hand drumming,perform a rhythmic exercise with your hands,0,0,0,0,,,,,0,0,0,0,1,0,1,0,,,,,0,8,8,8,space,12.2267397411,,,,,,,,,2018_Sep_28_1240,59.6774132701,sheb_replication_1810,1,990,
leg,trip,limp,wobble,march,HANDS,hands,with hand drumming,perform a rhythmic exercise with your hands,0,0,0,0,,,,,0,0,0,0,1,0,1,0,,,,,0,9,9,9,space,5.65296884118,,,,,,,,,2018_Sep_28_1240,59.6774132701,sheb_replication_1810,1,990,
leg,squat,wade,skip,strut,HANDS,hands,with hand drumming,perform a rhythmic exercise with your hands,0,0,0,0,,,,,0,0,0,0,1,0,1,0,,,,,0,10,10,10,space,14.004509002,,,,,,,,,2018_Sep_28_1240,59.6774132701,sheb_replication_1810,1,990,
arm,fold,hack,sign,knock,HANDS,hands,with hand drumming,perform a rhythmic exercise with your hands,0,0,0,0,,,,,0,0,0,0,1,0,1,0,,,,,0,11,11,11,space,5.0320513707,,,,,,,,,2018_Sep_28_1240,59.6774132701,sheb_replication_1810,1,990,
arm,pluck,grasp,push,whip,HANDS,hands,with hand drumming,perform a rhythmic exercise with your hands,0,0,0,0,,,,,0,0,0,0,1,0,1,0,,,,,0,12,12,12,space,7.84945061849,,,,,,,,,2018_Sep_28_1240,59.6774132701,sheb_replication_1810,1,990,
arm,scratch,throw,carve,pinch,HANDS,hands,with hand drumming,perform a rhythmic exercise with your hands,0,0,0,0,,,,,0,0,0,0,1,0,1,0,,,,,0,13,13,13,space,6.40727841112,,,,,,,,,2018_Sep_28_1240,59.6774132701,sheb_replication_1810,1,990,
leg,tiptoe,stumble,flee,kick,HANDS,hands,with hand drumming,perform a rhythmic exercise with your hands,0,0,0,0,,,,,0,0,0,0,1,0,1,0,,,,,0,14,14,14,space,9.8788338074,,,,,,,,,2018_Sep_28_1240,59.6774132701,sheb_replication_1810,1,990,
leg,leap,stray,rush,jump,HANDS,hands,with hand drumming,perform a rhythmic exercise with your hands,0,0,0,0,,,,,0,0,0,0,1,0,1,0,,,,,0,15,15,15,space,6.02011547502,,,,,,,,,2018_Sep_28_1240,59.6774132701,sheb_replication_1810,1,990,
leg,kneel,trample,sprint,stomp,HANDS,hands,with hand drumming,perform a rhythmic exercise with your hands,0,0,0,0,,,,,0,0,0,0,1,0,1,0,,,,,0,16,16,16,space,10.5665913454,,,,,,,,,2018_Sep_28_1240,59.6774132701,sheb_replication_1810,1,990,
arm,gesture,nip,cut,stab,HANDS,hands,with hand drumming,perform a rhythmic exercise with your hands,0,0,0,0,,,,,0,0,0,0,1,0,1,0,,,,,0,17,17,17,space,8.36917631691,,,,,,,,,2018_Sep_28_1240,59.6774132701,sheb_replication_1810,1,990,
leg,bounce,run,stand,pedal,HANDS,hands,with hand drumming,perform a rhythmic exercise with your hands,0,0,0,0,,,,,0,0,0,0,1,0,1,0,,,,,0,18,18,18,space,9.34216221107,,,,,,,,,2018_Sep_28_1240,59.6774132701,sheb_replication_1810,1,990,
arm,wash,clap,brush,catch,HANDS,hands,with hand drumming,perform a rhythmic exercise with your hands,0,0,0,0,,,,,0,0,0,0,1,0,1,0,,,,,0,19,19,19,space,12.4949289532,,,,,,,,,2018_Sep_28_1240,59.6774132701,sheb_replication_1810,1,990,
,,,,,HANDS,hands,with hand drumming,perform a rhythmic exercise with your hands,0,0,0,0,,,,,0,0,0,0,1,0,1,0,,,,,,,,,,,,,,,,,,,2018_Sep_28_1240,59.6774132701,sheb_replication_1810,1,990,
training,stare,bless,soothe,lick,FEET,feet,with foot drumming,perform a rhythmic exercise with your feet,0,0,0,0,,,,,0,1,1,1,0,0,0,0,0,0,0,1,,,,,space,5.75327833131,,,return,1023.23674039,space,15.2624371922,,,2018_Sep_28_1240,59.6774132701,sheb_replication_1810,1,990,
training,chew,thank,print,yell,FEET,feet,with foot drumming,perform a rhythmic exercise with your feet,0,0,0,0,,,,,0,1,1,1,0,0,0,0,0,1,1,0,,,,,space,6.42394180495,,,,,,,,,2018_Sep_28_1240,59.6774132701,sheb_replication_1810,1,990,
training,sigh,like,stay,save,FEET,feet,with foot drumming,perform a rhythmic exercise with your feet,0,0,0,0,,,,,0,1,1,1,0,0,0,0,0,2,2,2,,,,,space,20.1426258338,,,,,,,,,2018_Sep_28_1240,59.6774132701,sheb_replication_1810,1,990,
training,wait,blush,look,ruin,FEET,feet,with foot drumming,perform a rhythmic exercise with your feet,0,0,0,0,,,,,0,1,1,1,0,0,0,0,0,3,3,3,,,,,space,9.07372803037,,,,,,,,,2018_Sep_28_1240,59.6774132701,sheb_replication_1810,1,990,
,,,,,FEET,feet,with foot drumming,perform a rhythmic exercise with your feet,0,0,0,0,,,,,0,1,1,1,0,0,0,0,,,,,,,,,,,p,1.59477695415,,,,,,,2018_Sep_28_1240,59.6774132701,sheb_replication_1810,1,990,
training,stare,bless,soothe,lick,FEET,feet,with foot drumming,perform a rhythmic exercise with your feet,0,0,0,0,,,,,0,1,1,1,1,0,1,0,0,0,0,1,,,,,space,28.9962029873,,,,,,,,,2018_Sep_28_1240,59.6774132701,sheb_replication_1810,1,990,
training,sigh,like,stay,save,FEET,feet,with foot drumming,perform a rhythmic exercise with your feet,0,0,0,0,,,,,0,1,1,1,1,0,1,0,0,1,1,2,,,,,space,11.2719226121,,,,,,,,,2018_Sep_28_1240,59.6774132701,sheb_replication_1810,1,990,
training,chew,thank,print,yell,FEET,feet,with foot drumming,perform a rhythmic exercise with your feet,0,0,0,0,,,,,0,1,1,1,1,0,1,0,0,2,2,0,,,,,space,10.5834677039,,,,,,,,,2018_Sep_28_1240,59.6774132701,sheb_replication_1810,1,990,
training,wait,blush,look,ruin,FEET,feet,with foot drumming,perform a rhythmic exercise with your feet,0,0,0,0,,,,,0,1,1,1,1,0,1,0,0,3,3,3,,,,,space,5.7362316802,,,,,,,,,2018_Sep_28_1240,59.6774132701,sheb_replication_1810,1,990,
leg,trot,skip,wobble,strut,FEET,feet,with foot drumming,perform a rhythmic exercise with your feet,0,0,0,0,,,,,0,1,1,1,1,0,1,0,,,,,0,0,0,0,space,18.7840159593,s,37.3666171857,,,,,space,1.4427107431,2018_Sep_28_1240,59.6774132701,sheb_replication_1810,1,990,
leg,sprint,kick,slip,hike,FEET,feet,with foot drumming,perform a rhythmic exercise with your feet,0,0,0,0,,,,,0,1,1,1,1,0,1,0,,,,,0,1,1,1,space,8.0664840729,,,,,,,,,2018_Sep_28_1240,59.6774132701,sheb_replication_1810,1,990,
leg,stomp,kneel,glide,stand,FEET,feet,with foot drumming,perform a rhythmic exercise with your feet,0,0,0,0,,,,,0,1,1,1,1,0,1,0,,,,,0,2,2,2,space,15.4803466068,,,,,,,,,2018_Sep_28_1240,59.6774132701,sheb_replication_1810,1,990,
arm,slap,sign,grab,knock,FEET,feet,with foot drumming,perform a rhythmic exercise with your feet,0,0,0,0,,,,,0,1,1,1,1,0,1,0,,,,,0,3,3,3,space,8.31917507231,,,,,,,,,2018_Sep_28_1240,59.6774132701,sheb_replication_1810,1,990,
arm,brush,punch,wash,carve,FEET,feet,with foot drumming,perform a rhythmic exercise with your feet,0,0,0,0,,,,,0,1,1,1,1,0,1,0,,,,,0,4,4,4,space,8.85554677971,,,,,,,,,2018_Sep_28_1240,59.6774132701,sheb_replication_1810,1,990,
leg,trip,tiptoe,trudge,pedal,FEET,feet,with foot drumming,perform a rhythmic exercise with your feet,0,0,0,0,,,,,0,1,1,1,1,0,1,0,,,,,0,5,5,5,space,19.7233601627,,,,,,,,,2018_Sep_28_1240,59.6774132701,sheb_replication_1810,1,990,
leg,pace,jog,jump,wade,FEET,feet,with foot drumming,perform a rhythmic exercise with your feet,0,0,0,0,,,,,0,1,1,1,1,0,1,0,,,,,0,6,6,6,space,12.645908215,,,,,,,,,2018_Sep_28_1240,59.6774132701,sheb_replication_1810,1,990,
arm,throw,cut,peel,hug,FEET,feet,with foot drumming,perform a rhythmic exercise with your feet,0,0,0,0,,,,,0,1,1,1,1,0,1,0,,,,,0,7,7,7,space,5.43460109833,,,,,,,,,2018_Sep_28_1240,59.6774132701,sheb_replication_1810,1,990,
arm,dig,poke,grasp,rub,FEET,feet,with foot drumming,perform a rhythmic exercise with your feet,0,0,0,0,,,,,0,1,1,1,1,0,1,0,,,,,0,8,8,8,space,7.88303699381,,,,,,,,,2018_Sep_28_1240,59.6774132701,sheb_replication_1810,1,990,
leg,bounce,walk,run,stroll,FEET,feet,with foot drumming,perform a rhythmic exercise with your feet,0,0,0,0,,,,,0,1,1,1,1,0,1,0,,,,,0,9,9,9,space,16.5704049528,,,,,,,,,2018_Sep_28_1240,59.6774132701,sheb_replication_1810,1,990,
arm,scratch,stab,push,clap,FEET,feet,with foot drumming,perform a rhythmic exercise with your feet,0,0,0,0,,,,,0,1,1,1,1,0,1,0,,,,,0,10,10,10,space,18.666623863,,,,,,,,,2018_Sep_28_1240,59.6774132701,sheb_replication_1810,1,990,
arm,whip,grip,pinch,polish,FEET,feet,with foot drumming,perform a rhythmic exercise with your feet,0,0,0,0,,,,,0,1,1,1,1,0,1,0,,,,,0,11,11,11,space,6.64214083559,,,,,,,,,2018_Sep_28_1240,59.6774132701,sheb_replication_1810,1,990,
leg,sneak,roam,stride,stray,FEET,feet,with foot drumming,perform a rhythmic exercise with your feet,0,0,0,0,,,,,0,1,1,1,1,0,1,0,,,,,0,12,12,12,space,10.5329927217,,,,,,,,,2018_Sep_28_1240,59.6774132701,sheb_replication_1810,1,990,
leg,flee,hop,step,squat,FEET,feet,with foot drumming,perform a rhythmic exercise with your feet,0,0,0,0,,,,,0,1,1,1,1,0,1,0,,,,,0,13,13,13,space,6.80975504329,,,,,,,,,2018_Sep_28_1240,59.6774132701,sheb_replication_1810,1,990,
arm,catch,gesture,scrub,chop,FEET,feet,with foot drumming,perform a rhythmic exercise with your feet,0,0,0,0,,,,,0,1,1,1,1,0,1,0,,,,,0,14,14,14,space,14.8765674531,,,,,,,,,2018_Sep_28_1240,59.6774132701,sheb_replication_1810,1,990,
arm,wipe,snatch,hack,fold,FEET,feet,with foot drumming,perform a rhythmic exercise with your feet,0,0,0,0,,,,,0,1,1,1,1,0,1,0,,,,,0,15,15,15,space,12.2601028789,,,,,,,,,2018_Sep_28_1240,59.6774132701,sheb_replication_1810,1,990,
leg,march,leap,skate,wander,FEET,feet,with foot drumming,perform a rhythmic exercise with your feet,0,0,0,0,,,,,0,1,1,1,1,0,1,0,,,,,0,16,16,16,space,12.8808267452,,,,,,,,,2018_Sep_28_1240,59.6774132701,sheb_replication_1810,1,990,
arm,pluck,clean,scoop,click,FEET,feet,with foot drumming,perform a rhythmic exercise with your feet,0,0,0,0,,,,,0,1,1,1,1,0,1,0,,,,,0,17,17,17,space,7.11166496835,,,,,,,,,2018_Sep_28_1240,59.6774132701,sheb_replication_1810,1,990,
leg,limp,rush,trample,stumble,FEET,feet,with foot drumming,perform a rhythmic exercise with your feet,0,0,0,0,,,,,0,1,1,1,1,0,1,0,,,,,0,18,18,18,space,11.1515150318,,,,,,,,,2018_Sep_28_1240,59.6774132701,sheb_replication_1810,1,990,
arm,nip,pat,pull,stir,FEET,feet,with foot drumming,perform a rhythmic exercise with your feet,0,0,0,0,,,,,0,1,1,1,1,0,1,0,,,,,0,19,19,19,space,6.69186747833,,,,,,,,,2018_Sep_28_1240,59.6774132701,sheb_replication_1810,1,990,
,,,,,FEET,feet,with foot drumming,perform a rhythmic exercise with your feet,0,0,0,0,,,,,0,1,1,1,1,0,1,0,,,,,,,,,,,,,,,,,,,2018_Sep_28_1240,59.6774132701,sheb_replication_1810,1,990,
