word,category,category_lowercase,trials.thisRepN,trials.thisTrialN,trials.thisN,trials.thisIndex,armleg_loop.thisRepN,armleg_loop.thisTrialN,armleg_loop.thisN,armleg_loop.thisIndex,key_resp_9.keys,key_resp_9.rt,key_resp_2.keys,key_resp_2.rt,key_resp_3.keys,key_resp_3.rt,key_resp_4.keys,key_resp_4.rt,key_resp_5.keys,key_resp_5.rt,rating.response,rating.rt,key_resp_8.keys,key_resp_8.rt,date,frameRate,expName,session,participant,
,,,,,,,,,,,space,2.26360251716,,,,,,,,,,,,,2018_Sep_07_1309,59.6344808082,verb_norming_oral_input,001,800,
,,,,,,,,,,,,,space,4.66267369487,,,,,,,,,,,2018_Sep_07_1309,59.6344808082,verb_norming_oral_input,001,800,
,,,,,,,,,,,,,,,space,7.94876779324,,,,,,,,,2018_Sep_07_1309,59.6344808082,verb_norming_oral_input,001,800,
,,,,,,,,,,,,,,,,,space,6.79259344427,,,,,,,2018_Sep_07_1309,59.6344808082,verb_norming_oral_input,001,800,
,,,,,,,,,,,,,,,,,,,space,1.07354006228,,,,,2018_Sep_07_1309,59.6344808082,verb_norming_oral_input,001,800,
POLERA,Arm,arm,0,0,0,54,0,0,0,0,,,,,,,,,,,7,10.003,,,2018_Sep_07_1309,59.6344808082,verb_norming_oral_input,001,800,
POLERA,Ben,ben,0,0,0,54,0,1,1,1,,,,,,,,,,,1,2.222,,,2018_Sep_07_1309,59.6344808082,verb_norming_oral_input,001,800,
POLERA,,,0,0,0,54,,,,,,,,,,,,,,,,,,,2018_Sep_07_1309,59.6344808082,verb_norming_oral_input,001,800,
SKJUTA,Arm,arm,0,1,1,72,0,0,0,0,,,,,,,,,,,7,4.098,,,2018_Sep_07_1309,59.6344808082,verb_norming_oral_input,001,800,
SKJUTA,Ben,ben,0,1,1,72,0,1,1,1,,,,,,,,,,,1,1.638,,,2018_Sep_07_1309,59.6344808082,verb_norming_oral_input,001,800,
SKJUTA,,,0,1,1,72,,,,,,,,,,,,,,,,,,,2018_Sep_07_1309,59.6344808082,verb_norming_oral_input,001,800,
SLUNGA,Arm,arm,0,2,2,83,0,0,0,0,,,,,,,,,,,7,2.623,,,2018_Sep_07_1309,59.6344808082,verb_norming_oral_input,001,800,
SLUNGA,Ben,ben,0,2,2,83,0,1,1,1,,,,,,,,,,,1,1.235,,,2018_Sep_07_1309,59.6344808082,verb_norming_oral_input,001,800,
SLUNGA,,,0,2,2,83,,,,,,,,,,,,,,,,,,,2018_Sep_07_1309,59.6344808082,verb_norming_oral_input,001,800,
ÖSA,Arm,arm,0,3,3,48,0,0,0,0,,,,,,,,,,,7,3.394,,,2018_Sep_07_1309,59.6344808082,verb_norming_oral_input,001,800,
ÖSA,Ben,ben,0,3,3,48,0,1,1,1,,,,,,,,,,,1,4.037,,,2018_Sep_07_1309,59.6344808082,verb_norming_oral_input,001,800,
ÖSA,,,0,3,3,48,,,,,,,,,,,,,,,,,,,2018_Sep_07_1309,59.6344808082,verb_norming_oral_input,001,800,
LÖPA,Arm,arm,0,4,4,125,0,0,0,0,,,,,,,,,,,1,4.235,,,2018_Sep_07_1309,59.6344808082,verb_norming_oral_input,001,800,
LÖPA,Ben,ben,0,4,4,125,0,1,1,1,,,,,,,,,,,7,1.656,,,2018_Sep_07_1309,59.6344808082,verb_norming_oral_input,001,800,
LÖPA,,,0,4,4,125,,,,,,,,,,,,,,,,,,,2018_Sep_07_1309,59.6344808082,verb_norming_oral_input,001,800,
GREPPA,Arm,arm,0,5,5,18,0,0,0,0,,,,,,,,,,,7,2.272,,,2018_Sep_07_1309,59.6344808082,verb_norming_oral_input,001,800,
GREPPA,Ben,ben,0,5,5,18,0,1,1,1,,,,,,,,,,,1,0.716,,,2018_Sep_07_1309,59.6344808082,verb_norming_oral_input,001,800,
GREPPA,,,0,5,5,18,,,,,,,,,,,,,,,,,,,2018_Sep_07_1309,59.6344808082,verb_norming_oral_input,001,800,
SLÄNTRA,Arm,arm,0,6,6,139,0,0,0,0,,,,,,,,,,,1,4.049,,,2018_Sep_07_1309,59.6344808082,verb_norming_oral_input,001,800,
SLÄNTRA,Ben,ben,0,6,6,139,0,1,1,1,,,,,,,,,,,7,1.537,,,2018_Sep_07_1309,59.6344808082,verb_norming_oral_input,001,800,
SLÄNTRA,,,0,6,6,139,,,,,,,,,,,,,,,,,,,2018_Sep_07_1309,59.6344808082,verb_norming_oral_input,001,800,
LINKA,Arm,arm,0,7,7,124,0,0,0,0,,,,,,,,,,,1,5.644,,,2018_Sep_07_1309,59.6344808082,verb_norming_oral_input,001,800,
LINKA,Ben,ben,0,7,7,124,0,1,1,1,,,,,,,,,,,7,1.37,,,2018_Sep_07_1309,59.6344808082,verb_norming_oral_input,001,800,
LINKA,,,0,7,7,124,,,,,,,,,,,,,,,,,,,2018_Sep_07_1309,59.6344808082,verb_norming_oral_input,001,800,
PISKA,Arm,arm,0,8,8,52,0,0,0,0,,,,,,,,,,,7,2.037,,,2018_Sep_07_1309,59.6344808082,verb_norming_oral_input,001,800,
PISKA,Ben,ben,0,8,8,52,0,1,1,1,,,,,,,,,,,1,0.75,,,2018_Sep_07_1309,59.6344808082,verb_norming_oral_input,001,800,
PISKA,,,0,8,8,52,,,,,,,,,,,,,,,,,,,2018_Sep_07_1309,59.6344808082,verb_norming_oral_input,001,800,
VINGLA,Arm,arm,0,9,9,168,0,0,0,0,,,,,,,,,,,1,2.591,,,2018_Sep_07_1309,59.6344808082,verb_norming_oral_input,001,800,
VINGLA,Ben,ben,0,9,9,168,0,1,1,1,,,,,,,,,,,7,0.867,,,2018_Sep_07_1309,59.6344808082,verb_norming_oral_input,001,800,
VINGLA,,,0,9,9,168,,,,,,,,,,,,,,,,,,,2018_Sep_07_1309,59.6344808082,verb_norming_oral_input,001,800,
TRYCKA,Arm,arm,0,10,10,95,0,0,0,0,,,,,,,,,,,7,3.441,,,2018_Sep_07_1309,59.6344808082,verb_norming_oral_input,001,800,
TRYCKA,Ben,ben,0,10,10,95,0,1,1,1,,,,,,,,,,,1,0.814,,,2018_Sep_07_1309,59.6344808082,verb_norming_oral_input,001,800,
TRYCKA,,,0,10,10,95,,,,,,,,,,,,,,,,,,,2018_Sep_07_1309,59.6344808082,verb_norming_oral_input,001,800,
VANDRA,Arm,arm,0,11,11,166,0,0,0,0,,,,,,,,,,,1,1.87,,,2018_Sep_07_1309,59.6344808082,verb_norming_oral_input,001,800,
VANDRA,Ben,ben,0,11,11,166,0,1,1,1,,,,,,,,,,,7,0.884,,,2018_Sep_07_1309,59.6344808082,verb_norming_oral_input,001,800,
VANDRA,,,0,11,11,166,,,,,,,,,,,,,,,,,,,2018_Sep_07_1309,59.6344808082,verb_norming_oral_input,001,800,
TRIPPA,Arm,arm,0,12,12,163,0,0,0,0,,,,,,,,,,,1,2.239,,,2018_Sep_07_1309,59.6344808082,verb_norming_oral_input,001,800,
TRIPPA,Ben,ben,0,12,12,163,0,1,1,1,,,,,,,,,,,7,0.632,,,2018_Sep_07_1309,59.6344808082,verb_norming_oral_input,001,800,
TRIPPA,,,0,12,12,163,,,,,,,,,,,,,,,,,,,2018_Sep_07_1309,59.6344808082,verb_norming_oral_input,001,800,
RULLA,Arm,arm,0,13,13,132,0,0,0,0,,,,,,,,,,,6,30.951,,,2018_Sep_07_1309,59.6344808082,verb_norming_oral_input,001,800,
RULLA,Ben,ben,0,13,13,132,0,1,1,1,,,,,,,,,,,1,4.02,,,2018_Sep_07_1309,59.6344808082,verb_norming_oral_input,001,800,
RULLA,,,0,13,13,132,,,,,,,,,,,,,,,,,,,2018_Sep_07_1309,59.6344808082,verb_norming_oral_input,001,800,
KNIPA,Arm,arm,0,14,14,37,0,0,0,0,,,,,,,,,,,7,2.423,,,2018_Sep_07_1309,59.6344808082,verb_norming_oral_input,001,800,
KNIPA,Ben,ben,0,14,14,37,0,1,1,1,,,,,,,,,,,4,4.473,,,2018_Sep_07_1309,59.6344808082,verb_norming_oral_input,001,800,
KNIPA,,,0,14,14,37,,,,,,,,,,,,,,,,,,,2018_Sep_07_1309,59.6344808082,verb_norming_oral_input,001,800,
DUNKA,Arm,arm,0,15,15,7,0,0,0,0,,,,,,,,,,,7,3.816,,,2018_Sep_07_1309,59.6344808082,verb_norming_oral_input,001,800,
DUNKA,Ben,ben,0,15,15,7,0,1,1,1,,,,,,,,,,,1,2.309,,,2018_Sep_07_1309,59.6344808082,verb_norming_oral_input,001,800,
DUNKA,,,0,15,15,7,,,,,,,,,,,,,,,,,,,2018_Sep_07_1309,59.6344808082,verb_norming_oral_input,001,800,
RULTA,Arm,arm,0,16,16,133,0,0,0,0,,,,,,,,,,,1,5.644,,,2018_Sep_07_1309,59.6344808082,verb_norming_oral_input,001,800,
RULTA,Ben,ben,0,16,16,133,0,1,1,1,,,,,,,,,,,7,1.739,,,2018_Sep_07_1309,59.6344808082,verb_norming_oral_input,001,800,
RULTA,,,0,16,16,133,,,,,,,,,,,,,,,,,,,2018_Sep_07_1309,59.6344808082,verb_norming_oral_input,001,800,
SMEKA,Arm,arm,0,17,17,85,0,0,0,0,,,,,,,,,,,7,2.538,,,2018_Sep_07_1309,59.6344808082,verb_norming_oral_input,001,800,
SMEKA,Ben,ben,0,17,17,85,0,1,1,1,,,,,,,,,,,1,1.234,,,2018_Sep_07_1309,59.6344808082,verb_norming_oral_input,001,800,
SMEKA,,,0,17,17,85,,,,,,,,,,,,,,,,,,,2018_Sep_07_1309,59.6344808082,verb_norming_oral_input,001,800,
KLÄMMA,Arm,arm,0,18,18,30,0,0,0,0,,,,,,,,,,,7,2.153,,,2018_Sep_07_1309,59.6344808082,verb_norming_oral_input,001,800,
KLÄMMA,Ben,ben,0,18,18,30,0,1,1,1,,,,,,,,,,,1,0.747,,,2018_Sep_07_1309,59.6344808082,verb_norming_oral_input,001,800,
KLÄMMA,,,0,18,18,30,,,,,,,,,,,,,,,,,,,2018_Sep_07_1309,59.6344808082,verb_norming_oral_input,001,800,
RYCKA,Arm,arm,0,19,19,67,0,0,0,0,,,,,,,,,,,7,2.019,,,2018_Sep_07_1309,59.6344808082,verb_norming_oral_input,001,800,
RYCKA,Ben,ben,0,19,19,67,0,1,1,1,,,,,,,,,,,1,1.115,,,2018_Sep_07_1309,59.6344808082,verb_norming_oral_input,001,800,
RYCKA,,,0,19,19,67,,,,,,,,,,,,,,,,,,,2018_Sep_07_1309,59.6344808082,verb_norming_oral_input,001,800,
SKUTTA,Arm,arm,0,20,20,137,0,0,0,0,,,,,,,,,,,1,2.239,,,2018_Sep_07_1309,59.6344808082,verb_norming_oral_input,001,800,
SKUTTA,Ben,ben,0,20,20,137,0,1,1,1,,,,,,,,,,,7,1.638,,,2018_Sep_07_1309,59.6344808082,verb_norming_oral_input,001,800,
SKUTTA,,,0,20,20,137,,,,,,,,,,,,,,,,,,,2018_Sep_07_1309,59.6344808082,verb_norming_oral_input,001,800,
BULTA,Arm,arm,0,21,21,4,0,0,0,0,,,,,,,,,,,5,16.143,,,2018_Sep_07_1309,59.6344808082,verb_norming_oral_input,001,800,
BULTA,Ben,ben,0,21,21,4,0,1,1,1,,,,,,,,,,,1,1.471,,,2018_Sep_07_1309,59.6344808082,verb_norming_oral_input,001,800,
BULTA,,,0,21,21,4,,,,,,,,,,,,,,,,,,,2018_Sep_07_1309,59.6344808082,verb_norming_oral_input,001,800,
SLINTA,Arm,arm,0,22,22,140,0,0,0,0,,,,,,,,,,,7,5.459,,,2018_Sep_07_1309,59.6344808082,verb_norming_oral_input,001,800,
SLINTA,Ben,ben,0,22,22,140,0,1,1,1,,,,,,,,,,,2,3.164,,,2018_Sep_07_1309,59.6344808082,verb_norming_oral_input,001,800,
SLINTA,,,0,22,22,140,,,,,,,,,,,,,,,,,,,2018_Sep_07_1309,59.6344808082,verb_norming_oral_input,001,800,
SMÄLLA,Arm,arm,0,23,23,84,0,0,0,0,,,,,,,,,,,7,6.547,,,2018_Sep_07_1309,59.6344808082,verb_norming_oral_input,001,800,
SMÄLLA,Ben,ben,0,23,23,84,0,1,1,1,,,,,,,,,,,1,0.899,,,2018_Sep_07_1309,59.6344808082,verb_norming_oral_input,001,800,
SMÄLLA,,,0,23,23,84,,,,,,,,,,,,,,,,,,,2018_Sep_07_1309,59.6344808082,verb_norming_oral_input,001,800,
RÄNNA,Arm,arm,0,24,24,131,0,0,0,0,,,,,,,,,,,1,2.139,,,2018_Sep_07_1309,59.6344808082,verb_norming_oral_input,001,800,
RÄNNA,Ben,ben,0,24,24,131,0,1,1,1,,,,,,,,,,,7,0.816,,,2018_Sep_07_1309,59.6344808082,verb_norming_oral_input,001,800,
RÄNNA,,,0,24,24,131,,,,,,,,,,,,,,,,,,,2018_Sep_07_1309,59.6344808082,verb_norming_oral_input,001,800,
DANSA,Arm,arm,0,25,25,102,0,0,0,0,,,,,,,,,,,2,4.487,,,2018_Sep_07_1309,59.6344808082,verb_norming_oral_input,001,800,
DANSA,Ben,ben,0,25,25,102,0,1,1,1,,,,,,,,,,,7,1.404,,,2018_Sep_07_1309,59.6344808082,verb_norming_oral_input,001,800,
DANSA,,,0,25,25,102,,,,,,,,,,,,,,,,,,,2018_Sep_07_1309,59.6344808082,verb_norming_oral_input,001,800,
STRUTTA,Arm,arm,0,26,26,154,0,0,0,0,,,,,,,,,,,1,1.785,,,2018_Sep_07_1309,59.6344808082,verb_norming_oral_input,001,800,
STRUTTA,Ben,ben,0,26,26,154,0,1,1,1,,,,,,,,,,,7,1.05,,,2018_Sep_07_1309,59.6344808082,verb_norming_oral_input,001,800,
STRUTTA,,,0,26,26,154,,,,,,,,,,,,,,,,,,,2018_Sep_07_1309,59.6344808082,verb_norming_oral_input,001,800,
KLIVA,Arm,arm,0,27,27,117,0,0,0,0,,,,,,,,,,,1,1.92,,,2018_Sep_07_1309,59.6344808082,verb_norming_oral_input,001,800,
KLIVA,Ben,ben,0,27,27,117,0,1,1,1,,,,,,,,,,,7,0.7,,,2018_Sep_07_1309,59.6344808082,verb_norming_oral_input,001,800,
KLIVA,,,0,27,27,117,,,,,,,,,,,,,,,,,,,2018_Sep_07_1309,59.6344808082,verb_norming_oral_input,001,800,
RAGLA,Arm,arm,0,28,28,130,0,0,0,0,,,,,,,,,,,1,1.719,,,2018_Sep_07_1309,59.6344808082,verb_norming_oral_input,001,800,
RAGLA,Ben,ben,0,28,28,130,0,1,1,1,,,,,,,,,,,7,0.515,,,2018_Sep_07_1309,59.6344808082,verb_norming_oral_input,001,800,
RAGLA,,,0,28,28,130,,,,,,,,,,,,,,,,,,,2018_Sep_07_1309,59.6344808082,verb_norming_oral_input,001,800,
KLICKA,Arm,arm,0,29,29,33,0,0,0,0,,,,,,,,,,,7,1.968,,,2018_Sep_07_1309,59.6344808082,verb_norming_oral_input,001,800,
KLICKA,Ben,ben,0,29,29,33,0,1,1,1,,,,,,,,,,,1,0.747,,,2018_Sep_07_1309,59.6344808082,verb_norming_oral_input,001,800,
KLICKA,,,0,29,29,33,,,,,,,,,,,,,,,,,,,2018_Sep_07_1309,59.6344808082,verb_norming_oral_input,001,800,
SLITA,Arm,arm,0,30,30,82,0,0,0,0,,,,,,,,,,,7,2.457,,,2018_Sep_07_1309,59.6344808082,verb_norming_oral_input,001,800,
SLITA,Ben,ben,0,30,30,82,0,1,1,1,,,,,,,,,,,1,0.649,,,2018_Sep_07_1309,59.6344808082,verb_norming_oral_input,001,800,
SLITA,,,0,30,30,82,,,,,,,,,,,,,,,,,,,2018_Sep_07_1309,59.6344808082,verb_norming_oral_input,001,800,
GNIDA,Arm,arm,0,31,31,14,0,0,0,0,,,,,,,,,,,7,1.986,,,2018_Sep_07_1309,59.6344808082,verb_norming_oral_input,001,800,
GNIDA,Ben,ben,0,31,31,14,0,1,1,1,,,,,,,,,,,1,0.784,,,2018_Sep_07_1309,59.6344808082,verb_norming_oral_input,001,800,
GNIDA,,,0,31,31,14,,,,,,,,,,,,,,,,,,,2018_Sep_07_1309,59.6344808082,verb_norming_oral_input,001,800,
HIVA,Arm,arm,0,32,32,24,0,0,0,0,,,,,,,,,,,7,2.855,,,2018_Sep_07_1309,59.6344808082,verb_norming_oral_input,001,800,
HIVA,Ben,ben,0,32,32,24,0,1,1,1,,,,,,,,,,,1,4.506,,,2018_Sep_07_1309,59.6344808082,verb_norming_oral_input,001,800,
HIVA,,,0,32,32,24,,,,,,,,,,,,,,,,,,,2018_Sep_07_1309,59.6344808082,verb_norming_oral_input,001,800,
TRUMMA,Arm,arm,0,33,33,94,0,0,0,0,,,,,,,,,,,7,3.411,,,2018_Sep_07_1309,59.6344808082,verb_norming_oral_input,001,800,
TRUMMA,Ben,ben,0,33,33,94,0,1,1,1,,,,,,,,,,,1,2.626,,,2018_Sep_07_1309,59.6344808082,verb_norming_oral_input,001,800,
TRUMMA,,,0,33,33,94,,,,,,,,,,,,,,,,,,,2018_Sep_07_1309,59.6344808082,verb_norming_oral_input,001,800,
FÅNGA,Arm,arm,0,34,34,8,0,0,0,0,,,,,,,,,,,7,1.933,,,2018_Sep_07_1309,59.6344808082,verb_norming_oral_input,001,800,
FÅNGA,Ben,ben,0,34,34,8,0,1,1,1,,,,,,,,,,,1,0.613,,,2018_Sep_07_1309,59.6344808082,verb_norming_oral_input,001,800,
FÅNGA,,,0,34,34,8,,,,,,,,,,,,,,,,,,,2018_Sep_07_1309,59.6344808082,verb_norming_oral_input,001,800,
SNAVA,Arm,arm,0,35,35,142,0,0,0,0,,,,,,,,,,,1,2.156,,,2018_Sep_07_1309,59.6344808082,verb_norming_oral_input,001,800,
SNAVA,Ben,ben,0,35,35,142,0,1,1,1,,,,,,,,,,,7,1.102,,,2018_Sep_07_1309,59.6344808082,verb_norming_oral_input,001,800,
SNAVA,,,0,35,35,142,,,,,,,,,,,,,,,,,,,2018_Sep_07_1309,59.6344808082,verb_norming_oral_input,001,800,
PROMENERA,Arm,arm,0,36,36,129,0,0,0,0,,,,,,,,,,,1,2.856,,,2018_Sep_07_1309,59.6344808082,verb_norming_oral_input,001,800,
PROMENERA,Ben,ben,0,36,36,129,0,1,1,1,,,,,,,,,,,7,0.663,,,2018_Sep_07_1309,59.6344808082,verb_norming_oral_input,001,800,
PROMENERA,,,0,36,36,129,,,,,,,,,,,,,,,,,,,2018_Sep_07_1309,59.6344808082,verb_norming_oral_input,001,800,
STEGA,Arm,arm,0,37,37,150,0,0,0,0,,,,,,,,,,,1,1.852,,,2018_Sep_07_1309,59.6344808082,verb_norming_oral_input,001,800,
STEGA,Ben,ben,0,37,37,150,0,1,1,1,,,,,,,,,,,7,0.607,,,2018_Sep_07_1309,59.6344808082,verb_norming_oral_input,001,800,
STEGA,,,0,37,37,150,,,,,,,,,,,,,,,,,,,2018_Sep_07_1309,59.6344808082,verb_norming_oral_input,001,800,
SKYNDA,Arm,arm,0,38,38,138,0,0,0,0,,,,,,,,,,,1,5.39,,,2018_Sep_07_1309,59.6344808082,verb_norming_oral_input,001,800,
SKYNDA,Ben,ben,0,38,38,138,0,1,1,1,,,,,,,,,,,6,2.106,,,2018_Sep_07_1309,59.6344808082,verb_norming_oral_input,001,800,
SKYNDA,,,0,38,38,138,,,,,,,,,,,,,,,,,,,2018_Sep_07_1309,59.6344808082,verb_norming_oral_input,001,800,
KRAMA,Arm,arm,0,39,39,41,0,0,0,0,,,,,,,,,,,7,2.522,,,2018_Sep_07_1309,59.6344808082,verb_norming_oral_input,001,800,
KRAMA,Ben,ben,0,39,39,41,0,1,1,1,,,,,,,,,,,1,1.056,,,2018_Sep_07_1309,59.6344808082,verb_norming_oral_input,001,800,
KRAMA,,,0,39,39,41,,,,,,,,,,,,,,,,,,,2018_Sep_07_1309,59.6344808082,verb_norming_oral_input,001,800,
SKURA,Arm,arm,0,40,40,77,0,0,0,0,,,,,,,,,,,7,2.568,,,2018_Sep_07_1309,59.6344808082,verb_norming_oral_input,001,800,
SKURA,Ben,ben,0,40,40,77,0,1,1,1,,,,,,,,,,,1,1.031,,,2018_Sep_07_1309,59.6344808082,verb_norming_oral_input,001,800,
SKURA,,,0,40,40,77,,,,,,,,,,,,,,,,,,,2018_Sep_07_1309,59.6344808082,verb_norming_oral_input,001,800,
RIVA,Arm,arm,0,41,41,63,0,0,0,0,,,,,,,,,,,7,1.854,,,2018_Sep_07_1309,59.6344808082,verb_norming_oral_input,001,800,
RIVA,Ben,ben,0,41,41,63,0,1,1,1,,,,,,,,,,,1,0.431,,,2018_Sep_07_1309,59.6344808082,verb_norming_oral_input,001,800,
RIVA,,,0,41,41,63,,,,,,,,,,,,,,,,,,,2018_Sep_07_1309,59.6344808082,verb_norming_oral_input,001,800,
STRÖVA,Arm,arm,0,42,42,153,0,0,0,0,,,,,,,,,,,1,2.172,,,2018_Sep_07_1309,59.6344808082,verb_norming_oral_input,001,800,
STRÖVA,Ben,ben,0,42,42,153,0,1,1,1,,,,,,,,,,,7,1.001,,,2018_Sep_07_1309,59.6344808082,verb_norming_oral_input,001,800,
STRÖVA,,,0,42,42,153,,,,,,,,,,,,,,,,,,,2018_Sep_07_1309,59.6344808082,verb_norming_oral_input,001,800,
HALTA,Arm,arm,0,43,43,110,0,0,0,0,,,,,,,,,,,1,1.753,,,2018_Sep_07_1309,59.6344808082,verb_norming_oral_input,001,800,
HALTA,Ben,ben,0,43,43,110,0,1,1,1,,,,,,,,,,,7,0.447,,,2018_Sep_07_1309,59.6344808082,verb_norming_oral_input,001,800,
HALTA,,,0,43,43,110,,,,,,,,,,,,,,,,,,,2018_Sep_07_1309,59.6344808082,verb_norming_oral_input,001,800,
PUTTA,Arm,arm,0,44,44,57,0,0,0,0,,,,,,,,,,,7,2.289,,,2018_Sep_07_1309,59.6344808082,verb_norming_oral_input,001,800,
PUTTA,Ben,ben,0,44,44,57,0,1,1,1,,,,,,,,,,,1,0.531,,,2018_Sep_07_1309,59.6344808082,verb_norming_oral_input,001,800,
PUTTA,,,0,44,44,57,,,,,,,,,,,,,,,,,,,2018_Sep_07_1309,59.6344808082,verb_norming_oral_input,001,800,
KLIA,Arm,arm,0,45,45,32,0,0,0,0,,,,,,,,,,,7,2.088,,,2018_Sep_07_1309,59.6344808082,verb_norming_oral_input,001,800,
KLIA,Ben,ben,0,45,45,32,0,1,1,1,,,,,,,,,,,1,0.549,,,2018_Sep_07_1309,59.6344808082,verb_norming_oral_input,001,800,
KLIA,,,0,45,45,32,,,,,,,,,,,,,,,,,,,2018_Sep_07_1309,59.6344808082,verb_norming_oral_input,001,800,
KRAVLA,Arm,arm,0,46,46,122,0,0,0,0,,,,,,,,,,,4,13.269,,,2018_Sep_07_1309,59.6344808082,verb_norming_oral_input,001,800,
KRAVLA,Ben,ben,0,46,46,122,0,1,1,1,,,,,,,,,,,5,2.326,,,2018_Sep_07_1309,59.6344808082,verb_norming_oral_input,001,800,
KRAVLA,,,0,46,46,122,,,,,,,,,,,,,,,,,,,2018_Sep_07_1309,59.6344808082,verb_norming_oral_input,001,800,
STÖVLA,Arm,arm,0,47,47,152,0,0,0,0,,,,,,,,,,,1,4.117,,,2018_Sep_07_1309,59.6344808082,verb_norming_oral_input,001,800,
STÖVLA,Ben,ben,0,47,47,152,0,1,1,1,,,,,,,,,,,7,0.867,,,2018_Sep_07_1309,59.6344808082,verb_norming_oral_input,001,800,
STÖVLA,,,0,47,47,152,,,,,,,,,,,,,,,,,,,2018_Sep_07_1309,59.6344808082,verb_norming_oral_input,001,800,
LUNKA,Arm,arm,0,48,48,126,0,0,0,0,,,,,,,,,,,1,2.088,,,2018_Sep_07_1309,59.6344808082,verb_norming_oral_input,001,800,
LUNKA,Ben,ben,0,48,48,126,0,1,1,1,,,,,,,,,,,7,1.287,,,2018_Sep_07_1309,59.6344808082,verb_norming_oral_input,001,800,
LUNKA,,,0,48,48,126,,,,,,,,,,,,,,,,,,,2018_Sep_07_1309,59.6344808082,verb_norming_oral_input,001,800,
PADDLA,Arm,arm,0,49,49,49,0,0,0,0,,,,,,,,,,,7,5.04,,,2018_Sep_07_1309,59.6344808082,verb_norming_oral_input,001,800,
PADDLA,Ben,ben,0,49,49,49,0,1,1,1,,,,,,,,,,,1,0.984,,,2018_Sep_07_1309,59.6344808082,verb_norming_oral_input,001,800,
PADDLA,,,0,49,49,49,,,,,,,,,,,,,,,,,,,2018_Sep_07_1309,59.6344808082,verb_norming_oral_input,001,800,
VANKA,Arm,arm,0,50,50,167,0,0,0,0,,,,,,,,,,,1,4.789,,,2018_Sep_07_1309,59.6344808082,verb_norming_oral_input,001,800,
VANKA,Ben,ben,0,50,50,167,0,1,1,1,,,,,,,,,,,7,1.269,,,2018_Sep_07_1309,59.6344808082,verb_norming_oral_input,001,800,
VANKA,,,0,50,50,167,,,,,,,,,,,,,,,,,,,2018_Sep_07_1309,59.6344808082,verb_norming_oral_input,001,800,
NORPA,Arm,arm,0,51,51,46,0,0,0,0,,,,,,,,,,,7,2.372,,,2018_Sep_07_1309,59.6344808082,verb_norming_oral_input,001,800,
NORPA,Ben,ben,0,51,51,46,0,1,1,1,,,,,,,,,,,1,1.102,,,2018_Sep_07_1309,59.6344808082,verb_norming_oral_input,001,800,
NORPA,,,0,51,51,46,,,,,,,,,,,,,,,,,,,2018_Sep_07_1309,59.6344808082,verb_norming_oral_input,001,800,
SKUMMA,Arm,arm,0,52,52,76,0,0,0,0,,,,,,,,,,,7,3.797,,,2018_Sep_07_1309,59.6344808082,verb_norming_oral_input,001,800,
SKUMMA,Ben,ben,0,52,52,76,0,1,1,1,,,,,,,,,,,1,0.681,,,2018_Sep_07_1309,59.6344808082,verb_norming_oral_input,001,800,
SKUMMA,,,0,52,52,76,,,,,,,,,,,,,,,,,,,2018_Sep_07_1309,59.6344808082,verb_norming_oral_input,001,800,
RUSA,Arm,arm,0,53,53,134,0,0,0,0,,,,,,,,,,,1,2.088,,,2018_Sep_07_1309,59.6344808082,verb_norming_oral_input,001,800,
RUSA,Ben,ben,0,53,53,134,0,1,1,1,,,,,,,,,,,7,0.566,,,2018_Sep_07_1309,59.6344808082,verb_norming_oral_input,001,800,
RUSA,,,0,53,53,134,,,,,,,,,,,,,,,,,,,2018_Sep_07_1309,59.6344808082,verb_norming_oral_input,001,800,
SVASSA,Arm,arm,0,54,54,157,0,0,0,0,,,,,,,,,,,1,2.523,,,2018_Sep_07_1309,59.6344808082,verb_norming_oral_input,001,800,
SVASSA,Ben,ben,0,54,54,157,0,1,1,1,,,,,,,,,,,6,2.074,,,2018_Sep_07_1309,59.6344808082,verb_norming_oral_input,001,800,
SVASSA,,,0,54,54,157,,,,,,,,,,,,,,,,,,,2018_Sep_07_1309,59.6344808082,verb_norming_oral_input,001,800,
KILA,Arm,arm,0,55,55,115,0,0,0,0,,,,,,,,,,,1,3.531,,,2018_Sep_07_1309,59.6344808082,verb_norming_oral_input,001,800,
KILA,Ben,ben,0,55,55,115,0,1,1,1,,,,,,,,,,,6,1.085,,,2018_Sep_07_1309,59.6344808082,verb_norming_oral_input,001,800,
KILA,,,0,55,55,115,,,,,,,,,,,,,,,,,,,2018_Sep_07_1309,59.6344808082,verb_norming_oral_input,001,800,
SVAJA,Arm,arm,0,56,56,156,0,0,0,0,,,,,,,,,,,1,2.205,,,2018_Sep_07_1309,59.6344808082,verb_norming_oral_input,001,800,
SVAJA,Ben,ben,0,56,56,156,0,1,1,1,,,,,,,,,,,7,1.622,,,2018_Sep_07_1309,59.6344808082,verb_norming_oral_input,001,800,
SVAJA,,,0,56,56,156,,,,,,,,,,,,,,,,,,,2018_Sep_07_1309,59.6344808082,verb_norming_oral_input,001,800,
SPARKA,Arm,arm,0,57,57,144,0,0,0,0,,,,,,,,,,,1,5.257,,,2018_Sep_07_1309,59.6344808082,verb_norming_oral_input,001,800,
SPARKA,Ben,ben,0,57,57,144,0,1,1,1,,,,,,,,,,,7,1.068,,,2018_Sep_07_1309,59.6344808082,verb_norming_oral_input,001,800,
SPARKA,,,0,57,57,144,,,,,,,,,,,,,,,,,,,2018_Sep_07_1309,59.6344808082,verb_norming_oral_input,001,800,
KOPPLA,Arm,arm,0,58,58,40,0,0,0,0,,,,,,,,,,,7,7.907,,,2018_Sep_07_1309,59.6344808082,verb_norming_oral_input,001,800,
KOPPLA,Ben,ben,0,58,58,40,0,1,1,1,,,,,,,,,,,1,4.523,,,2018_Sep_07_1309,59.6344808082,verb_norming_oral_input,001,800,
KOPPLA,,,0,58,58,40,,,,,,,,,,,,,,,,,,,2018_Sep_07_1309,59.6344808082,verb_norming_oral_input,001,800,
IRRA,Arm,arm,0,59,59,113,0,0,0,0,,,,,,,,,,,1,1.988,,,2018_Sep_07_1309,59.6344808082,verb_norming_oral_input,001,800,
IRRA,Ben,ben,0,59,59,113,0,1,1,1,,,,,,,,,,,7,1.32,,,2018_Sep_07_1309,59.6344808082,verb_norming_oral_input,001,800,
IRRA,,,0,59,59,113,,,,,,,,,,,,,,,,,,,2018_Sep_07_1309,59.6344808082,verb_norming_oral_input,001,800,
GNUGGA,Arm,arm,0,60,60,15,0,0,0,0,,,,,,,,,,,7,3.931,,,2018_Sep_07_1309,59.6344808082,verb_norming_oral_input,001,800,
GNUGGA,Ben,ben,0,60,60,15,0,1,1,1,,,,,,,,,,,1,0.699,,,2018_Sep_07_1309,59.6344808082,verb_norming_oral_input,001,800,
GNUGGA,,,0,60,60,15,,,,,,,,,,,,,,,,,,,2018_Sep_07_1309,59.6344808082,verb_norming_oral_input,001,800,
FLANERA,Arm,arm,0,61,61,104,0,0,0,0,,,,,,,,,,,1,2.104,,,2018_Sep_07_1309,59.6344808082,verb_norming_oral_input,001,800,
FLANERA,Ben,ben,0,61,61,104,0,1,1,1,,,,,,,,,,,7,1.705,,,2018_Sep_07_1309,59.6344808082,verb_norming_oral_input,001,800,
FLANERA,,,0,61,61,104,,,,,,,,,,,,,,,,,,,2018_Sep_07_1309,59.6344808082,verb_norming_oral_input,001,800,
NYPA,Arm,arm,0,62,62,47,0,0,0,0,,,,,,,,,,,7,2.07,,,2018_Sep_07_1309,59.6344808082,verb_norming_oral_input,001,800,
NYPA,Ben,ben,0,62,62,47,0,1,1,1,,,,,,,,,,,1,1.133,,,2018_Sep_07_1309,59.6344808082,verb_norming_oral_input,001,800,
NYPA,,,0,62,62,47,,,,,,,,,,,,,,,,,,,2018_Sep_07_1309,59.6344808082,verb_norming_oral_input,001,800,
KARVA,Arm,arm,0,63,63,26,0,0,0,0,,,,,,,,,,,7,2.239,,,2018_Sep_07_1309,59.6344808082,verb_norming_oral_input,001,800,
KARVA,Ben,ben,0,63,63,26,0,1,1,1,,,,,,,,,,,1,0.867,,,2018_Sep_07_1309,59.6344808082,verb_norming_oral_input,001,800,
KARVA,,,0,63,63,26,,,,,,,,,,,,,,,,,,,2018_Sep_07_1309,59.6344808082,verb_norming_oral_input,001,800,
PETA,Arm,arm,0,64,64,50,0,0,0,0,,,,,,,,,,,7,1.77,,,2018_Sep_07_1309,59.6344808082,verb_norming_oral_input,001,800,
PETA,Ben,ben,0,64,64,50,0,1,1,1,,,,,,,,,,,1,0.7,,,2018_Sep_07_1309,59.6344808082,verb_norming_oral_input,001,800,
PETA,,,0,64,64,50,,,,,,,,,,,,,,,,,,,2018_Sep_07_1309,59.6344808082,verb_norming_oral_input,001,800,
RISTA,Arm,arm,0,65,65,62,0,0,0,0,,,,,,,,,,,7,2.122,,,2018_Sep_07_1309,59.6344808082,verb_norming_oral_input,001,800,
RISTA,Ben,ben,0,65,65,62,0,1,1,1,,,,,,,,,,,1,4.825,,,2018_Sep_07_1309,59.6344808082,verb_norming_oral_input,001,800,
RISTA,,,0,65,65,62,,,,,,,,,,,,,,,,,,,2018_Sep_07_1309,59.6344808082,verb_norming_oral_input,001,800,
STUDSA,Arm,arm,0,66,66,155,0,0,0,0,,,,,,,,,,,1,8.445,,,2018_Sep_07_1309,59.6344808082,verb_norming_oral_input,001,800,
STUDSA,Ben,ben,0,66,66,155,0,1,1,1,,,,,,,,,,,7,2.426,,,2018_Sep_07_1309,59.6344808082,verb_norming_oral_input,001,800,
STUDSA,,,0,66,66,155,,,,,,,,,,,,,,,,,,,2018_Sep_07_1309,59.6344808082,verb_norming_oral_input,001,800,
KRYPA,Arm,arm,0,67,67,123,0,0,0,0,,,,,,,,,,,4,18.32,,,2018_Sep_07_1309,59.6344808082,verb_norming_oral_input,001,800,
KRYPA,Ben,ben,0,67,67,123,0,1,1,1,,,,,,,,,,,5,2.977,,,2018_Sep_07_1309,59.6344808082,verb_norming_oral_input,001,800,
KRYPA,,,0,67,67,123,,,,,,,,,,,,,,,,,,,2018_Sep_07_1309,59.6344808082,verb_norming_oral_input,001,800,
ROTA,Arm,arm,0,68,68,66,0,0,0,0,,,,,,,,,,,7,3.682,,,2018_Sep_07_1309,59.6344808082,verb_norming_oral_input,001,800,
ROTA,Ben,ben,0,68,68,66,0,1,1,1,,,,,,,,,,,1,1.908,,,2018_Sep_07_1309,59.6344808082,verb_norming_oral_input,001,800,
ROTA,,,0,68,68,66,,,,,,,,,,,,,,,,,,,2018_Sep_07_1309,59.6344808082,verb_norming_oral_input,001,800,
KNATA,Arm,arm,0,69,69,120,0,0,0,0,,,,,,,,,,,1,2.306,,,2018_Sep_07_1309,59.6344808082,verb_norming_oral_input,001,800,
KNATA,Ben,ben,0,69,69,120,0,1,1,1,,,,,,,,,,,7,1.119,,,2018_Sep_07_1309,59.6344808082,verb_norming_oral_input,001,800,
KNATA,,,0,69,69,120,,,,,,,,,,,,,,,,,,,2018_Sep_07_1309,59.6344808082,verb_norming_oral_input,001,800,
HALKA,Arm,arm,0,70,70,109,0,0,0,0,,,,,,,,,,,1,1.87,,,2018_Sep_07_1309,59.6344808082,verb_norming_oral_input,001,800,
HALKA,Ben,ben,0,70,70,109,0,1,1,1,,,,,,,,,,,7,0.699,,,2018_Sep_07_1309,59.6344808082,verb_norming_oral_input,001,800,
HALKA,,,0,70,70,109,,,,,,,,,,,,,,,,,,,2018_Sep_07_1309,59.6344808082,verb_norming_oral_input,001,800,
VADA,Arm,arm,0,71,71,165,0,0,0,0,,,,,,,,,,,1,1.634,,,2018_Sep_07_1309,59.6344808082,verb_norming_oral_input,001,800,
VADA,Ben,ben,0,71,71,165,0,1,1,1,,,,,,,,,,,7,0.432,,,2018_Sep_07_1309,59.6344808082,verb_norming_oral_input,001,800,
VADA,,,0,71,71,165,,,,,,,,,,,,,,,,,,,2018_Sep_07_1309,59.6344808082,verb_norming_oral_input,001,800,
SKOPA,Arm,arm,0,72,72,73,0,0,0,0,,,,,,,,,,,7,2.391,,,2018_Sep_07_1309,59.6344808082,verb_norming_oral_input,001,800,
SKOPA,Ben,ben,0,72,72,73,0,1,1,1,,,,,,,,,,,1,1.353,,,2018_Sep_07_1309,59.6344808082,verb_norming_oral_input,001,800,
SKOPA,,,0,72,72,73,,,,,,,,,,,,,,,,,,,2018_Sep_07_1309,59.6344808082,verb_norming_oral_input,001,800,
SKRIDA,Arm,arm,0,73,73,136,0,0,0,0,,,,,,,,,,,1,2.021,,,2018_Sep_07_1309,59.6344808082,verb_norming_oral_input,001,800,
SKRIDA,Ben,ben,0,73,73,136,0,1,1,1,,,,,,,,,,,7,0.95,,,2018_Sep_07_1309,59.6344808082,verb_norming_oral_input,001,800,
SKRIDA,,,0,73,73,136,,,,,,,,,,,,,,,,,,,2018_Sep_07_1309,59.6344808082,verb_norming_oral_input,001,800,
SNO,Arm,arm,0,74,74,87,0,0,0,0,,,,,,,,,,,7,2.072,,,2018_Sep_07_1309,59.6344808082,verb_norming_oral_input,001,800,
SNO,Ben,ben,0,74,74,87,0,1,1,1,,,,,,,,,,,1,2.864,,,2018_Sep_07_1309,59.6344808082,verb_norming_oral_input,001,800,
SNO,,,0,74,74,87,,,,,,,,,,,,,,,,,,,2018_Sep_07_1309,59.6344808082,verb_norming_oral_input,001,800,
JOGGA,Arm,arm,0,75,75,114,0,0,0,0,,,,,,,,,,,1,2.909,,,2018_Sep_07_1309,59.6344808082,verb_norming_oral_input,001,800,
JOGGA,Ben,ben,0,75,75,114,0,1,1,1,,,,,,,,,,,7,0.984,,,2018_Sep_07_1309,59.6344808082,verb_norming_oral_input,001,800,
JOGGA,,,0,75,75,114,,,,,,,,,,,,,,,,,,,2018_Sep_07_1309,59.6344808082,verb_norming_oral_input,001,800,
BADDA,Arm,arm,0,76,76,0,0,0,0,0,,,,,,,,,,,7,2.289,,,2018_Sep_07_1309,59.6344808082,verb_norming_oral_input,001,800,
BADDA,Ben,ben,0,76,76,0,0,1,1,1,,,,,,,,,,,1,1.384,,,2018_Sep_07_1309,59.6344808082,verb_norming_oral_input,001,800,
BADDA,,,0,76,76,0,,,,,,,,,,,,,,,,,,,2018_Sep_07_1309,59.6344808082,verb_norming_oral_input,001,800,
STÖTA,Arm,arm,0,77,77,89,0,0,0,0,,,,,,,,,,,5,21.66,,,2018_Sep_07_1309,59.6344808082,verb_norming_oral_input,001,800,
STÖTA,Ben,ben,0,77,77,89,0,1,1,1,,,,,,,,,,,2,2.393,,,2018_Sep_07_1309,59.6344808082,verb_norming_oral_input,001,800,
STÖTA,,,0,77,77,89,,,,,,,,,,,,,,,,,,,2018_Sep_07_1309,59.6344808082,verb_norming_oral_input,001,800,
SLÅ,Arm,arm,0,78,78,79,0,0,0,0,,,,,,,,,,,7,2.221,,,2018_Sep_07_1309,59.6344808082,verb_norming_oral_input,001,800,
SLÅ,Ben,ben,0,78,78,79,0,1,1,1,,,,,,,,,,,1,1.252,,,2018_Sep_07_1309,59.6344808082,verb_norming_oral_input,001,800,
SLÅ,,,0,78,78,79,,,,,,,,,,,,,,,,,,,2018_Sep_07_1309,59.6344808082,verb_norming_oral_input,001,800,
SKEJTA,Arm,arm,0,79,79,135,0,0,0,0,,,,,,,,,,,1,2.153,,,2018_Sep_07_1309,59.6344808082,verb_norming_oral_input,001,800,
SKEJTA,Ben,ben,0,79,79,135,0,1,1,1,,,,,,,,,,,7,0.531,,,2018_Sep_07_1309,59.6344808082,verb_norming_oral_input,001,800,
SKEJTA,,,0,79,79,135,,,,,,,,,,,,,,,,,,,2018_Sep_07_1309,59.6344808082,verb_norming_oral_input,001,800,
FLY,Arm,arm,0,80,80,105,0,0,0,0,,,,,,,,,,,1,3.446,,,2018_Sep_07_1309,59.6344808082,verb_norming_oral_input,001,800,
FLY,Ben,ben,0,80,80,105,0,1,1,1,,,,,,,,,,,7,0.933,,,2018_Sep_07_1309,59.6344808082,verb_norming_oral_input,001,800,
FLY,,,0,80,80,105,,,,,,,,,,,,,,,,,,,2018_Sep_07_1309,59.6344808082,verb_norming_oral_input,001,800,
FATTA,Arm,arm,0,81,81,9,0,0,0,0,,,,,,,,,,,5,15.639,,,2018_Sep_07_1309,59.6344808082,verb_norming_oral_input,001,800,
FATTA,Ben,ben,0,81,81,9,0,1,1,1,,,,,,,,,,,1,1.839,,,2018_Sep_07_1309,59.6344808082,verb_norming_oral_input,001,800,
FATTA,,,0,81,81,9,,,,,,,,,,,,,,,,,,,2018_Sep_07_1309,59.6344808082,verb_norming_oral_input,001,800,
TASSA,Arm,arm,0,82,82,159,0,0,0,0,,,,,,,,,,,1,1.784,,,2018_Sep_07_1309,59.6344808082,verb_norming_oral_input,001,800,
TASSA,Ben,ben,0,82,82,159,0,1,1,1,,,,,,,,,,,7,0.649,,,2018_Sep_07_1309,59.6344808082,verb_norming_oral_input,001,800,
TASSA,,,0,82,82,159,,,,,,,,,,,,,,,,,,,2018_Sep_07_1309,59.6344808082,verb_norming_oral_input,001,800,
GÅ,Arm,arm,0,83,83,106,0,0,0,0,,,,,,,,,,,1,1.567,,,2018_Sep_07_1309,59.6344808082,verb_norming_oral_input,001,800,
GÅ,Ben,ben,0,83,83,106,0,1,1,1,,,,,,,,,,,7,1.085,,,2018_Sep_07_1309,59.6344808082,verb_norming_oral_input,001,800,
GÅ,,,0,83,83,106,,,,,,,,,,,,,,,,,,,2018_Sep_07_1309,59.6344808082,verb_norming_oral_input,001,800,
TRASKA,Arm,arm,0,84,84,162,0,0,0,0,,,,,,,,,,,1,1.702,,,2018_Sep_07_1309,59.6344808082,verb_norming_oral_input,001,800,
TRASKA,Ben,ben,0,84,84,162,0,1,1,1,,,,,,,,,,,7,0.867,,,2018_Sep_07_1309,59.6344808082,verb_norming_oral_input,001,800,
TRASKA,,,0,84,84,162,,,,,,,,,,,,,,,,,,,2018_Sep_07_1309,59.6344808082,verb_norming_oral_input,001,800,
SNÄRTA,Arm,arm,0,85,85,86,0,0,0,0,,,,,,,,,,,7,2.205,,,2018_Sep_07_1309,59.6344808082,verb_norming_oral_input,001,800,
SNÄRTA,Ben,ben,0,85,85,86,0,1,1,1,,,,,,,,,,,1,0.665,,,2018_Sep_07_1309,59.6344808082,verb_norming_oral_input,001,800,
SNÄRTA,,,0,85,85,86,,,,,,,,,,,,,,,,,,,2018_Sep_07_1309,59.6344808082,verb_norming_oral_input,001,800,
KNÄA,Arm,arm,0,86,86,118,0,0,0,0,,,,,,,,,,,1,3.145,,,2018_Sep_07_1309,59.6344808082,verb_norming_oral_input,001,800,
KNÄA,Ben,ben,0,86,86,118,0,1,1,1,,,,,,,,,,,7,0.717,,,2018_Sep_07_1309,59.6344808082,verb_norming_oral_input,001,800,
KNÄA,,,0,86,86,118,,,,,,,,,,,,,,,,,,,2018_Sep_07_1309,59.6344808082,verb_norming_oral_input,001,800,
SKYFFLA,Arm,arm,0,87,87,78,0,0,0,0,,,,,,,,,,,7,1.985,,,2018_Sep_07_1309,59.6344808082,verb_norming_oral_input,001,800,
SKYFFLA,Ben,ben,0,87,87,78,0,1,1,1,,,,,,,,,,,1,0.663,,,2018_Sep_07_1309,59.6344808082,verb_norming_oral_input,001,800,
SKYFFLA,,,0,87,87,78,,,,,,,,,,,,,,,,,,,2018_Sep_07_1309,59.6344808082,verb_norming_oral_input,001,800,
KLÅ,Arm,arm,0,88,88,29,0,0,0,0,,,,,,,,,,,7,3.144,,,2018_Sep_07_1309,59.6344808082,verb_norming_oral_input,001,800,
KLÅ,Ben,ben,0,88,88,29,0,1,1,1,,,,,,,,,,,1,1.705,,,2018_Sep_07_1309,59.6344808082,verb_norming_oral_input,001,800,
KLÅ,,,0,88,88,29,,,,,,,,,,,,,,,,,,,2018_Sep_07_1309,59.6344808082,verb_norming_oral_input,001,800,
SPRINTA,Arm,arm,0,89,89,146,0,0,0,0,,,,,,,,,,,1,1.668,,,2018_Sep_07_1309,59.6344808082,verb_norming_oral_input,001,800,
SPRINTA,Ben,ben,0,89,89,146,0,1,1,1,,,,,,,,,,,7,0.615,,,2018_Sep_07_1309,59.6344808082,verb_norming_oral_input,001,800,
SPRINTA,,,0,89,89,146,,,,,,,,,,,,,,,,,,,2018_Sep_07_1309,59.6344808082,verb_norming_oral_input,001,800,
BORSTA,Arm,arm,0,90,90,3,0,0,0,0,,,,,,,,,,,7,1.954,,,2018_Sep_07_1309,59.6344808082,verb_norming_oral_input,001,800,
BORSTA,Ben,ben,0,90,90,3,0,1,1,1,,,,,,,,,,,1,0.547,,,2018_Sep_07_1309,59.6344808082,verb_norming_oral_input,001,800,
BORSTA,,,0,90,90,3,,,,,,,,,,,,,,,,,,,2018_Sep_07_1309,59.6344808082,verb_norming_oral_input,001,800,
TVINNA,Arm,arm,0,91,91,97,0,0,0,0,,,,,,,,,,,7,1.652,,,2018_Sep_07_1309,59.6344808082,verb_norming_oral_input,001,800,
TVINNA,Ben,ben,0,91,91,97,0,1,1,1,,,,,,,,,,,1,0.649,,,2018_Sep_07_1309,59.6344808082,verb_norming_oral_input,001,800,
TVINNA,,,0,91,91,97,,,,,,,,,,,,,,,,,,,2018_Sep_07_1309,59.6344808082,verb_norming_oral_input,001,800,
SIGNERA,Arm,arm,0,92,92,68,0,0,0,0,,,,,,,,,,,7,1.399,,,2018_Sep_07_1309,59.6344808082,verb_norming_oral_input,001,800,
SIGNERA,Ben,ben,0,92,92,68,0,1,1,1,,,,,,,,,,,1,0.497,,,2018_Sep_07_1309,59.6344808082,verb_norming_oral_input,001,800,
SIGNERA,,,0,92,92,68,,,,,,,,,,,,,,,,,,,2018_Sep_07_1309,59.6344808082,verb_norming_oral_input,001,800,
DRA,Arm,arm,0,93,93,6,0,0,0,0,,,,,,,,,,,7,2.123,,,2018_Sep_07_1309,59.6344808082,verb_norming_oral_input,001,800,
DRA,Ben,ben,0,93,93,6,0,1,1,1,,,,,,,,,,,1,1.252,,,2018_Sep_07_1309,59.6344808082,verb_norming_oral_input,001,800,
DRA,,,0,93,93,6,,,,,,,,,,,,,,,,,,,2018_Sep_07_1309,59.6344808082,verb_norming_oral_input,001,800,
SKRAPA,Arm,arm,0,94,94,74,0,0,0,0,,,,,,,,,,,7,1.333,,,2018_Sep_07_1309,59.6344808082,verb_norming_oral_input,001,800,
SKRAPA,Ben,ben,0,94,94,74,0,1,1,1,,,,,,,,,,,1,0.933,,,2018_Sep_07_1309,59.6344808082,verb_norming_oral_input,001,800,
SKRAPA,,,0,94,94,74,,,,,,,,,,,,,,,,,,,2018_Sep_07_1309,59.6344808082,verb_norming_oral_input,001,800,
KLÄTTRA,Arm,arm,0,95,95,116,0,0,0,0,,,,,,,,,,,7,8.964,,,2018_Sep_07_1309,59.6344808082,verb_norming_oral_input,001,800,
KLÄTTRA,Ben,ben,0,95,95,116,0,1,1,1,,,,,,,,,,,5,6.199,,,2018_Sep_07_1309,59.6344808082,verb_norming_oral_input,001,800,
KLÄTTRA,,,0,95,95,116,,,,,,,,,,,,,,,,,,,2018_Sep_07_1309,59.6344808082,verb_norming_oral_input,001,800,
STIGA,Arm,arm,0,96,96,151,0,0,0,0,,,,,,,,,,,1,1.971,,,2018_Sep_07_1309,59.6344808082,verb_norming_oral_input,001,800,
STIGA,Ben,ben,0,96,96,151,0,1,1,1,,,,,,,,,,,7,1.706,,,2018_Sep_07_1309,59.6344808082,verb_norming_oral_input,001,800,
STIGA,,,0,96,96,151,,,,,,,,,,,,,,,,,,,2018_Sep_07_1309,59.6344808082,verb_norming_oral_input,001,800,
ÅLA,Arm,arm,0,97,97,100,0,0,0,0,,,,,,,,,,,5,9.819,,,2018_Sep_07_1309,59.6344808082,verb_norming_oral_input,001,800,
ÅLA,Ben,ben,0,97,97,100,0,1,1,1,,,,,,,,,,,5,1.067,,,2018_Sep_07_1309,59.6344808082,verb_norming_oral_input,001,800,
ÅLA,,,0,97,97,100,,,,,,,,,,,,,,,,,,,2018_Sep_07_1309,59.6344808082,verb_norming_oral_input,001,800,
PILLA,Arm,arm,0,98,98,51,0,0,0,0,,,,,,,,,,,7,2.205,,,2018_Sep_07_1309,59.6344808082,verb_norming_oral_input,001,800,
PILLA,Ben,ben,0,98,98,51,0,1,1,1,,,,,,,,,,,1,1.085,,,2018_Sep_07_1309,59.6344808082,verb_norming_oral_input,001,800,
PILLA,,,0,98,98,51,,,,,,,,,,,,,,,,,,,2018_Sep_07_1309,59.6344808082,verb_norming_oral_input,001,800,
VIRA,Arm,arm,0,99,99,99,0,0,0,0,,,,,,,,,,,7,1.451,,,2018_Sep_07_1309,59.6344808082,verb_norming_oral_input,001,800,
VIRA,Ben,ben,0,99,99,99,0,1,1,1,,,,,,,,,,,1,2.511,,,2018_Sep_07_1309,59.6344808082,verb_norming_oral_input,001,800,
VIRA,,,0,99,99,99,,,,,,,,,,,,,,,,,,,2018_Sep_07_1309,59.6344808082,verb_norming_oral_input,001,800,
SKALA,Arm,arm,0,100,100,70,0,0,0,0,,,,,,,,,,,7,4.788,,,2018_Sep_07_1309,59.6344808082,verb_norming_oral_input,001,800,
SKALA,Ben,ben,0,100,100,70,0,1,1,1,,,,,,,,,,,1,1.437,,,2018_Sep_07_1309,59.6344808082,verb_norming_oral_input,001,800,
SKALA,,,0,100,100,70,,,,,,,,,,,,,,,,,,,2018_Sep_07_1309,59.6344808082,verb_norming_oral_input,001,800,
SMYGA,Arm,arm,0,101,101,141,0,0,0,0,,,,,,,,,,,1,2.874,,,2018_Sep_07_1309,59.6344808082,verb_norming_oral_input,001,800,
SMYGA,Ben,ben,0,101,101,141,0,1,1,1,,,,,,,,,,,7,1.503,,,2018_Sep_07_1309,59.6344808082,verb_norming_oral_input,001,800,
SMYGA,,,0,101,101,141,,,,,,,,,,,,,,,,,,,2018_Sep_07_1309,59.6344808082,verb_norming_oral_input,001,800,
KASTA,Arm,arm,0,102,102,27,0,0,0,0,,,,,,,,,,,7,1.3,,,2018_Sep_07_1309,59.6344808082,verb_norming_oral_input,001,800,
KASTA,Ben,ben,0,102,102,27,0,1,1,1,,,,,,,,,,,1,0.532,,,2018_Sep_07_1309,59.6344808082,verb_norming_oral_input,001,800,
KASTA,,,0,102,102,27,,,,,,,,,,,,,,,,,,,2018_Sep_07_1309,59.6344808082,verb_norming_oral_input,001,800,
KRATSA,Arm,arm,0,103,103,42,0,0,0,0,,,,,,,,,,,7,14.197,,,2018_Sep_07_1309,59.6344808082,verb_norming_oral_input,001,800,
KRATSA,Ben,ben,0,103,103,42,0,1,1,1,,,,,,,,,,,1,2.207,,,2018_Sep_07_1309,59.6344808082,verb_norming_oral_input,001,800,
KRATSA,,,0,103,103,42,,,,,,,,,,,,,,,,,,,2018_Sep_07_1309,59.6344808082,verb_norming_oral_input,001,800,
SVABBA,Arm,arm,0,104,104,90,0,0,0,0,,,,,,,,,,,7,1.954,,,2018_Sep_07_1309,59.6344808082,verb_norming_oral_input,001,800,
SVABBA,Ben,ben,0,104,104,90,0,1,1,1,,,,,,,,,,,1,1.15,,,2018_Sep_07_1309,59.6344808082,verb_norming_oral_input,001,800,
SVABBA,,,0,104,104,90,,,,,,,,,,,,,,,,,,,2018_Sep_07_1309,59.6344808082,verb_norming_oral_input,001,800,
TA,Arm,arm,0,105,105,92,0,0,0,0,,,,,,,,,,,7,1.973,,,2018_Sep_07_1309,59.6344808082,verb_norming_oral_input,001,800,
TA,Ben,ben,0,105,105,92,0,1,1,1,,,,,,,,,,,1,0.751,,,2018_Sep_07_1309,59.6344808082,verb_norming_oral_input,001,800,
TA,,,0,105,105,92,,,,,,,,,,,,,,,,,,,2018_Sep_07_1309,59.6344808082,verb_norming_oral_input,001,800,
LYFTA,Arm,arm,0,106,106,44,0,0,0,0,,,,,,,,,,,7,6.833,,,2018_Sep_07_1309,59.6344808082,verb_norming_oral_input,001,800,
LYFTA,Ben,ben,0,106,106,44,0,1,1,1,,,,,,,,,,,5,4.269,,,2018_Sep_07_1309,59.6344808082,verb_norming_oral_input,001,800,
LYFTA,,,0,106,106,44,,,,,,,,,,,,,,,,,,,2018_Sep_07_1309,59.6344808082,verb_norming_oral_input,001,800,
VIKA,Arm,arm,0,107,107,98,0,0,0,0,,,,,,,,,,,7,1.971,,,2018_Sep_07_1309,59.6344808082,verb_norming_oral_input,001,800,
VIKA,Ben,ben,0,107,107,98,0,1,1,1,,,,,,,,,,,1,1.136,,,2018_Sep_07_1309,59.6344808082,verb_norming_oral_input,001,800,
VIKA,,,0,107,107,98,,,,,,,,,,,,,,,,,,,2018_Sep_07_1309,59.6344808082,verb_norming_oral_input,001,800,
SKAKA,Arm,arm,0,108,108,69,0,0,0,0,,,,,,,,,,,7,3.849,,,2018_Sep_07_1309,59.6344808082,verb_norming_oral_input,001,800,
SKAKA,Ben,ben,0,108,108,69,0,1,1,1,,,,,,,,,,,3,1.471,,,2018_Sep_07_1309,59.6344808082,verb_norming_oral_input,001,800,
SKAKA,,,0,108,108,69,,,,,,,,,,,,,,,,,,,2018_Sep_07_1309,59.6344808082,verb_norming_oral_input,001,800,
STÄDA,Arm,arm,0,109,109,88,0,0,0,0,,,,,,,,,,,7,2.088,,,2018_Sep_07_1309,59.6344808082,verb_norming_oral_input,001,800,
STÄDA,Ben,ben,0,109,109,88,0,1,1,1,,,,,,,,,,,1,2.092,,,2018_Sep_07_1309,59.6344808082,verb_norming_oral_input,001,800,
STÄDA,,,0,109,109,88,,,,,,,,,,,,,,,,,,,2018_Sep_07_1309,59.6344808082,verb_norming_oral_input,001,800,
GRÄVA,Arm,arm,0,110,110,17,0,0,0,0,,,,,,,,,,,7,1.971,,,2018_Sep_07_1309,59.6344808082,verb_norming_oral_input,001,800,
GRÄVA,Ben,ben,0,110,110,17,0,1,1,1,,,,,,,,,,,1,0.766,,,2018_Sep_07_1309,59.6344808082,verb_norming_oral_input,001,800,
GRÄVA,,,0,110,110,17,,,,,,,,,,,,,,,,,,,2018_Sep_07_1309,59.6344808082,verb_norming_oral_input,001,800,
VACKLA,Arm,arm,0,111,111,164,0,0,0,0,,,,,,,,,,,1,2.707,,,2018_Sep_07_1309,59.6344808082,verb_norming_oral_input,001,800,
VACKLA,Ben,ben,0,111,111,164,0,1,1,1,,,,,,,,,,,7,0.949,,,2018_Sep_07_1309,59.6344808082,verb_norming_oral_input,001,800,
VACKLA,,,0,111,111,164,,,,,,,,,,,,,,,,,,,2018_Sep_07_1309,59.6344808082,verb_norming_oral_input,001,800,
KLÖSA,Arm,arm,0,112,112,35,0,0,0,0,,,,,,,,,,,7,1.417,,,2018_Sep_07_1309,59.6344808082,verb_norming_oral_input,001,800,
KLÖSA,Ben,ben,0,112,112,35,0,1,1,1,,,,,,,,,,,1,0.632,,,2018_Sep_07_1309,59.6344808082,verb_norming_oral_input,001,800,
KLÖSA,,,0,112,112,35,,,,,,,,,,,,,,,,,,,2018_Sep_07_1309,59.6344808082,verb_norming_oral_input,001,800,
BINDA,Arm,arm,0,113,113,2,0,0,0,0,,,,,,,,,,,7,1.4,,,2018_Sep_07_1309,59.6344808082,verb_norming_oral_input,001,800,
BINDA,Ben,ben,0,113,113,2,0,1,1,1,,,,,,,,,,,1,0.565,,,2018_Sep_07_1309,59.6344808082,verb_norming_oral_input,001,800,
BINDA,,,0,113,113,2,,,,,,,,,,,,,,,,,,,2018_Sep_07_1309,59.6344808082,verb_norming_oral_input,001,800,
SVEPA,Arm,arm,0,114,114,91,0,0,0,0,,,,,,,,,,,7,3.866,,,2018_Sep_07_1309,59.6344808082,verb_norming_oral_input,001,800,
SVEPA,Ben,ben,0,114,114,91,0,1,1,1,,,,,,,,,,,1,1.052,,,2018_Sep_07_1309,59.6344808082,verb_norming_oral_input,001,800,
SVEPA,,,0,114,114,91,,,,,,,,,,,,,,,,,,,2018_Sep_07_1309,59.6344808082,verb_norming_oral_input,001,800,
TORKA,Arm,arm,0,115,115,93,0,0,0,0,,,,,,,,,,,7,1.199,,,2018_Sep_07_1309,59.6344808082,verb_norming_oral_input,001,800,
TORKA,Ben,ben,0,115,115,93,0,1,1,1,,,,,,,,,,,1,0.498,,,2018_Sep_07_1309,59.6344808082,verb_norming_oral_input,001,800,
TORKA,,,0,115,115,93,,,,,,,,,,,,,,,,,,,2018_Sep_07_1309,59.6344808082,verb_norming_oral_input,001,800,
HÅVA,Arm,arm,0,116,116,22,0,0,0,0,,,,,,,,,,,7,1.397,,,2018_Sep_07_1309,59.6344808082,verb_norming_oral_input,001,800,
HÅVA,Ben,ben,0,116,116,22,0,1,1,1,,,,,,,,,,,1,0.665,,,2018_Sep_07_1309,59.6344808082,verb_norming_oral_input,001,800,
HÅVA,,,0,116,116,22,,,,,,,,,,,,,,,,,,,2018_Sep_07_1309,59.6344808082,verb_norming_oral_input,001,800,
SLIPA,Arm,arm,0,117,117,81,0,0,0,0,,,,,,,,,,,7,1.199,,,2018_Sep_07_1309,59.6344808082,verb_norming_oral_input,001,800,
SLIPA,Ben,ben,0,117,117,81,0,1,1,1,,,,,,,,,,,1,0.683,,,2018_Sep_07_1309,59.6344808082,verb_norming_oral_input,001,800,
SLIPA,,,0,117,117,81,,,,,,,,,,,,,,,,,,,2018_Sep_07_1309,59.6344808082,verb_norming_oral_input,001,800,
SKÄRA,Arm,arm,0,118,118,71,0,0,0,0,,,,,,,,,,,7,1.434,,,2018_Sep_07_1309,59.6344808082,verb_norming_oral_input,001,800,
SKÄRA,Ben,ben,0,118,118,71,0,1,1,1,,,,,,,,,,,1,0.498,,,2018_Sep_07_1309,59.6344808082,verb_norming_oral_input,001,800,
SKÄRA,,,0,118,118,71,,,,,,,,,,,,,,,,,,,2018_Sep_07_1309,59.6344808082,verb_norming_oral_input,001,800,
KNYCKA,Arm,arm,0,119,119,39,0,0,0,0,,,,,,,,,,,7,1.466,,,2018_Sep_07_1309,59.6344808082,verb_norming_oral_input,001,800,
KNYCKA,Ben,ben,0,119,119,39,0,1,1,1,,,,,,,,,,,1,0.58,,,2018_Sep_07_1309,59.6344808082,verb_norming_oral_input,001,800,
KNYCKA,,,0,119,119,39,,,,,,,,,,,,,,,,,,,2018_Sep_07_1309,59.6344808082,verb_norming_oral_input,001,800,
DASKA,Arm,arm,0,120,120,5,0,0,0,0,,,,,,,,,,,7,1.266,,,2018_Sep_07_1309,59.6344808082,verb_norming_oral_input,001,800,
DASKA,Ben,ben,0,120,120,5,0,1,1,1,,,,,,,,,,,1,0.598,,,2018_Sep_07_1309,59.6344808082,verb_norming_oral_input,001,800,
DASKA,,,0,120,120,5,,,,,,,,,,,,,,,,,,,2018_Sep_07_1309,59.6344808082,verb_norming_oral_input,001,800,
KNIVHUGGA,Arm,arm,0,121,121,38,0,0,0,0,,,,,,,,,,,7,1.315,,,2018_Sep_07_1309,59.6344808082,verb_norming_oral_input,001,800,
KNIVHUGGA,Ben,ben,0,121,121,38,0,1,1,1,,,,,,,,,,,1,0.529,,,2018_Sep_07_1309,59.6344808082,verb_norming_oral_input,001,800,
KNIVHUGGA,,,0,121,121,38,,,,,,,,,,,,,,,,,,,2018_Sep_07_1309,59.6344808082,verb_norming_oral_input,001,800,
FÖSA,Arm,arm,0,122,122,12,0,0,0,0,,,,,,,,,,,7,1.972,,,2018_Sep_07_1309,59.6344808082,verb_norming_oral_input,001,800,
FÖSA,Ben,ben,0,122,122,12,0,1,1,1,,,,,,,,,,,1,0.582,,,2018_Sep_07_1309,59.6344808082,verb_norming_oral_input,001,800,
FÖSA,,,0,122,122,12,,,,,,,,,,,,,,,,,,,2018_Sep_07_1309,59.6344808082,verb_norming_oral_input,001,800,
STAPPLA,Arm,arm,0,123,123,149,0,0,0,0,,,,,,,,,,,1,1.785,,,2018_Sep_07_1309,59.6344808082,verb_norming_oral_input,001,800,
STAPPLA,Ben,ben,0,123,123,149,0,1,1,1,,,,,,,,,,,7,0.698,,,2018_Sep_07_1309,59.6344808082,verb_norming_oral_input,001,800,
STAPPLA,,,0,123,123,149,,,,,,,,,,,,,,,,,,,2018_Sep_07_1309,59.6344808082,verb_norming_oral_input,001,800,
KNOGA,Arm,arm,0,124,124,121,0,0,0,0,,,,,,,,,,,1,7.656,,,2018_Sep_07_1309,59.6344808082,verb_norming_oral_input,001,800,
KNOGA,Ben,ben,0,124,124,121,0,1,1,1,,,,,,,,,,,6,4.406,,,2018_Sep_07_1309,59.6344808082,verb_norming_oral_input,001,800,
KNOGA,,,0,124,124,121,,,,,,,,,,,,,,,,,,,2018_Sep_07_1309,59.6344808082,verb_norming_oral_input,001,800,
TÅGA,Arm,arm,0,125,125,158,0,0,0,0,,,,,,,,,,,1,2.02,,,2018_Sep_07_1309,59.6344808082,verb_norming_oral_input,001,800,
TÅGA,Ben,ben,0,125,125,158,0,1,1,1,,,,,,,,,,,7,0.966,,,2018_Sep_07_1309,59.6344808082,verb_norming_oral_input,001,800,
TÅGA,,,0,125,125,158,,,,,,,,,,,,,,,,,,,2018_Sep_07_1309,59.6344808082,verb_norming_oral_input,001,800,
FLACKA,Arm,arm,0,126,126,103,0,0,0,0,,,,,,,,,,,1,3.529,,,2018_Sep_07_1309,59.6344808082,verb_norming_oral_input,001,800,
FLACKA,Ben,ben,0,126,126,103,0,1,1,1,,,,,,,,,,,7,1.318,,,2018_Sep_07_1309,59.6344808082,verb_norming_oral_input,001,800,
FLACKA,,,0,126,126,103,,,,,,,,,,,,,,,,,,,2018_Sep_07_1309,59.6344808082,verb_norming_oral_input,001,800,
PUTSA,Arm,arm,0,127,127,56,0,0,0,0,,,,,,,,,,,7,1.569,,,2018_Sep_07_1309,59.6344808082,verb_norming_oral_input,001,800,
PUTSA,Ben,ben,0,127,127,56,0,1,1,1,,,,,,,,,,,1,0.598,,,2018_Sep_07_1309,59.6344808082,verb_norming_oral_input,001,800,
PUTSA,,,0,127,127,56,,,,,,,,,,,,,,,,,,,2018_Sep_07_1309,59.6344808082,verb_norming_oral_input,001,800,
GRIPA,Arm,arm,0,128,128,19,0,0,0,0,,,,,,,,,,,7,1.619,,,2018_Sep_07_1309,59.6344808082,verb_norming_oral_input,001,800,
GRIPA,Ben,ben,0,128,128,19,0,1,1,1,,,,,,,,,,,1,0.616,,,2018_Sep_07_1309,59.6344808082,verb_norming_oral_input,001,800,
GRIPA,,,0,128,128,19,,,,,,,,,,,,,,,,,,,2018_Sep_07_1309,59.6344808082,verb_norming_oral_input,001,800,
TRAMPA,Arm,arm,0,129,129,161,0,0,0,0,,,,,,,,,,,1,1.483,,,2018_Sep_07_1309,59.6344808082,verb_norming_oral_input,001,800,
TRAMPA,Ben,ben,0,129,129,161,0,1,1,1,,,,,,,,,,,7,0.581,,,2018_Sep_07_1309,59.6344808082,verb_norming_oral_input,001,800,
TRAMPA,,,0,129,129,161,,,,,,,,,,,,,,,,,,,2018_Sep_07_1309,59.6344808082,verb_norming_oral_input,001,800,
CYKLA,Arm,arm,0,130,130,101,0,0,0,0,,,,,,,,,,,1,1.801,,,2018_Sep_07_1309,59.6344808082,verb_norming_oral_input,001,800,
CYKLA,Ben,ben,0,130,130,101,0,1,1,1,,,,,,,,,,,7,0.497,,,2018_Sep_07_1309,59.6344808082,verb_norming_oral_input,001,800,
CYKLA,,,0,130,130,101,,,,,,,,,,,,,,,,,,,2018_Sep_07_1309,59.6344808082,verb_norming_oral_input,001,800,
LINDA,Arm,arm,0,131,131,43,0,0,0,0,,,,,,,,,,,7,1.367,,,2018_Sep_07_1309,59.6344808082,verb_norming_oral_input,001,800,
LINDA,Ben,ben,0,131,131,43,0,1,1,1,,,,,,,,,,,1,0.615,,,2018_Sep_07_1309,59.6344808082,verb_norming_oral_input,001,800,
LINDA,,,0,131,131,43,,,,,,,,,,,,,,,,,,,2018_Sep_07_1309,59.6344808082,verb_norming_oral_input,001,800,
KLIPPA,Arm,arm,0,132,132,34,0,0,0,0,,,,,,,,,,,7,1.987,,,2018_Sep_07_1309,59.6344808082,verb_norming_oral_input,001,800,
KLIPPA,Ben,ben,0,132,132,34,0,1,1,1,,,,,,,,,,,1,0.414,,,2018_Sep_07_1309,59.6344808082,verb_norming_oral_input,001,800,
KLIPPA,,,0,132,132,34,,,,,,,,,,,,,,,,,,,2018_Sep_07_1309,59.6344808082,verb_norming_oral_input,001,800,
HACKA,Arm,arm,0,133,133,20,0,0,0,0,,,,,,,,,,,7,1.146,,,2018_Sep_07_1309,59.6344808082,verb_norming_oral_input,001,800,
HACKA,Ben,ben,0,133,133,20,0,1,1,1,,,,,,,,,,,1,0.479,,,2018_Sep_07_1309,59.6344808082,verb_norming_oral_input,001,800,
HACKA,,,0,133,133,20,,,,,,,,,,,,,,,,,,,2018_Sep_07_1309,59.6344808082,verb_norming_oral_input,001,800,
GLIDA,Arm,arm,0,134,134,107,0,0,0,0,,,,,,,,,,,1,1.35,,,2018_Sep_07_1309,59.6344808082,verb_norming_oral_input,001,800,
GLIDA,Ben,ben,0,134,134,107,0,1,1,1,,,,,,,,,,,7,0.481,,,2018_Sep_07_1309,59.6344808082,verb_norming_oral_input,001,800,
GLIDA,,,0,134,134,107,,,,,,,,,,,,,,,,,,,2018_Sep_07_1309,59.6344808082,verb_norming_oral_input,001,800,
KNACKA,Arm,arm,0,135,135,36,0,0,0,0,,,,,,,,,,,7,1.684,,,2018_Sep_07_1309,59.6344808082,verb_norming_oral_input,001,800,
KNACKA,Ben,ben,0,135,135,36,0,1,1,1,,,,,,,,,,,1,0.529,,,2018_Sep_07_1309,59.6344808082,verb_norming_oral_input,001,800,
KNACKA,,,0,135,135,36,,,,,,,,,,,,,,,,,,,2018_Sep_07_1309,59.6344808082,verb_norming_oral_input,001,800,
GUPPA,Arm,arm,0,136,136,108,0,0,0,0,,,,,,,,,,,1,12.151,,,2018_Sep_07_1309,59.6344808082,verb_norming_oral_input,001,800,
GUPPA,Ben,ben,0,136,136,108,0,1,1,1,,,,,,,,,,,1,1.135,,,2018_Sep_07_1309,59.6344808082,verb_norming_oral_input,001,800,
GUPPA,,,0,136,136,108,,,,,,,,,,,,,,,,,,,2018_Sep_07_1309,59.6344808082,verb_norming_oral_input,001,800,
KNALLA,Arm,arm,0,137,137,119,0,0,0,0,,,,,,,,,,,1,1.819,,,2018_Sep_07_1309,59.6344808082,verb_norming_oral_input,001,800,
KNALLA,Ben,ben,0,137,137,119,0,1,1,1,,,,,,,,,,,7,0.497,,,2018_Sep_07_1309,59.6344808082,verb_norming_oral_input,001,800,
KNALLA,,,0,137,137,119,,,,,,,,,,,,,,,,,,,2018_Sep_07_1309,59.6344808082,verb_norming_oral_input,001,800,
HÖJA,Arm,arm,0,138,138,25,0,0,0,0,,,,,,,,,,,7,6.885,,,2018_Sep_07_1309,59.6344808082,verb_norming_oral_input,001,800,
HÖJA,Ben,ben,0,138,138,25,0,1,1,1,,,,,,,,,,,3,3.398,,,2018_Sep_07_1309,59.6344808082,verb_norming_oral_input,001,800,
HÖJA,,,0,138,138,25,,,,,,,,,,,,,,,,,,,2018_Sep_07_1309,59.6344808082,verb_norming_oral_input,001,800,
HISSA,Arm,arm,0,139,139,23,0,0,0,0,,,,,,,,,,,6,5.795,,,2018_Sep_07_1309,59.6344808082,verb_norming_oral_input,001,800,
HISSA,Ben,ben,0,139,139,23,0,1,1,1,,,,,,,,,,,1,1.923,,,2018_Sep_07_1309,59.6344808082,verb_norming_oral_input,001,800,
HISSA,,,0,139,139,23,,,,,,,,,,,,,,,,,,,2018_Sep_07_1309,59.6344808082,verb_norming_oral_input,001,800,
HAFFA,Arm,arm,0,140,140,21,0,0,0,0,,,,,,,,,,,7,2.206,,,2018_Sep_07_1309,59.6344808082,verb_norming_oral_input,001,800,
HAFFA,Ben,ben,0,140,140,21,0,1,1,1,,,,,,,,,,,1,0.664,,,2018_Sep_07_1309,59.6344808082,verb_norming_oral_input,001,800,
HAFFA,,,0,140,140,21,,,,,,,,,,,,,,,,,,,2018_Sep_07_1309,59.6344808082,verb_norming_oral_input,001,800,
BANKA,Arm,arm,0,141,141,1,0,0,0,0,,,,,,,,,,,7,1.686,,,2018_Sep_07_1309,59.6344808082,verb_norming_oral_input,001,800,
BANKA,Ben,ben,0,141,141,1,0,1,1,1,,,,,,,,,,,1,1.37,,,2018_Sep_07_1309,59.6344808082,verb_norming_oral_input,001,800,
BANKA,,,0,141,141,1,,,,,,,,,,,,,,,,,,,2018_Sep_07_1309,59.6344808082,verb_norming_oral_input,001,800,
PRESSA,Arm,arm,0,142,142,55,0,0,0,0,,,,,,,,,,,7,1.618,,,2018_Sep_07_1309,59.6344808082,verb_norming_oral_input,001,800,
PRESSA,Ben,ben,0,142,142,55,0,1,1,1,,,,,,,,,,,2,3.431,,,2018_Sep_07_1309,59.6344808082,verb_norming_oral_input,001,800,
PRESSA,,,0,142,142,55,,,,,,,,,,,,,,,,,,,2018_Sep_07_1309,59.6344808082,verb_norming_oral_input,001,800,
STÅ,Arm,arm,0,143,143,147,0,0,0,0,,,,,,,,,,,1,1.617,,,2018_Sep_07_1309,59.6344808082,verb_norming_oral_input,001,800,
STÅ,Ben,ben,0,143,143,147,0,1,1,1,,,,,,,,,,,7,1.302,,,2018_Sep_07_1309,59.6344808082,verb_norming_oral_input,001,800,
STÅ,,,0,143,143,147,,,,,,,,,,,,,,,,,,,2018_Sep_07_1309,59.6344808082,verb_norming_oral_input,001,800,
RAFSA,Arm,arm,0,144,144,58,0,0,0,0,,,,,,,,,,,7,1.568,,,2018_Sep_07_1309,59.6344808082,verb_norming_oral_input,001,800,
RAFSA,Ben,ben,0,144,144,58,0,1,1,1,,,,,,,,,,,1,0.8,,,2018_Sep_07_1309,59.6344808082,verb_norming_oral_input,001,800,
RAFSA,,,0,144,144,58,,,,,,,,,,,,,,,,,,,2018_Sep_07_1309,59.6344808082,verb_norming_oral_input,001,800,
KELA,Arm,arm,0,145,145,28,0,0,0,0,,,,,,,,,,,7,2.742,,,2018_Sep_07_1309,59.6344808082,verb_norming_oral_input,001,800,
KELA,Ben,ben,0,145,145,28,0,1,1,1,,,,,,,,,,,1,2.393,,,2018_Sep_07_1309,59.6344808082,verb_norming_oral_input,001,800,
KELA,,,0,145,145,28,,,,,,,,,,,,,,,,,,,2018_Sep_07_1309,59.6344808082,verb_norming_oral_input,001,800,
NAPPA,Arm,arm,0,146,146,45,0,0,0,0,,,,,,,,,,,7,1.384,,,2018_Sep_07_1309,59.6344808082,verb_norming_oral_input,001,800,
NAPPA,Ben,ben,0,146,146,45,0,1,1,1,,,,,,,,,,,1,0.85,,,2018_Sep_07_1309,59.6344808082,verb_norming_oral_input,001,800,
NAPPA,,,0,146,146,45,,,,,,,,,,,,,,,,,,,2018_Sep_07_1309,59.6344808082,verb_norming_oral_input,001,800,
GESTIKULERA,Arm,arm,0,147,147,13,0,0,0,0,,,,,,,,,,,7,1.498,,,2018_Sep_07_1309,59.6344808082,verb_norming_oral_input,001,800,
GESTIKULERA,Ben,ben,0,147,147,13,0,1,1,1,,,,,,,,,,,2,1.703,,,2018_Sep_07_1309,59.6344808082,verb_norming_oral_input,001,800,
GESTIKULERA,,,0,147,147,13,,,,,,,,,,,,,,,,,,,2018_Sep_07_1309,59.6344808082,verb_norming_oral_input,001,800,
REPA,Arm,arm,0,148,148,61,0,0,0,0,,,,,,,,,,,7,1.636,,,2018_Sep_07_1309,59.6344808082,verb_norming_oral_input,001,800,
REPA,Ben,ben,0,148,148,61,0,1,1,1,,,,,,,,,,,1,1.136,,,2018_Sep_07_1309,59.6344808082,verb_norming_oral_input,001,800,
REPA,,,0,148,148,61,,,,,,,,,,,,,,,,,,,2018_Sep_07_1309,59.6344808082,verb_norming_oral_input,001,800,
FILA,Arm,arm,0,149,149,10,0,0,0,0,,,,,,,,,,,7,1.099,,,2018_Sep_07_1309,59.6344808082,verb_norming_oral_input,001,800,
FILA,Ben,ben,0,149,149,10,0,1,1,1,,,,,,,,,,,1,0.616,,,2018_Sep_07_1309,59.6344808082,verb_norming_oral_input,001,800,
FILA,,,0,149,149,10,,,,,,,,,,,,,,,,,,,2018_Sep_07_1309,59.6344808082,verb_norming_oral_input,001,800,
RO,Arm,arm,0,150,150,64,0,0,0,0,,,,,,,,,,,7,2.473,,,2018_Sep_07_1309,59.6344808082,verb_norming_oral_input,001,800,
RO,Ben,ben,0,150,150,64,0,1,1,1,,,,,,,,,,,1,0.567,,,2018_Sep_07_1309,59.6344808082,verb_norming_oral_input,001,800,
RO,,,0,150,150,64,,,,,,,,,,,,,,,,,,,2018_Sep_07_1309,59.6344808082,verb_norming_oral_input,001,800,
STAMPA,Arm,arm,0,151,151,148,0,0,0,0,,,,,,,,,,,1,1.701,,,2018_Sep_07_1309,59.6344808082,verb_norming_oral_input,001,800,
STAMPA,Ben,ben,0,151,151,148,0,1,1,1,,,,,,,,,,,7,0.563,,,2018_Sep_07_1309,59.6344808082,verb_norming_oral_input,001,800,
STAMPA,,,0,151,151,148,,,,,,,,,,,,,,,,,,,2018_Sep_07_1309,59.6344808082,verb_norming_oral_input,001,800,
FLÄTA,Arm,arm,0,152,152,11,0,0,0,0,,,,,,,,,,,7,1.954,,,2018_Sep_07_1309,59.6344808082,verb_norming_oral_input,001,800,
FLÄTA,Ben,ben,0,152,152,11,0,1,1,1,,,,,,,,,,,1,0.498,,,2018_Sep_07_1309,59.6344808082,verb_norming_oral_input,001,800,
FLÄTA,,,0,152,152,11,,,,,,,,,,,,,,,,,,,2018_Sep_07_1309,59.6344808082,verb_norming_oral_input,001,800,
MARSCHERA,Arm,arm,0,153,153,127,0,0,0,0,,,,,,,,,,,1,1.579,,,2018_Sep_07_1309,59.6344808082,verb_norming_oral_input,001,800,
MARSCHERA,Ben,ben,0,153,153,127,0,1,1,1,,,,,,,,,,,7,0.728,,,2018_Sep_07_1309,59.6344808082,verb_norming_oral_input,001,800,
MARSCHERA,,,0,153,153,127,,,,,,,,,,,,,,,,,,,2018_Sep_07_1309,59.6344808082,verb_norming_oral_input,001,800,
SLEVA,Arm,arm,0,154,154,80,0,0,0,0,,,,,,,,,,,7,1.367,,,2018_Sep_07_1309,59.6344808082,verb_norming_oral_input,001,800,
SLEVA,Ben,ben,0,154,154,80,0,1,1,1,,,,,,,,,,,1,0.548,,,2018_Sep_07_1309,59.6344808082,verb_norming_oral_input,001,800,
SLEVA,,,0,154,154,80,,,,,,,,,,,,,,,,,,,2018_Sep_07_1309,59.6344808082,verb_norming_oral_input,001,800,
SKRUBBA,Arm,arm,0,155,155,75,0,0,0,0,,,,,,,,,,,7,1.383,,,2018_Sep_07_1309,59.6344808082,verb_norming_oral_input,001,800,
SKRUBBA,Ben,ben,0,155,155,75,0,1,1,1,,,,,,,,,,,1,0.614,,,2018_Sep_07_1309,59.6344808082,verb_norming_oral_input,001,800,
SKRUBBA,,,0,155,155,75,,,,,,,,,,,,,,,,,,,2018_Sep_07_1309,59.6344808082,verb_norming_oral_input,001,800,
ILA,Arm,arm,0,156,156,112,0,0,0,0,,,,,,,,,,,1,1.871,,,2018_Sep_07_1309,59.6344808082,verb_norming_oral_input,001,800,
ILA,Ben,ben,0,156,156,112,0,1,1,1,,,,,,,,,,,7,0.533,,,2018_Sep_07_1309,59.6344808082,verb_norming_oral_input,001,800,
ILA,,,0,156,156,112,,,,,,,,,,,,,,,,,,,2018_Sep_07_1309,59.6344808082,verb_norming_oral_input,001,800,
PINNA,Arm,arm,0,157,157,128,0,0,0,0,,,,,,,,,,,4,55.872,,,2018_Sep_07_1309,59.6344808082,verb_norming_oral_input,001,800,
PINNA,Ben,ben,0,157,157,128,0,1,1,1,,,,,,,,,,,4,0.599,,,2018_Sep_07_1309,59.6344808082,verb_norming_oral_input,001,800,
PINNA,,,0,157,157,128,,,,,,,,,,,,,,,,,,,2018_Sep_07_1309,59.6344808082,verb_norming_oral_input,001,800,
GRABBA,Arm,arm,0,158,158,16,0,0,0,0,,,,,,,,,,,7,2.306,,,2018_Sep_07_1309,59.6344808082,verb_norming_oral_input,001,800,
GRABBA,Ben,ben,0,158,158,16,0,1,1,1,,,,,,,,,,,1,3.969,,,2018_Sep_07_1309,59.6344808082,verb_norming_oral_input,001,800,
GRABBA,,,0,158,158,16,,,,,,,,,,,,,,,,,,,2018_Sep_07_1309,59.6344808082,verb_norming_oral_input,001,800,
RAKA,Arm,arm,0,159,159,59,0,0,0,0,,,,,,,,,,,7,2.24,,,2018_Sep_07_1309,59.6344808082,verb_norming_oral_input,001,800,
RAKA,Ben,ben,0,159,159,59,0,1,1,1,,,,,,,,,,,1,1.621,,,2018_Sep_07_1309,59.6344808082,verb_norming_oral_input,001,800,
RAKA,,,0,159,159,59,,,,,,,,,,,,,,,,,,,2018_Sep_07_1309,59.6344808082,verb_norming_oral_input,001,800,
RASPA,Arm,arm,0,160,160,60,0,0,0,0,,,,,,,,,,,7,1.082,,,2018_Sep_07_1309,59.6344808082,verb_norming_oral_input,001,800,
RASPA,Ben,ben,0,160,160,60,0,1,1,1,,,,,,,,,,,1,0.582,,,2018_Sep_07_1309,59.6344808082,verb_norming_oral_input,001,800,
RASPA,,,0,160,160,60,,,,,,,,,,,,,,,,,,,2018_Sep_07_1309,59.6344808082,verb_norming_oral_input,001,800,
PLOCKA,Arm,arm,0,161,161,53,0,0,0,0,,,,,,,,,,,7,1.13,,,2018_Sep_07_1309,59.6344808082,verb_norming_oral_input,001,800,
PLOCKA,Ben,ben,0,161,161,53,0,1,1,1,,,,,,,,,,,1,1.702,,,2018_Sep_07_1309,59.6344808082,verb_norming_oral_input,001,800,
PLOCKA,,,0,161,161,53,,,,,,,,,,,,,,,,,,,2018_Sep_07_1309,59.6344808082,verb_norming_oral_input,001,800,
TRÄDA,Arm,arm,0,162,162,160,0,0,0,0,,,,,,,,,,,1,1.82,,,2018_Sep_07_1309,59.6344808082,verb_norming_oral_input,001,800,
TRÄDA,Ben,ben,0,162,162,160,0,1,1,1,,,,,,,,,,,7,0.597,,,2018_Sep_07_1309,59.6344808082,verb_norming_oral_input,001,800,
TRÄDA,,,0,162,162,160,,,,,,,,,,,,,,,,,,,2018_Sep_07_1309,59.6344808082,verb_norming_oral_input,001,800,
SPRINGA,Arm,arm,0,163,163,145,0,0,0,0,,,,,,,,,,,1,3.882,,,2018_Sep_07_1309,59.6344808082,verb_norming_oral_input,001,800,
SPRINGA,Ben,ben,0,163,163,145,0,1,1,1,,,,,,,,,,,7,0.531,,,2018_Sep_07_1309,59.6344808082,verb_norming_oral_input,001,800,
SPRINGA,,,0,163,163,145,,,,,,,,,,,,,,,,,,,2018_Sep_07_1309,59.6344808082,verb_norming_oral_input,001,800,
KLAPPA,Arm,arm,0,164,164,31,0,0,0,0,,,,,,,,,,,7,1.316,,,2018_Sep_07_1309,59.6344808082,verb_norming_oral_input,001,800,
KLAPPA,Ben,ben,0,164,164,31,0,1,1,1,,,,,,,,,,,1,0.548,,,2018_Sep_07_1309,59.6344808082,verb_norming_oral_input,001,800,
KLAPPA,,,0,164,164,31,,,,,,,,,,,,,,,,,,,2018_Sep_07_1309,59.6344808082,verb_norming_oral_input,001,800,
HOPPA,Arm,arm,0,165,165,111,0,0,0,0,,,,,,,,,,,1,2.239,,,2018_Sep_07_1309,59.6344808082,verb_norming_oral_input,001,800,
HOPPA,Ben,ben,0,165,165,111,0,1,1,1,,,,,,,,,,,7,0.431,,,2018_Sep_07_1309,59.6344808082,verb_norming_oral_input,001,800,
HOPPA,,,0,165,165,111,,,,,,,,,,,,,,,,,,,2018_Sep_07_1309,59.6344808082,verb_norming_oral_input,001,800,
TVÄTTA,Arm,arm,0,166,166,96,0,0,0,0,,,,,,,,,,,7,1.317,,,2018_Sep_07_1309,59.6344808082,verb_norming_oral_input,001,800,
TVÄTTA,Ben,ben,0,166,166,96,0,1,1,1,,,,,,,,,,,1,1.319,,,2018_Sep_07_1309,59.6344808082,verb_norming_oral_input,001,800,
TVÄTTA,,,0,166,166,96,,,,,,,,,,,,,,,,,,,2018_Sep_07_1309,59.6344808082,verb_norming_oral_input,001,800,
RÖRA,Arm,arm,0,167,167,65,0,0,0,0,,,,,,,,,,,7,1.3,,,2018_Sep_07_1309,59.6344808082,verb_norming_oral_input,001,800,
RÖRA,Ben,ben,0,167,167,65,0,1,1,1,,,,,,,,,,,1,0.851,,,2018_Sep_07_1309,59.6344808082,verb_norming_oral_input,001,800,
RÖRA,,,0,167,167,65,,,,,,,,,,,,,,,,,,,2018_Sep_07_1309,59.6344808082,verb_norming_oral_input,001,800,
SNUBBLA,Arm,arm,0,168,168,143,0,0,0,0,,,,,,,,,,,1,1.601,,,2018_Sep_07_1309,59.6344808082,verb_norming_oral_input,001,800,
SNUBBLA,Ben,ben,0,168,168,143,0,1,1,1,,,,,,,,,,,7,0.614,,,2018_Sep_07_1309,59.6344808082,verb_norming_oral_input,001,800,
SNUBBLA,,,0,168,168,143,,,,,,,,,,,,,,,,,,,2018_Sep_07_1309,59.6344808082,verb_norming_oral_input,001,800,
,,,,,,,,,,,,,,,,,,,,,,,space,12.8803605923,2018_Sep_07_1309,59.6344808082,verb_norming_oral_input,001,800,
