word,category,category_lowercase,trials.thisRepN,trials.thisTrialN,trials.thisN,trials.thisIndex,armleg_loop.thisRepN,armleg_loop.thisTrialN,armleg_loop.thisN,armleg_loop.thisIndex,key_resp_9.keys,key_resp_9.rt,key_resp_2.keys,key_resp_2.rt,key_resp_3.keys,key_resp_3.rt,key_resp_4.keys,key_resp_4.rt,key_resp_6.keys,key_resp_6.rt,key_resp_5.keys,key_resp_5.rt,rating.response,rating.rt,key_resp_7.keys,key_resp_7.rt,key_resp_8.keys,key_resp_8.rt,date,frameRate,expName,session,participant,
,,,,,,,,,,,space,5.61789677935,,,,,,,,,,,,,,,,,2018_Sep_07_1244,59.6076551867,verb_norming_oral_input,001,800,
,,,,,,,,,,,,,space,22.4230329596,,,,,,,,,,,,,,,2018_Sep_07_1244,59.6076551867,verb_norming_oral_input,001,800,
,,,,,,,,,,,,,,,space,13.6518556098,,,,,,,,,,,,,2018_Sep_07_1244,59.6076551867,verb_norming_oral_input,001,800,
,,,,,,,,,,,,,,,,,space,4.81376378091,,,,,,,,,,,2018_Sep_07_1244,59.6076551867,verb_norming_oral_input,001,800,
,,,,,,,,,,,,,,,,,,,space,25.2071434131,,,,,,,,,2018_Sep_07_1244,59.6076551867,verb_norming_oral_input,001,800,
,,,,,,,,,,,,,,,,,,,,,space,6.10495557592,,,,,,,2018_Sep_07_1244,59.6076551867,verb_norming_oral_input,001,800,
SKATE,Arm,arm,0,0,0,92,0,0,0,0,,,,,,,,,,,,,1,10.862,,,,,2018_Sep_07_1244,59.6076551867,verb_norming_oral_input,001,800,
SKATE,Leg,leg,0,0,0,92,0,1,1,1,,,,,,,,,,,,,7,66.979,,,,,2018_Sep_07_1244,59.6076551867,verb_norming_oral_input,001,800,
SKATE,,,0,0,0,92,,,,,,,,,,,,,,,,,,,return,5.85355323521,,,2018_Sep_07_1244,59.6076551867,verb_norming_oral_input,001,800,
STUMBLE,Arm,arm,0,1,1,110,0,0,0,0,,,,,,,,,,,,,1,3.495,,,,,2018_Sep_07_1244,59.6076551867,verb_norming_oral_input,001,800,
STUMBLE,Leg,leg,0,1,1,110,0,1,1,1,,,,,,,,,,,,,7,3.399,,,,,2018_Sep_07_1244,59.6076551867,verb_norming_oral_input,001,800,
STUMBLE,,,0,1,1,110,,,,,,,,,,,,,,,,,,,return,2.09673967886,,,2018_Sep_07_1244,59.6076551867,verb_norming_oral_input,001,800,
RAMBLE,Arm,arm,0,2,2,86,0,0,0,0,,,,,,,,,,,,,1,9.032,,,,,2018_Sep_07_1244,59.6076551867,verb_norming_oral_input,001,800,
RAMBLE,Leg,leg,0,2,2,86,0,1,1,1,,,,,,,,,,,,,6,4.893,,,,,2018_Sep_07_1244,59.6076551867,verb_norming_oral_input,001,800,
RAMBLE,,,0,2,2,86,,,,,,,,,,,,,,,,,,,return,10.8341213783,,,2018_Sep_07_1244,59.6076551867,verb_norming_oral_input,001,800,
LEAP,Arm,arm,0,3,3,77,0,0,0,0,,,,,,,,,,,,,1,3.063,,,,,2018_Sep_07_1244,59.6076551867,verb_norming_oral_input,001,800,
LEAP,Leg,leg,0,3,3,77,0,1,1,1,,,,,,,,,,,,,7,2.378,,,,,2018_Sep_07_1244,59.6076551867,verb_norming_oral_input,001,800,
LEAP,,,0,3,3,77,,,,,,,,,,,,,,,,,,,return,3.74039361551,,,2018_Sep_07_1244,59.6076551867,verb_norming_oral_input,001,800,
SWITCH,Arm,arm,0,4,4,51,0,0,0,0,,,,,,,,,,,,,7,8.545,,,,,2018_Sep_07_1244,59.6076551867,verb_norming_oral_input,001,800,
SWITCH,Leg,leg,0,4,4,51,0,1,1,1,,,,,,,,,,,,,1,2.108,,,,,2018_Sep_07_1244,59.6076551867,verb_norming_oral_input,001,800,
SWITCH,,,0,4,4,51,,,,,,,,,,,,,,,,,,,return,5.72063144744,,,2018_Sep_07_1244,59.6076551867,verb_norming_oral_input,001,800,
GRIP,Arm,arm,0,5,5,21,0,0,0,0,,,,,,,,,,,,,7,6.532,,,,,2018_Sep_07_1244,59.6076551867,verb_norming_oral_input,001,800,
GRIP,Leg,leg,0,5,5,21,0,1,1,1,,,,,,,,,,,,,1,1.79,,,,,2018_Sep_07_1244,59.6076551867,verb_norming_oral_input,001,800,
GRIP,,,0,5,5,21,,,,,,,,,,,,,,,,,,,return,3.03600510007,,,2018_Sep_07_1244,59.6076551867,verb_norming_oral_input,001,800,
JUMP,Arm,arm,0,6,6,74,0,0,0,0,,,,,,,,,,,,,1,2.876,,,,,2018_Sep_07_1244,59.6076551867,verb_norming_oral_input,001,800,
JUMP,Leg,leg,0,6,6,74,0,1,1,1,,,,,,,,,,,,,7,1.907,,,,,2018_Sep_07_1244,59.6076551867,verb_norming_oral_input,001,800,
JUMP,,,0,6,6,74,,,,,,,,,,,,,,,,,,,return,1.57690184741,,,2018_Sep_07_1244,59.6076551867,verb_norming_oral_input,001,800,
KNOCK,Arm,arm,0,7,7,24,0,0,0,0,,,,,,,,,,,,,7,3.644,,,,,2018_Sep_07_1244,59.6076551867,verb_norming_oral_input,001,800,
KNOCK,Leg,leg,0,7,7,24,0,1,1,1,,,,,,,,,,,,,1,2.074,,,,,2018_Sep_07_1244,59.6076551867,verb_norming_oral_input,001,800,
KNOCK,,,0,7,7,24,,,,,,,,,,,,,,,,,,,return,7.66461249485,,,2018_Sep_07_1244,59.6076551867,verb_norming_oral_input,001,800,
TWINE,Arm,arm,0,8,8,55,0,0,0,0,,,,,,,,,,,,,7,4.184,,,,,2018_Sep_07_1244,59.6076551867,verb_norming_oral_input,001,800,
TWINE,Leg,leg,0,8,8,55,0,1,1,1,,,,,,,,,,,,,1,2.342,,,,,2018_Sep_07_1244,59.6076551867,verb_norming_oral_input,001,800,
TWINE,,,0,8,8,55,,,,,,,,,,,,,,,,,,,return,1.86179995077,,,2018_Sep_07_1244,59.6076551867,verb_norming_oral_input,001,800,
STAND,Arm,arm,0,9,9,102,0,0,0,0,,,,,,,,,,,,,1,5.439,,,,,2018_Sep_07_1244,59.6076551867,verb_norming_oral_input,001,800,
STAND,Leg,leg,0,9,9,102,0,1,1,1,,,,,,,,,,,,,7,2.09,,,,,2018_Sep_07_1244,59.6076551867,verb_norming_oral_input,001,800,
STAND,,,0,9,9,102,,,,,,,,,,,,,,,,,,,return,2.51608864192,,,2018_Sep_07_1244,59.6076551867,verb_norming_oral_input,001,800,
SLITHER,Arm,arm,0,10,10,96,0,0,0,0,,,,,,,,,,,,,4,23.421,,,,,2018_Sep_07_1244,59.6076551867,verb_norming_oral_input,001,800,
SLITHER,Leg,leg,0,10,10,96,0,1,1,1,,,,,,,,,,,,,4,5.361,,,,,2018_Sep_07_1244,59.6076551867,verb_norming_oral_input,001,800,
SLITHER,,,0,10,10,96,,,,,,,,,,,,,,,,,,,return,2.43204737199,,,2018_Sep_07_1244,59.6076551867,verb_norming_oral_input,001,800,
STEP,Arm,arm,0,11,11,103,0,0,0,0,,,,,,,,,,,,,1,2.978,,,,,2018_Sep_07_1244,59.6076551867,verb_norming_oral_input,001,800,
STEP,Leg,leg,0,11,11,103,0,1,1,1,,,,,,,,,,,,,7,2.713,,,,,2018_Sep_07_1244,59.6076551867,verb_norming_oral_input,001,800,
STEP,,,0,11,11,103,,,,,,,,,,,,,,,,,,,return,6.00447381948,,,2018_Sep_07_1244,59.6076551867,verb_norming_oral_input,001,800,
SLIP,Arm,arm,0,12,12,95,0,0,0,0,,,,,,,,,,,,,1,4.454,,,,,2018_Sep_07_1244,59.6076551867,verb_norming_oral_input,001,800,
SLIP,Leg,leg,0,12,12,95,0,1,1,1,,,,,,,,,,,,,7,1.874,,,,,2018_Sep_07_1244,59.6076551867,verb_norming_oral_input,001,800,
SLIP,,,0,12,12,95,,,,,,,,,,,,,,,,,,,return,3.77374239761,,,2018_Sep_07_1244,59.6076551867,verb_norming_oral_input,001,800,
SCRATCH,Arm,arm,0,13,13,40,0,0,0,0,,,,,,,,,,,,,7,2.893,,,,,2018_Sep_07_1244,59.6076551867,verb_norming_oral_input,001,800,
SCRATCH,Leg,leg,0,13,13,40,0,1,1,1,,,,,,,,,,,,,1,1.856,,,,,2018_Sep_07_1244,59.6076551867,verb_norming_oral_input,001,800,
SCRATCH,,,0,13,13,40,,,,,,,,,,,,,,,,,,,return,2.78444827173,,,2018_Sep_07_1244,59.6076551867,verb_norming_oral_input,001,800,
SNEAK,Arm,arm,0,14,14,97,0,0,0,0,,,,,,,,,,,,,1,4.015,,,,,2018_Sep_07_1244,59.6076551867,verb_norming_oral_input,001,800,
SNEAK,Leg,leg,0,14,14,97,0,1,1,1,,,,,,,,,,,,,7,6.837,,,,,2018_Sep_07_1244,59.6076551867,verb_norming_oral_input,001,800,
SNEAK,,,0,14,14,97,,,,,,,,,,,,,,,,,,,return,2.95213175148,,,2018_Sep_07_1244,59.6076551867,verb_norming_oral_input,001,800,
TREAD,Arm,arm,0,15,15,118,0,0,0,0,,,,,,,,,,,,,1,9.786,,,,,2018_Sep_07_1244,59.6076551867,verb_norming_oral_input,001,800,
TREAD,Leg,leg,0,15,15,118,0,1,1,1,,,,,,,,,,,,,7,1.721,,,,,2018_Sep_07_1244,59.6076551867,verb_norming_oral_input,001,800,
TREAD,,,0,15,15,118,,,,,,,,,,,,,,,,,,,return,4.39430971885,,,2018_Sep_07_1244,59.6076551867,verb_norming_oral_input,001,800,
SKIM,Arm,arm,0,16,16,45,0,0,0,0,,,,,,,,,,,,,7,2.895,,,,,2018_Sep_07_1244,59.6076551867,verb_norming_oral_input,001,800,
SKIM,Leg,leg,0,16,16,45,0,1,1,1,,,,,,,,,,,,,1,3.384,,,,,2018_Sep_07_1244,59.6076551867,verb_norming_oral_input,001,800,
SKIM,,,0,16,16,45,,,,,,,,,,,,,,,,,,,return,1.84525515548,,,2018_Sep_07_1244,59.6076551867,verb_norming_oral_input,001,800,
PAT,Arm,arm,0,17,17,27,0,0,0,0,,,,,,,,,,,,,7,2.71,,,,,2018_Sep_07_1244,59.6076551867,verb_norming_oral_input,001,800,
PAT,Leg,leg,0,17,17,27,0,1,1,1,,,,,,,,,,,,,1,1.539,,,,,2018_Sep_07_1244,59.6076551867,verb_norming_oral_input,001,800,
PAT,,,0,17,17,27,,,,,,,,,,,,,,,,,,,return,1.15762242354,,,2018_Sep_07_1244,59.6076551867,verb_norming_oral_input,001,800,
WADE,Arm,arm,0,18,18,124,0,0,0,0,,,,,,,,,,,,,1,6.13,,,,,2018_Sep_07_1244,59.6076551867,verb_norming_oral_input,001,800,
WADE,Leg,leg,0,18,18,124,0,1,1,1,,,,,,,,,,,,,7,1.973,,,,,2018_Sep_07_1244,59.6076551867,verb_norming_oral_input,001,800,
WADE,,,0,18,18,124,,,,,,,,,,,,,,,,,,,return,1.86208284883,,,2018_Sep_07_1244,59.6076551867,verb_norming_oral_input,001,800,
BIND,Arm,arm,0,19,19,1,0,0,0,0,,,,,,,,,,,,,7,5.14,,,,,2018_Sep_07_1244,59.6076551867,verb_norming_oral_input,001,800,
BIND,Leg,leg,0,19,19,1,0,1,1,1,,,,,,,,,,,,,1,1.773,,,,,2018_Sep_07_1244,59.6076551867,verb_norming_oral_input,001,800,
BIND,,,0,19,19,1,,,,,,,,,,,,,,,,,,,return,3.03599245658,,,2018_Sep_07_1244,59.6076551867,verb_norming_oral_input,001,800,
ROAM,Arm,arm,0,20,20,87,0,0,0,0,,,,,,,,,,,,,1,5.259,,,,,2018_Sep_07_1244,59.6076551867,verb_norming_oral_input,001,800,
ROAM,Leg,leg,0,20,20,87,0,1,1,1,,,,,,,,,,,,,7,1.74,,,,,2018_Sep_07_1244,59.6076551867,verb_norming_oral_input,001,800,
ROAM,,,0,20,20,87,,,,,,,,,,,,,,,,,,,return,4.51182067424,,,2018_Sep_07_1244,59.6076551867,verb_norming_oral_input,001,800,
RUSH,Arm,arm,0,21,21,89,0,0,0,0,,,,,,,,,,,,,1,4.823,,,,,2018_Sep_07_1244,59.6076551867,verb_norming_oral_input,001,800,
RUSH,Leg,leg,0,21,21,89,0,1,1,1,,,,,,,,,,,,,7,1.976,,,,,2018_Sep_07_1244,59.6076551867,verb_norming_oral_input,001,800,
RUSH,,,0,21,21,89,,,,,,,,,,,,,,,,,,,return,3.15310790783,,,2018_Sep_07_1244,59.6076551867,verb_norming_oral_input,001,800,
TODDLE,Arm,arm,0,22,22,113,0,0,0,0,,,,,,,,,,,,,3,11.813,,,,,2018_Sep_07_1244,59.6076551867,verb_norming_oral_input,001,800,
TODDLE,Leg,leg,0,22,22,113,0,1,1,1,,,,,,,,,,,,,5,7.054,,,,,2018_Sep_07_1244,59.6076551867,verb_norming_oral_input,001,800,
TODDLE,,,0,22,22,113,,,,,,,,,,,,,,,,,,,return,19.8740811246,,,2018_Sep_07_1244,59.6076551867,verb_norming_oral_input,001,800,
SQUEEZE,Arm,arm,0,23,23,48,0,0,0,0,,,,,,,,,,,,,7,3.875,,,,,2018_Sep_07_1244,59.6076551867,verb_norming_oral_input,001,800,
SQUEEZE,Leg,leg,0,23,23,48,0,1,1,1,,,,,,,,,,,,,1,2.96,,,,,2018_Sep_07_1244,59.6076551867,verb_norming_oral_input,001,800,
SQUEEZE,,,0,23,23,48,,,,,,,,,,,,,,,,,,,return,1.5767789685,,,2018_Sep_07_1244,59.6076551867,verb_norming_oral_input,001,800,
TROT,Arm,arm,0,24,24,121,0,0,0,0,,,,,,,,,,,,,1,3.783,,,,,2018_Sep_07_1244,59.6076551867,verb_norming_oral_input,001,800,
TROT,Leg,leg,0,24,24,121,0,1,1,1,,,,,,,,,,,,,7,2.394,,,,,2018_Sep_07_1244,59.6076551867,verb_norming_oral_input,001,800,
TROT,,,0,24,24,121,,,,,,,,,,,,,,,,,,,return,3.79043535878,,,2018_Sep_07_1244,59.6076551867,verb_norming_oral_input,001,800,
TOSS,Arm,arm,0,25,25,53,0,0,0,0,,,,,,,,,,,,,7,2.643,,,,,2018_Sep_07_1244,59.6076551867,verb_norming_oral_input,001,800,
TOSS,Leg,leg,0,25,25,53,0,1,1,1,,,,,,,,,,,,,1,1.355,,,,,2018_Sep_07_1244,59.6076551867,verb_norming_oral_input,001,800,
TOSS,,,0,25,25,53,,,,,,,,,,,,,,,,,,,return,1.22456100424,,,2018_Sep_07_1244,59.6076551867,verb_norming_oral_input,001,800,
TREK,Arm,arm,0,26,26,119,0,0,0,0,,,,,,,,,,,,,1,5.31,,,,,2018_Sep_07_1244,59.6076551867,verb_norming_oral_input,001,800,
TREK,Leg,leg,0,26,26,119,0,1,1,1,,,,,,,,,,,,,7,1.522,,,,,2018_Sep_07_1244,59.6076551867,verb_norming_oral_input,001,800,
TREK,,,0,26,26,119,,,,,,,,,,,,,,,,,,,return,1.67753532571,,,2018_Sep_07_1244,59.6076551867,verb_norming_oral_input,001,800,
DANCE,Arm,arm,0,27,27,64,0,0,0,0,,,,,,,,,,,,,2,6.129,,,,,2018_Sep_07_1244,59.6076551867,verb_norming_oral_input,001,800,
DANCE,Leg,leg,0,27,27,64,0,1,1,1,,,,,,,,,,,,,7,4.018,,,,,2018_Sep_07_1244,59.6076551867,verb_norming_oral_input,001,800,
DANCE,,,0,27,27,64,,,,,,,,,,,,,,,,,,,return,1.15747465277,,,2018_Sep_07_1244,59.6076551867,verb_norming_oral_input,001,800,
FOLD,Arm,arm,0,28,28,16,0,0,0,0,,,,,,,,,,,,,7,3.094,,,,,2018_Sep_07_1244,59.6076551867,verb_norming_oral_input,001,800,
FOLD,Leg,leg,0,28,28,16,0,1,1,1,,,,,,,,,,,,,1,4.355,,,,,2018_Sep_07_1244,59.6076551867,verb_norming_oral_input,001,800,
FOLD,,,0,28,28,16,,,,,,,,,,,,,,,,,,,return,2.26431766449,,,2018_Sep_07_1244,59.6076551867,verb_norming_oral_input,001,800,
PUSH,Arm,arm,0,29,29,35,0,0,0,0,,,,,,,,,,,,,7,4.186,,,,,2018_Sep_07_1244,59.6076551867,verb_norming_oral_input,001,800,
PUSH,Leg,leg,0,29,29,35,0,1,1,1,,,,,,,,,,,,,1,3.333,,,,,2018_Sep_07_1244,59.6076551867,verb_norming_oral_input,001,800,
PUSH,,,0,29,29,35,,,,,,,,,,,,,,,,,,,return,1.845177319,,,2018_Sep_07_1244,59.6076551867,verb_norming_oral_input,001,800,
WANDER,Arm,arm,0,30,30,126,0,0,0,0,,,,,,,,,,,,,1,3.63,,,,,2018_Sep_07_1244,59.6076551867,verb_norming_oral_input,001,800,
WANDER,Leg,leg,0,30,30,126,0,1,1,1,,,,,,,,,,,,,7,2.375,,,,,2018_Sep_07_1244,59.6076551867,verb_norming_oral_input,001,800,
WANDER,,,0,30,30,126,,,,,,,,,,,,,,,,,,,return,1.9458807316,,,2018_Sep_07_1244,59.6076551867,verb_norming_oral_input,001,800,
SHAKE,Arm,arm,0,31,31,43,0,0,0,0,,,,,,,,,,,,,7,4.654,,,,,2018_Sep_07_1244,59.6076551867,verb_norming_oral_input,001,800,
SHAKE,Leg,leg,0,31,31,43,0,1,1,1,,,,,,,,,,,,,3,3.165,,,,,2018_Sep_07_1244,59.6076551867,verb_norming_oral_input,001,800,
SHAKE,,,0,31,31,43,,,,,,,,,,,,,,,,,,,return,1.99578221116,,,2018_Sep_07_1244,59.6076551867,verb_norming_oral_input,001,800,
SWAY,Arm,arm,0,32,32,111,0,0,0,0,,,,,,,,,,,,,1,3.666,,,,,2018_Sep_07_1244,59.6076551867,verb_norming_oral_input,001,800,
SWAY,Leg,leg,0,32,32,111,0,1,1,1,,,,,,,,,,,,,7,1.74,,,,,2018_Sep_07_1244,59.6076551867,verb_norming_oral_input,001,800,
SWAY,,,0,32,32,111,,,,,,,,,,,,,,,,,,,return,1.72757627876,,,2018_Sep_07_1244,59.6076551867,verb_norming_oral_input,001,800,
CLICK,Arm,arm,0,33,33,10,0,0,0,0,,,,,,,,,,,,,7,3.431,,,,,2018_Sep_07_1244,59.6076551867,verb_norming_oral_input,001,800,
CLICK,Leg,leg,0,33,33,10,0,1,1,1,,,,,,,,,,,,,1,3.031,,,,,2018_Sep_07_1244,59.6076551867,verb_norming_oral_input,001,800,
CLICK,,,0,33,33,10,,,,,,,,,,,,,,,,,,,return,2.48238386659,,,2018_Sep_07_1244,59.6076551867,verb_norming_oral_input,001,800,
LIMP,Arm,arm,0,34,34,78,0,0,0,0,,,,,,,,,,,,,1,4.27,,,,,2018_Sep_07_1244,59.6076551867,verb_norming_oral_input,001,800,
LIMP,Leg,leg,0,34,34,78,0,1,1,1,,,,,,,,,,,,,7,2.544,,,,,2018_Sep_07_1244,59.6076551867,verb_norming_oral_input,001,800,
LIMP,,,0,34,34,78,,,,,,,,,,,,,,,,,,,return,1.37559340437,,,2018_Sep_07_1244,59.6076551867,verb_norming_oral_input,001,800,
THROW,Arm,arm,0,35,35,52,0,0,0,0,,,,,,,,,,,,,7,3.045,,,,,2018_Sep_07_1244,59.6076551867,verb_norming_oral_input,001,800,
THROW,Leg,leg,0,35,35,52,0,1,1,1,,,,,,,,,,,,,1,1.773,,,,,2018_Sep_07_1244,59.6076551867,verb_norming_oral_input,001,800,
THROW,,,0,35,35,52,,,,,,,,,,,,,,,,,,,return,1.49305655156,,,2018_Sep_07_1244,59.6076551867,verb_norming_oral_input,001,800,
NIP,Arm,arm,0,36,36,26,0,0,0,0,,,,,,,,,,,,,7,2.743,,,,,2018_Sep_07_1244,59.6076551867,verb_norming_oral_input,001,800,
NIP,Leg,leg,0,36,36,26,0,1,1,1,,,,,,,,,,,,,1,1.757,,,,,2018_Sep_07_1244,59.6076551867,verb_norming_oral_input,001,800,
NIP,,,0,36,36,26,,,,,,,,,,,,,,,,,,,return,1.76127078125,,,2018_Sep_07_1244,59.6076551867,verb_norming_oral_input,001,800,
STRADDLE,Arm,arm,0,37,37,105,0,0,0,0,,,,,,,,,,,,,4,11.797,,,,,2018_Sep_07_1244,59.6076551867,verb_norming_oral_input,001,800,
STRADDLE,Leg,leg,0,37,37,105,0,1,1,1,,,,,,,,,,,,,5,6.181,,,,,2018_Sep_07_1244,59.6076551867,verb_norming_oral_input,001,800,
STRADDLE,,,0,37,37,105,,,,,,,,,,,,,,,,,,,return,10.5837953146,,,2018_Sep_07_1244,59.6076551867,verb_norming_oral_input,001,800,
SPRINT,Arm,arm,0,38,38,98,0,0,0,0,,,,,,,,,,,,,1,3.814,,,,,2018_Sep_07_1244,59.6076551867,verb_norming_oral_input,001,800,
SPRINT,Leg,leg,0,38,38,98,0,1,1,1,,,,,,,,,,,,,7,1.201,,,,,2018_Sep_07_1244,59.6076551867,verb_norming_oral_input,001,800,
SPRINT,,,0,38,38,98,,,,,,,,,,,,,,,,,,,return,1.69423500374,,,2018_Sep_07_1244,59.6076551867,verb_norming_oral_input,001,800,
DUNK,Arm,arm,0,39,39,14,0,0,0,0,,,,,,,,,,,,,7,3.211,,,,,2018_Sep_07_1244,59.6076551867,verb_norming_oral_input,001,800,
DUNK,Leg,leg,0,39,39,14,0,1,1,1,,,,,,,,,,,,,1,0.966,,,,,2018_Sep_07_1244,59.6076551867,verb_norming_oral_input,001,800,
DUNK,,,0,39,39,14,,,,,,,,,,,,,,,,,,,return,1.69421840916,,,2018_Sep_07_1244,59.6076551867,verb_norming_oral_input,001,800,
WIPE,Arm,arm,0,40,40,58,0,0,0,0,,,,,,,,,,,,,7,5.561,,,,,2018_Sep_07_1244,59.6076551867,verb_norming_oral_input,001,800,
WIPE,Leg,leg,0,40,40,58,0,1,1,1,,,,,,,,,,,,,1,3.316,,,,,2018_Sep_07_1244,59.6076551867,verb_norming_oral_input,001,800,
WIPE,,,0,40,40,58,,,,,,,,,,,,,,,,,,,return,2.08011744221,,,2018_Sep_07_1244,59.6076551867,verb_norming_oral_input,001,800,
SAUNTER,Arm,arm,0,41,41,90,0,0,0,0,,,,,,,,,,,,,4,5.524,,,,,2018_Sep_07_1244,59.6076551867,verb_norming_oral_input,001,800,
SAUNTER,Leg,leg,0,41,41,90,0,1,1,1,,,,,,,,,,,,,4,1.669,,,,,2018_Sep_07_1244,59.6076551867,verb_norming_oral_input,001,800,
SAUNTER,,,0,41,41,90,,,,,,,,,,,,,,,,,,,return,2.16472569358,,,2018_Sep_07_1244,59.6076551867,verb_norming_oral_input,001,800,
TRAIPSE,Arm,arm,0,42,42,115,0,0,0,0,,,,,,,,,,,,,1,10.054,,,,,2018_Sep_07_1244,59.6076551867,verb_norming_oral_input,001,800,
TRAIPSE,Leg,leg,0,42,42,115,0,1,1,1,,,,,,,,,,,,,7,6.317,,,,,2018_Sep_07_1244,59.6076551867,verb_norming_oral_input,001,800,
TRAIPSE,,,0,42,42,115,,,,,,,,,,,,,,,,,,,return,3.38821753281,,,2018_Sep_07_1244,59.6076551867,verb_norming_oral_input,001,800,
KICK,Arm,arm,0,43,43,75,0,0,0,0,,,,,,,,,,,,,1,3.582,,,,,2018_Sep_07_1244,59.6076551867,verb_norming_oral_input,001,800,
KICK,Leg,leg,0,43,43,75,0,1,1,1,,,,,,,,,,,,,7,1.103,,,,,2018_Sep_07_1244,59.6076551867,verb_norming_oral_input,001,800,
KICK,,,0,43,43,75,,,,,,,,,,,,,,,,,,,return,1.50979376494,,,2018_Sep_07_1244,59.6076551867,verb_norming_oral_input,001,800,
LIFT,Arm,arm,0,44,44,25,0,0,0,0,,,,,,,,,,,,,7,3.162,,,,,2018_Sep_07_1244,59.6076551867,verb_norming_oral_input,001,800,
LIFT,Leg,leg,0,44,44,25,0,1,1,1,,,,,,,,,,,,,4,11.316,,,,,2018_Sep_07_1244,59.6076551867,verb_norming_oral_input,001,800,
LIFT,,,0,44,44,25,,,,,,,,,,,,,,,,,,,return,1.71124128636,,,2018_Sep_07_1244,59.6076551867,verb_norming_oral_input,001,800,
CHOP,Arm,arm,0,45,45,6,0,0,0,0,,,,,,,,,,,,,7,2.995,,,,,2018_Sep_07_1244,59.6076551867,verb_norming_oral_input,001,800,
CHOP,Leg,leg,0,45,45,6,0,1,1,1,,,,,,,,,,,,,1,1.036,,,,,2018_Sep_07_1244,59.6076551867,verb_norming_oral_input,001,800,
CHOP,,,0,45,45,6,,,,,,,,,,,,,,,,,,,return,1.35875385775,,,2018_Sep_07_1244,59.6076551867,verb_norming_oral_input,001,800,
JOG,Arm,arm,0,46,46,73,0,0,0,0,,,,,,,,,,,,,1,5.042,,,,,2018_Sep_07_1244,59.6076551867,verb_norming_oral_input,001,800,
JOG,Leg,leg,0,46,46,73,0,1,1,1,,,,,,,,,,,,,7,1.321,,,,,2018_Sep_07_1244,59.6076551867,verb_norming_oral_input,001,800,
JOG,,,0,46,46,73,,,,,,,,,,,,,,,,,,,return,1.71208879522,,,2018_Sep_07_1244,59.6076551867,verb_norming_oral_input,001,800,
STAB,Arm,arm,0,47,47,49,0,0,0,0,,,,,,,,,,,,,7,2.827,,,,,2018_Sep_07_1244,59.6076551867,verb_norming_oral_input,001,800,
STAB,Leg,leg,0,47,47,49,0,1,1,1,,,,,,,,,,,,,1,2.495,,,,,2018_Sep_07_1244,59.6076551867,verb_norming_oral_input,001,800,
STAB,,,0,47,47,49,,,,,,,,,,,,,,,,,,,return,2.83457693899,,,2018_Sep_07_1244,59.6076551867,verb_norming_oral_input,001,800,
HOP,Arm,arm,0,48,48,71,0,0,0,0,,,,,,,,,,,,,1,3.364,,,,,2018_Sep_07_1244,59.6076551867,verb_norming_oral_input,001,800,
HOP,Leg,leg,0,48,48,71,0,1,1,1,,,,,,,,,,,,,7,0.785,,,,,2018_Sep_07_1244,59.6076551867,verb_norming_oral_input,001,800,
HOP,,,0,48,48,71,,,,,,,,,,,,,,,,,,,return,1.47623399463,,,2018_Sep_07_1244,59.6076551867,verb_norming_oral_input,001,800,
CREEP,Arm,arm,0,49,49,61,0,0,0,0,,,,,,,,,,,,,4,7.036,,,,,2018_Sep_07_1244,59.6076551867,verb_norming_oral_input,001,800,
CREEP,Leg,leg,0,49,49,61,0,1,1,1,,,,,,,,,,,,,6,5.731,,,,,2018_Sep_07_1244,59.6076551867,verb_norming_oral_input,001,800,
CREEP,,,0,49,49,61,,,,,,,,,,,,,,,,,,,return,1.72838506693,,,2018_Sep_07_1244,59.6076551867,verb_norming_oral_input,001,800,
CLAW,Arm,arm,0,50,50,8,0,0,0,0,,,,,,,,,,,,,7,3.833,,,,,2018_Sep_07_1244,59.6076551867,verb_norming_oral_input,001,800,
CLAW,Leg,leg,0,50,50,8,0,1,1,1,,,,,,,,,,,,,1,3.988,,,,,2018_Sep_07_1244,59.6076551867,verb_norming_oral_input,001,800,
CLAW,,,0,50,50,8,,,,,,,,,,,,,,,,,,,return,3.0191327594,,,2018_Sep_07_1244,59.6076551867,verb_norming_oral_input,001,800,
TIPTOE,Arm,arm,0,51,51,112,0,0,0,0,,,,,,,,,,,,,1,4.789,,,,,2018_Sep_07_1244,59.6076551867,verb_norming_oral_input,001,800,
TIPTOE,Leg,leg,0,51,51,112,0,1,1,1,,,,,,,,,,,,,7,1.572,,,,,2018_Sep_07_1244,59.6076551867,verb_norming_oral_input,001,800,
TIPTOE,,,0,51,51,112,,,,,,,,,,,,,,,,,,,return,3.42179903412,,,2018_Sep_07_1244,59.6076551867,verb_norming_oral_input,001,800,
CLUTCH,Arm,arm,0,52,52,11,0,0,0,0,,,,,,,,,,,,,7,5.292,,,,,2018_Sep_07_1244,59.6076551867,verb_norming_oral_input,001,800,
CLUTCH,Leg,leg,0,52,52,11,0,1,1,1,,,,,,,,,,,,,1,2.527,,,,,2018_Sep_07_1244,59.6076551867,verb_norming_oral_input,001,800,
CLUTCH,,,0,52,52,11,,,,,,,,,,,,,,,,,,,return,3.79063646927,,,2018_Sep_07_1244,59.6076551867,verb_norming_oral_input,001,800,
BRAID,Arm,arm,0,53,53,2,0,0,0,0,,,,,,,,,,,,,7,2.641,,,,,2018_Sep_07_1244,59.6076551867,verb_norming_oral_input,001,800,
BRAID,Leg,leg,0,53,53,2,0,1,1,1,,,,,,,,,,,,,1,1.084,,,,,2018_Sep_07_1244,59.6076551867,verb_norming_oral_input,001,800,
BRAID,,,0,53,53,2,,,,,,,,,,,,,,,,,,,return,1.32524308095,,,2018_Sep_07_1244,59.6076551867,verb_norming_oral_input,001,800,
BRUSH,Arm,arm,0,54,54,3,0,0,0,0,,,,,,,,,,,,,7,2.794,,,,,2018_Sep_07_1244,59.6076551867,verb_norming_oral_input,001,800,
BRUSH,Leg,leg,0,54,54,3,0,1,1,1,,,,,,,,,,,,,1,1.002,,,,,2018_Sep_07_1244,59.6076551867,verb_norming_oral_input,001,800,
BRUSH,,,0,54,54,3,,,,,,,,,,,,,,,,,,,return,1.37548949069,,,2018_Sep_07_1244,59.6076551867,verb_norming_oral_input,001,800,
PLUCK,Arm,arm,0,55,55,30,0,0,0,0,,,,,,,,,,,,,7,3.598,,,,,2018_Sep_07_1244,59.6076551867,verb_norming_oral_input,001,800,
PLUCK,Leg,leg,0,55,55,30,0,1,1,1,,,,,,,,,,,,,1,1.907,,,,,2018_Sep_07_1244,59.6076551867,verb_norming_oral_input,001,800,
PLUCK,,,0,55,55,30,,,,,,,,,,,,,,,,,,,return,3.2873825489,,,2018_Sep_07_1244,59.6076551867,verb_norming_oral_input,001,800,
PACE,Arm,arm,0,56,56,82,0,0,0,0,,,,,,,,,,,,,1,4.019,,,,,2018_Sep_07_1244,59.6076551867,verb_norming_oral_input,001,800,
PACE,Leg,leg,0,56,56,82,0,1,1,1,,,,,,,,,,,,,7,1.404,,,,,2018_Sep_07_1244,59.6076551867,verb_norming_oral_input,001,800,
PACE,,,0,56,56,82,,,,,,,,,,,,,,,,,,,return,10.9347722414,,,2018_Sep_07_1244,59.6076551867,verb_norming_oral_input,001,800,
CARVE,Arm,arm,0,57,57,4,0,0,0,0,,,,,,,,,,,,,7,3.699,,,,,2018_Sep_07_1244,59.6076551867,verb_norming_oral_input,001,800,
CARVE,Leg,leg,0,57,57,4,0,1,1,1,,,,,,,,,,,,,1,1.706,,,,,2018_Sep_07_1244,59.6076551867,verb_norming_oral_input,001,800,
CARVE,,,0,57,57,4,,,,,,,,,,,,,,,,,,,return,2.96892744099,,,2018_Sep_07_1244,59.6076551867,verb_norming_oral_input,001,800,
WRAP,Arm,arm,0,58,58,59,0,0,0,0,,,,,,,,,,,,,7,2.928,,,,,2018_Sep_07_1244,59.6076551867,verb_norming_oral_input,001,800,
WRAP,Leg,leg,0,58,58,59,0,1,1,1,,,,,,,,,,,,,1,1.137,,,,,2018_Sep_07_1244,59.6076551867,verb_norming_oral_input,001,800,
WRAP,,,0,58,58,59,,,,,,,,,,,,,,,,,,,return,1.20767325432,,,2018_Sep_07_1244,59.6076551867,verb_norming_oral_input,001,800,
GESTURE,Arm,arm,0,59,59,17,0,0,0,0,,,,,,,,,,,,,7,5.022,,,,,2018_Sep_07_1244,59.6076551867,verb_norming_oral_input,001,800,
GESTURE,Leg,leg,0,59,59,17,0,1,1,1,,,,,,,,,,,,,1,1.336,,,,,2018_Sep_07_1244,59.6076551867,verb_norming_oral_input,001,800,
GESTURE,,,0,59,59,17,,,,,,,,,,,,,,,,,,,return,1.91213723559,,,2018_Sep_07_1244,59.6076551867,verb_norming_oral_input,001,800,
SCOOP,Arm,arm,0,60,60,38,0,0,0,0,,,,,,,,,,,,,7,2.911,,,,,2018_Sep_07_1244,59.6076551867,verb_norming_oral_input,001,800,
SCOOP,Leg,leg,0,60,60,38,0,1,1,1,,,,,,,,,,,,,1,1.438,,,,,2018_Sep_07_1244,59.6076551867,verb_norming_oral_input,001,800,
SCOOP,,,0,60,60,38,,,,,,,,,,,,,,,,,,,return,3.5727812554,,,2018_Sep_07_1244,59.6076551867,verb_norming_oral_input,001,800,
RUN,Arm,arm,0,61,61,88,0,0,0,0,,,,,,,,,,,,,1,4.789,,,,,2018_Sep_07_1244,59.6076551867,verb_norming_oral_input,001,800,
RUN,Leg,leg,0,61,61,88,0,1,1,1,,,,,,,,,,,,,7,2.074,,,,,2018_Sep_07_1244,59.6076551867,verb_norming_oral_input,001,800,
RUN,,,0,61,61,88,,,,,,,,,,,,,,,,,,,return,1.10728316318,,,2018_Sep_07_1244,59.6076551867,verb_norming_oral_input,001,800,
GRASP,Arm,arm,0,62,62,19,0,0,0,0,,,,,,,,,,,,,7,2.592,,,,,2018_Sep_07_1244,59.6076551867,verb_norming_oral_input,001,800,
GRASP,Leg,leg,0,62,62,19,0,1,1,1,,,,,,,,,,,,,1,1.019,,,,,2018_Sep_07_1244,59.6076551867,verb_norming_oral_input,001,800,
GRASP,,,0,62,62,19,,,,,,,,,,,,,,,,,,,return,2.36511076684,,,2018_Sep_07_1244,59.6076551867,verb_norming_oral_input,001,800,
WOBBLE,Arm,arm,0,63,63,127,0,0,0,0,,,,,,,,,,,,,1,4.386,,,,,2018_Sep_07_1244,59.6076551867,verb_norming_oral_input,001,800,
WOBBLE,Leg,leg,0,63,63,127,0,1,1,1,,,,,,,,,,,,,7,1.303,,,,,2018_Sep_07_1244,59.6076551867,verb_norming_oral_input,001,800,
WOBBLE,,,0,63,63,127,,,,,,,,,,,,,,,,,,,return,1.44255332095,,,2018_Sep_07_1244,59.6076551867,verb_norming_oral_input,001,800,
HIKE,Arm,arm,0,64,64,69,0,0,0,0,,,,,,,,,,,,,1,2.543,,,,,2018_Sep_07_1244,59.6076551867,verb_norming_oral_input,001,800,
HIKE,Leg,leg,0,64,64,69,0,1,1,1,,,,,,,,,,,,,7,1.488,,,,,2018_Sep_07_1244,59.6076551867,verb_norming_oral_input,001,800,
HIKE,,,0,64,64,69,,,,,,,,,,,,,,,,,,,return,3.05276760043,,,2018_Sep_07_1244,59.6076551867,verb_norming_oral_input,001,800,
STRUT,Arm,arm,0,65,65,109,0,0,0,0,,,,,,,,,,,,,1,2.509,,,,,2018_Sep_07_1244,59.6076551867,verb_norming_oral_input,001,800,
STRUT,Leg,leg,0,65,65,109,0,1,1,1,,,,,,,,,,,,,7,0.884,,,,,2018_Sep_07_1244,59.6076551867,verb_norming_oral_input,001,800,
STRUT,,,0,65,65,109,,,,,,,,,,,,,,,,,,,return,1.61013130658,,,2018_Sep_07_1244,59.6076551867,verb_norming_oral_input,001,800,
PUNCH,Arm,arm,0,66,66,34,0,0,0,0,,,,,,,,,,,,,7,2.591,,,,,2018_Sep_07_1244,59.6076551867,verb_norming_oral_input,001,800,
PUNCH,Leg,leg,0,66,66,34,0,1,1,1,,,,,,,,,,,,,1,1.386,,,,,2018_Sep_07_1244,59.6076551867,verb_norming_oral_input,001,800,
PUNCH,,,0,66,66,34,,,,,,,,,,,,,,,,,,,return,2.0465406822,,,2018_Sep_07_1244,59.6076551867,verb_norming_oral_input,001,800,
PULL,Arm,arm,0,67,67,33,0,0,0,0,,,,,,,,,,,,,7,2.441,,,,,2018_Sep_07_1244,59.6076551867,verb_norming_oral_input,001,800,
PULL,Leg,leg,0,67,67,33,0,1,1,1,,,,,,,,,,,,,1,1.069,,,,,2018_Sep_07_1244,59.6076551867,verb_norming_oral_input,001,800,
PULL,,,0,67,67,33,,,,,,,,,,,,,,,,,,,return,0.973031438431,,,2018_Sep_07_1244,59.6076551867,verb_norming_oral_input,001,800,
WALK,Arm,arm,0,68,68,125,0,0,0,0,,,,,,,,,,,,,1,2.006,,,,,2018_Sep_07_1244,59.6076551867,verb_norming_oral_input,001,800,
WALK,Leg,leg,0,68,68,125,0,1,1,1,,,,,,,,,,,,,7,0.583,,,,,2018_Sep_07_1244,59.6076551867,verb_norming_oral_input,001,800,
WALK,,,0,68,68,125,,,,,,,,,,,,,,,,,,,return,0.938506416767,,,2018_Sep_07_1244,59.6076551867,verb_norming_oral_input,001,800,
PINCH,Arm,arm,0,69,69,29,0,0,0,0,,,,,,,,,,,,,7,3.142,,,,,2018_Sep_07_1244,59.6076551867,verb_norming_oral_input,001,800,
PINCH,Leg,leg,0,69,69,29,0,1,1,1,,,,,,,,,,,,,1,0.715,,,,,2018_Sep_07_1244,59.6076551867,verb_norming_oral_input,001,800,
PINCH,,,0,69,69,29,,,,,,,,,,,,,,,,,,,return,1.15765877357,,,2018_Sep_07_1244,59.6076551867,verb_norming_oral_input,001,800,
GRATE,Arm,arm,0,70,70,20,0,0,0,0,,,,,,,,,,,,,7,3.664,,,,,2018_Sep_07_1244,59.6076551867,verb_norming_oral_input,001,800,
GRATE,Leg,leg,0,70,70,20,0,1,1,1,,,,,,,,,,,,,1,0.75,,,,,2018_Sep_07_1244,59.6076551867,verb_norming_oral_input,001,800,
GRATE,,,0,70,70,20,,,,,,,,,,,,,,,,,,,return,1.57677343698,,,2018_Sep_07_1244,59.6076551867,verb_norming_oral_input,001,800,
STOMP,Arm,arm,0,71,71,104,0,0,0,0,,,,,,,,,,,,,1,2.592,,,,,2018_Sep_07_1244,59.6076551867,verb_norming_oral_input,001,800,
STOMP,Leg,leg,0,71,71,104,0,1,1,1,,,,,,,,,,,,,7,0.952,,,,,2018_Sep_07_1244,59.6076551867,verb_norming_oral_input,001,800,
STOMP,,,0,71,71,104,,,,,,,,,,,,,,,,,,,return,1.44271847652,,,2018_Sep_07_1244,59.6076551867,verb_norming_oral_input,001,800,
MOUNT,Arm,arm,0,72,72,81,0,0,0,0,,,,,,,,,,,,,1,2.037,,,,,2018_Sep_07_1244,59.6076551867,verb_norming_oral_input,001,800,
MOUNT,Leg,leg,0,72,72,81,0,1,1,1,,,,,,,,,,,,,7,1.252,,,,,2018_Sep_07_1244,59.6076551867,verb_norming_oral_input,001,800,
MOUNT,,,0,72,72,81,,,,,,,,,,,,,,,,,,,return,3.08633408759,,,2018_Sep_07_1244,59.6076551867,verb_norming_oral_input,001,800,
STAGGER,Arm,arm,0,73,73,100,0,0,0,0,,,,,,,,,,,,,1,5.728,,,,,2018_Sep_07_1244,59.6076551867,verb_norming_oral_input,001,800,
STAGGER,Leg,leg,0,73,73,100,0,1,1,1,,,,,,,,,,,,,7,1.671,,,,,2018_Sep_07_1244,59.6076551867,verb_norming_oral_input,001,800,
STAGGER,,,0,73,73,100,,,,,,,,,,,,,,,,,,,return,13.1321679198,,,2018_Sep_07_1244,59.6076551867,verb_norming_oral_input,001,800,
STROLL,Arm,arm,0,74,74,108,0,0,0,0,,,,,,,,,,,,,1,2.273,,,,,2018_Sep_07_1244,59.6076551867,verb_norming_oral_input,001,800,
STROLL,Leg,leg,0,74,74,108,0,1,1,1,,,,,,,,,,,,,7,1.354,,,,,2018_Sep_07_1244,59.6076551867,verb_norming_oral_input,001,800,
STROLL,,,0,74,74,108,,,,,,,,,,,,,,,,,,,return,1.40898485824,,,2018_Sep_07_1244,59.6076551867,verb_norming_oral_input,001,800,
PLOD,Arm,arm,0,75,75,84,0,0,0,0,,,,,,,,,,,,,1,3.43,,,,,2018_Sep_07_1244,59.6076551867,verb_norming_oral_input,001,800,
PLOD,Leg,leg,0,75,75,84,0,1,1,1,,,,,,,,,,,,,7,1.034,,,,,2018_Sep_07_1244,59.6076551867,verb_norming_oral_input,001,800,
PLOD,,,0,75,75,84,,,,,,,,,,,,,,,,,,,return,2.29809790564,,,2018_Sep_07_1244,59.6076551867,verb_norming_oral_input,001,800,
SKIP,Arm,arm,0,76,76,93,0,0,0,0,,,,,,,,,,,,,1,2.325,,,,,2018_Sep_07_1244,59.6076551867,verb_norming_oral_input,001,800,
SKIP,Leg,leg,0,76,76,93,0,1,1,1,,,,,,,,,,,,,7,1.153,,,,,2018_Sep_07_1244,59.6076551867,verb_norming_oral_input,001,800,
SKIP,,,0,76,76,93,,,,,,,,,,,,,,,,,,,return,2.59969726747,,,2018_Sep_07_1244,59.6076551867,verb_norming_oral_input,001,800,
CLAP,Arm,arm,0,77,77,7,0,0,0,0,,,,,,,,,,,,,7,2.592,,,,,2018_Sep_07_1244,59.6076551867,verb_norming_oral_input,001,800,
CLAP,Leg,leg,0,77,77,7,0,1,1,1,,,,,,,,,,,,,1,1.103,,,,,2018_Sep_07_1244,59.6076551867,verb_norming_oral_input,001,800,
CLAP,,,0,77,77,7,,,,,,,,,,,,,,,,,,,return,2.85157413411,,,2018_Sep_07_1244,59.6076551867,verb_norming_oral_input,001,800,
CATCH,Arm,arm,0,78,78,5,0,0,0,0,,,,,,,,,,,,,7,2.441,,,,,2018_Sep_07_1244,59.6076551867,verb_norming_oral_input,001,800,
CATCH,Leg,leg,0,78,78,5,0,1,1,1,,,,,,,,,,,,,1,1.454,,,,,2018_Sep_07_1244,59.6076551867,verb_norming_oral_input,001,800,
CATCH,,,0,78,78,5,,,,,,,,,,,,,,,,,,,return,1.12411362229,,,2018_Sep_07_1244,59.6076551867,verb_norming_oral_input,001,800,
FLEE,Arm,arm,0,79,79,66,0,0,0,0,,,,,,,,,,,,,1,3.297,,,,,2018_Sep_07_1244,59.6076551867,verb_norming_oral_input,001,800,
FLEE,Leg,leg,0,79,79,66,0,1,1,1,,,,,,,,,,,,,7,0.952,,,,,2018_Sep_07_1244,59.6076551867,verb_norming_oral_input,001,800,
FLEE,,,0,79,79,66,,,,,,,,,,,,,,,,,,,return,0.973211213035,,,2018_Sep_07_1244,59.6076551867,verb_norming_oral_input,001,800,
STRIDE,Arm,arm,0,80,80,107,0,0,0,0,,,,,,,,,,,,,1,5.273,,,,,2018_Sep_07_1244,59.6076551867,verb_norming_oral_input,001,800,
STRIDE,Leg,leg,0,80,80,107,0,1,1,1,,,,,,,,,,,,,7,2.811,,,,,2018_Sep_07_1244,59.6076551867,verb_norming_oral_input,001,800,
STRIDE,,,0,80,80,107,,,,,,,,,,,,,,,,,,,return,9.47584283669,,,2018_Sep_07_1244,59.6076551867,verb_norming_oral_input,001,800,
BASH,Arm,arm,0,81,81,0,0,0,0,0,,,,,,,,,,,,,7,3.633,,,,,2018_Sep_07_1244,59.6076551867,verb_norming_oral_input,001,800,
BASH,Leg,leg,0,81,81,0,0,1,1,1,,,,,,,,,,,,,1,0.784,,,,,2018_Sep_07_1244,59.6076551867,verb_norming_oral_input,001,800,
BASH,,,0,81,81,0,,,,,,,,,,,,,,,,,,,return,1.34195224159,,,2018_Sep_07_1244,59.6076551867,verb_norming_oral_input,001,800,
WASH,Arm,arm,0,82,82,56,0,0,0,0,,,,,,,,,,,,,7,4.119,,,,,2018_Sep_07_1244,59.6076551867,verb_norming_oral_input,001,800,
WASH,Leg,leg,0,82,82,56,0,1,1,1,,,,,,,,,,,,,1,0.684,,,,,2018_Sep_07_1244,59.6076551867,verb_norming_oral_input,001,800,
WASH,,,0,82,82,56,,,,,,,,,,,,,,,,,,,return,1.04004074364,,,2018_Sep_07_1244,59.6076551867,verb_norming_oral_input,001,800,
CLEAN,Arm,arm,0,83,83,9,0,0,0,0,,,,,,,,,,,,,7,3.446,,,,,2018_Sep_07_1244,59.6076551867,verb_norming_oral_input,001,800,
CLEAN,Leg,leg,0,83,83,9,0,1,1,1,,,,,,,,,,,,,1,1.554,,,,,2018_Sep_07_1244,59.6076551867,verb_norming_oral_input,001,800,
CLEAN,,,0,83,83,9,,,,,,,,,,,,,,,,,,,return,4.0422936553,,,2018_Sep_07_1244,59.6076551867,verb_norming_oral_input,001,800,
RUB,Arm,arm,0,84,84,37,0,0,0,0,,,,,,,,,,,,,7,3.398,,,,,2018_Sep_07_1244,59.6076551867,verb_norming_oral_input,001,800,
RUB,Leg,leg,0,84,84,37,0,1,1,1,,,,,,,,,,,,,1,0.483,,,,,2018_Sep_07_1244,59.6076551867,verb_norming_oral_input,001,800,
RUB,,,0,84,84,37,,,,,,,,,,,,,,,,,,,return,1.12411757338,,,2018_Sep_07_1244,59.6076551867,verb_norming_oral_input,001,800,
SCRAPE,Arm,arm,0,85,85,39,0,0,0,0,,,,,,,,,,,,,7,2.374,,,,,2018_Sep_07_1244,59.6076551867,verb_norming_oral_input,001,800,
SCRAPE,Leg,leg,0,85,85,39,0,1,1,1,,,,,,,,,,,,,1,0.624,,,,,2018_Sep_07_1244,59.6076551867,verb_norming_oral_input,001,800,
SCRAPE,,,0,85,85,39,,,,,,,,,,,,,,,,,,,return,1.00668010828,,,2018_Sep_07_1244,59.6076551867,verb_norming_oral_input,001,800,
HACK,Arm,arm,0,86,86,22,0,0,0,0,,,,,,,,,,,,,7,5.075,,,,,2018_Sep_07_1244,59.6076551867,verb_norming_oral_input,001,800,
HACK,Leg,leg,0,86,86,22,0,1,1,1,,,,,,,,,,,,,1,0.784,,,,,2018_Sep_07_1244,59.6076551867,verb_norming_oral_input,001,800,
HACK,,,0,86,86,22,,,,,,,,,,,,,,,,,,,return,1.44265249332,,,2018_Sep_07_1244,59.6076551867,verb_norming_oral_input,001,800,
TRAMPLE,Arm,arm,0,87,87,117,0,0,0,0,,,,,,,,,,,,,1,5.996,,,,,2018_Sep_07_1244,59.6076551867,verb_norming_oral_input,001,800,
TRAMPLE,Leg,leg,0,87,87,117,0,1,1,1,,,,,,,,,,,,,7,1.068,,,,,2018_Sep_07_1244,59.6076551867,verb_norming_oral_input,001,800,
TRAMPLE,,,0,87,87,117,,,,,,,,,,,,,,,,,,,return,3.20348588888,,,2018_Sep_07_1244,59.6076551867,verb_norming_oral_input,001,800,
MARCH,Arm,arm,0,88,88,80,0,0,0,0,,,,,,,,,,,,,1,3.632,,,,,2018_Sep_07_1244,59.6076551867,verb_norming_oral_input,001,800,
MARCH,Leg,leg,0,88,88,80,0,1,1,1,,,,,,,,,,,,,7,0.683,,,,,2018_Sep_07_1244,59.6076551867,verb_norming_oral_input,001,800,
MARCH,,,0,88,88,80,,,,,,,,,,,,,,,,,,,return,1.22449620636,,,2018_Sep_07_1244,59.6076551867,verb_norming_oral_input,001,800,
PEDAL,Arm,arm,0,89,89,83,0,0,0,0,,,,,,,,,,,,,1,2.859,,,,,2018_Sep_07_1244,59.6076551867,verb_norming_oral_input,001,800,
PEDAL,Leg,leg,0,89,89,83,0,1,1,1,,,,,,,,,,,,,7,1.99,,,,,2018_Sep_07_1244,59.6076551867,verb_norming_oral_input,001,800,
PEDAL,,,0,89,89,83,,,,,,,,,,,,,,,,,,,return,7.12799596356,,,2018_Sep_07_1244,59.6076551867,verb_norming_oral_input,001,800,
CROUCH,Arm,arm,0,90,90,62,0,0,0,0,,,,,,,,,,,,,1,3.85,,,,,2018_Sep_07_1244,59.6076551867,verb_norming_oral_input,001,800,
CROUCH,Leg,leg,0,90,90,62,0,1,1,1,,,,,,,,,,,,,7,1.068,,,,,2018_Sep_07_1244,59.6076551867,verb_norming_oral_input,001,800,
CROUCH,,,0,90,90,62,,,,,,,,,,,,,,,,,,,return,1.39223460626,,,2018_Sep_07_1244,59.6076551867,verb_norming_oral_input,001,800,
STIR,Arm,arm,0,91,91,50,0,0,0,0,,,,,,,,,,,,,7,2.777,,,,,2018_Sep_07_1244,59.6076551867,verb_norming_oral_input,001,800,
STIR,Leg,leg,0,91,91,50,0,1,1,1,,,,,,,,,,,,,1,0.767,,,,,2018_Sep_07_1244,59.6076551867,verb_norming_oral_input,001,800,
STIR,,,0,91,91,50,,,,,,,,,,,,,,,,,,,return,1.09058585581,,,2018_Sep_07_1244,59.6076551867,verb_norming_oral_input,001,800,
SLIDE,Arm,arm,0,92,92,94,0,0,0,0,,,,,,,,,,,,,1,3.294,,,,,2018_Sep_07_1244,59.6076551867,verb_norming_oral_input,001,800,
SLIDE,Leg,leg,0,92,92,94,0,1,1,1,,,,,,,,,,,,,7,0.715,,,,,2018_Sep_07_1244,59.6076551867,verb_norming_oral_input,001,800,
SLIDE,,,0,92,92,94,,,,,,,,,,,,,,,,,,,return,1.25828395458,,,2018_Sep_07_1244,59.6076551867,verb_norming_oral_input,001,800,
GLIDE,Arm,arm,0,93,93,67,0,0,0,0,,,,,,,,,,,,,1,3.664,,,,,2018_Sep_07_1244,59.6076551867,verb_norming_oral_input,001,800,
GLIDE,Leg,leg,0,93,93,67,0,1,1,1,,,,,,,,,,,,,7,0.966,,,,,2018_Sep_07_1244,59.6076551867,verb_norming_oral_input,001,800,
GLIDE,,,0,93,93,67,,,,,,,,,,,,,,,,,,,return,2.04642807613,,,2018_Sep_07_1244,59.6076551867,verb_norming_oral_input,001,800,
TRUDGE,Arm,arm,0,94,94,122,0,0,0,0,,,,,,,,,,,,,1,4.485,,,,,2018_Sep_07_1244,59.6076551867,verb_norming_oral_input,001,800,
TRUDGE,Leg,leg,0,94,94,122,0,1,1,1,,,,,,,,,,,,,7,3.666,,,,,2018_Sep_07_1244,59.6076551867,verb_norming_oral_input,001,800,
TRUDGE,,,0,94,94,122,,,,,,,,,,,,,,,,,,,return,1.50973449859,,,2018_Sep_07_1244,59.6076551867,verb_norming_oral_input,001,800,
TRIP,Arm,arm,0,95,95,120,0,0,0,0,,,,,,,,,,,,,1,2.458,,,,,2018_Sep_07_1244,59.6076551867,verb_norming_oral_input,001,800,
TRIP,Leg,leg,0,95,95,120,0,1,1,1,,,,,,,,,,,,,7,2.462,,,,,2018_Sep_07_1244,59.6076551867,verb_norming_oral_input,001,800,
TRIP,,,0,95,95,120,,,,,,,,,,,,,,,,,,,return,2.43227455968,,,2018_Sep_07_1244,59.6076551867,verb_norming_oral_input,001,800,
SQUAT,Arm,arm,0,96,96,99,0,0,0,0,,,,,,,,,,,,,1,2.775,,,,,2018_Sep_07_1244,59.6076551867,verb_norming_oral_input,001,800,
SQUAT,Leg,leg,0,96,96,99,0,1,1,1,,,,,,,,,,,,,7,2.56,,,,,2018_Sep_07_1244,59.6076551867,verb_norming_oral_input,001,800,
SQUAT,,,0,96,96,99,,,,,,,,,,,,,,,,,,,return,4.9143269298,,,2018_Sep_07_1244,59.6076551867,verb_norming_oral_input,001,800,
WHIP,Arm,arm,0,97,97,57,0,0,0,0,,,,,,,,,,,,,7,2.861,,,,,2018_Sep_07_1244,59.6076551867,verb_norming_oral_input,001,800,
WHIP,Leg,leg,0,97,97,57,0,1,1,1,,,,,,,,,,,,,1,0.734,,,,,2018_Sep_07_1244,59.6076551867,verb_norming_oral_input,001,800,
WHIP,,,0,97,97,57,,,,,,,,,,,,,,,,,,,return,2.91849770066,,,2018_Sep_07_1244,59.6076551867,verb_norming_oral_input,001,800,
INCH,Arm,arm,0,98,98,72,0,0,0,0,,,,,,,,,,,,,1,4.033,,,,,2018_Sep_07_1244,59.6076551867,verb_norming_oral_input,001,800,
INCH,Leg,leg,0,98,98,72,0,1,1,1,,,,,,,,,,,,,7,1.569,,,,,2018_Sep_07_1244,59.6076551867,verb_norming_oral_input,001,800,
INCH,,,0,98,98,72,,,,,,,,,,,,,,,,,,,return,9.44252842908,,,2018_Sep_07_1244,59.6076551867,verb_norming_oral_input,001,800,
HOBBLE,Arm,arm,0,99,99,70,0,0,0,0,,,,,,,,,,,,,4,3.531,,,,,2018_Sep_07_1244,59.6076551867,verb_norming_oral_input,001,800,
HOBBLE,Leg,leg,0,99,99,70,0,1,1,1,,,,,,,,,,,,,4,0.749,,,,,2018_Sep_07_1244,59.6076551867,verb_norming_oral_input,001,800,
HOBBLE,,,0,99,99,70,,,,,,,,,,,,,,,,,,,return,1.27506304952,,,2018_Sep_07_1244,59.6076551867,verb_norming_oral_input,001,800,
SEIZE,Arm,arm,0,100,100,42,0,0,0,0,,,,,,,,,,,,,7,2.355,,,,,2018_Sep_07_1244,59.6076551867,verb_norming_oral_input,001,800,
SEIZE,Leg,leg,0,100,100,42,0,1,1,1,,,,,,,,,,,,,1,0.681,,,,,2018_Sep_07_1244,59.6076551867,verb_norming_oral_input,001,800,
SEIZE,,,0,100,100,42,,,,,,,,,,,,,,,,,,,return,0.956279210905,,,2018_Sep_07_1244,59.6076551867,verb_norming_oral_input,001,800,
FILE,Arm,arm,0,101,101,15,0,0,0,0,,,,,,,,,,,,,7,2.425,,,,,2018_Sep_07_1244,59.6076551867,verb_norming_oral_input,001,800,
FILE,Leg,leg,0,101,101,15,0,1,1,1,,,,,,,,,,,,,1,1.119,,,,,2018_Sep_07_1244,59.6076551867,verb_norming_oral_input,001,800,
FILE,,,0,101,101,15,,,,,,,,,,,,,,,,,,,return,4.52844212068,,,2018_Sep_07_1244,59.6076551867,verb_norming_oral_input,001,800,
SLAP,Arm,arm,0,102,102,46,0,0,0,0,,,,,,,,,,,,,7,3.096,,,,,2018_Sep_07_1244,59.6076551867,verb_norming_oral_input,001,800,
SLAP,Leg,leg,0,102,102,46,0,1,1,1,,,,,,,,,,,,,1,0.834,,,,,2018_Sep_07_1244,59.6076551867,verb_norming_oral_input,001,800,
SLAP,,,0,102,102,46,,,,,,,,,,,,,,,,,,,return,2.48256482653,,,2018_Sep_07_1244,59.6076551867,verb_norming_oral_input,001,800,
SHAMBLE,Arm,arm,0,103,103,91,0,0,0,0,,,,,,,,,,,,,4,2.792,,,,,2018_Sep_07_1244,59.6076551867,verb_norming_oral_input,001,800,
SHAMBLE,Leg,leg,0,103,103,91,0,1,1,1,,,,,,,,,,,,,4,0.682,,,,,2018_Sep_07_1244,59.6076551867,verb_norming_oral_input,001,800,
SHAMBLE,,,0,103,103,91,,,,,,,,,,,,,,,,,,,return,1.17440744512,,,2018_Sep_07_1244,59.6076551867,verb_norming_oral_input,001,800,
WADDLE,Arm,arm,0,104,104,123,0,0,0,0,,,,,,,,,,,,,1,5.793,,,,,2018_Sep_07_1244,59.6076551867,verb_norming_oral_input,001,800,
WADDLE,Leg,leg,0,104,104,123,0,1,1,1,,,,,,,,,,,,,7,0.933,,,,,2018_Sep_07_1244,59.6076551867,verb_norming_oral_input,001,800,
WADDLE,,,0,104,104,123,,,,,,,,,,,,,,,,,,,return,11.2034033111,,,2018_Sep_07_1244,59.6076551867,verb_norming_oral_input,001,800,
TOTTER,Arm,arm,0,105,105,114,0,0,0,0,,,,,,,,,,,,,4,3.447,,,,,2018_Sep_07_1244,59.6076551867,verb_norming_oral_input,001,800,
TOTTER,Leg,leg,0,105,105,114,0,1,1,1,,,,,,,,,,,,,4,0.766,,,,,2018_Sep_07_1244,59.6076551867,verb_norming_oral_input,001,800,
TOTTER,,,0,105,105,114,,,,,,,,,,,,,,,,,,,return,0.939427811014,,,2018_Sep_07_1244,59.6076551867,verb_norming_oral_input,001,800,
PRANCE,Arm,arm,0,106,106,85,0,0,0,0,,,,,,,,,,,,,1,2.624,,,,,2018_Sep_07_1244,59.6076551867,verb_norming_oral_input,001,800,
PRANCE,Leg,leg,0,106,106,85,0,1,1,1,,,,,,,,,,,,,7,1.738,,,,,2018_Sep_07_1244,59.6076551867,verb_norming_oral_input,001,800,
PRANCE,,,0,106,106,85,,,,,,,,,,,,,,,,,,,return,12.5449130306,,,2018_Sep_07_1244,59.6076551867,verb_norming_oral_input,001,800,
SNATCH,Arm,arm,0,107,107,47,0,0,0,0,,,,,,,,,,,,,7,2.893,,,,,2018_Sep_07_1244,59.6076551867,verb_norming_oral_input,001,800,
SNATCH,Leg,leg,0,107,107,47,0,1,1,1,,,,,,,,,,,,,1,1.048,,,,,2018_Sep_07_1244,59.6076551867,verb_norming_oral_input,001,800,
SNATCH,,,0,107,107,47,,,,,,,,,,,,,,,,,,,return,1.84505285966,,,2018_Sep_07_1244,59.6076551867,verb_norming_oral_input,001,800,
LUMBER,Arm,arm,0,108,108,79,0,0,0,0,,,,,,,,,,,,,1,4.286,,,,,2018_Sep_07_1244,59.6076551867,verb_norming_oral_input,001,800,
LUMBER,Leg,leg,0,108,108,79,0,1,1,1,,,,,,,,,,,,,7,1.588,,,,,2018_Sep_07_1244,59.6076551867,verb_norming_oral_input,001,800,
LUMBER,,,0,108,108,79,,,,,,,,,,,,,,,,,,,return,1.44273744176,,,2018_Sep_07_1244,59.6076551867,verb_norming_oral_input,001,800,
STAMP,Arm,arm,0,109,109,101,0,0,0,0,,,,,,,,,,,,,1,2.289,,,,,2018_Sep_07_1244,59.6076551867,verb_norming_oral_input,001,800,
STAMP,Leg,leg,0,109,109,101,0,1,1,1,,,,,,,,,,,,,7,0.448,,,,,2018_Sep_07_1244,59.6076551867,verb_norming_oral_input,001,800,
STAMP,,,0,109,109,101,,,,,,,,,,,,,,,,,,,return,14.2557963482,,,2018_Sep_07_1244,59.6076551867,verb_norming_oral_input,001,800,
HUG,Arm,arm,0,110,110,23,0,0,0,0,,,,,,,,,,,,,7,4.472,,,,,2018_Sep_07_1244,59.6076551867,verb_norming_oral_input,001,800,
HUG,Leg,leg,0,110,110,23,0,1,1,1,,,,,,,,,,,,,1,1.623,,,,,2018_Sep_07_1244,59.6076551867,verb_norming_oral_input,001,800,
HUG,,,0,110,110,23,,,,,,,,,,,,,,,,,,,return,0.838965810031,,,2018_Sep_07_1244,59.6076551867,verb_norming_oral_input,001,800,
DASH,Arm,arm,0,111,111,65,0,0,0,0,,,,,,,,,,,,,7,3.413,,,,,2018_Sep_07_1244,59.6076551867,verb_norming_oral_input,001,800,
DASH,Leg,leg,0,111,111,65,0,1,1,1,,,,,,,,,,,,,1,0.968,,,,,2018_Sep_07_1244,59.6076551867,verb_norming_oral_input,001,800,
DASH,,,0,111,111,65,,,,,,,,,,,,,,,,,,,return,1.12391567267,,,2018_Sep_07_1244,59.6076551867,verb_norming_oral_input,001,800,
GROVEL,Arm,arm,0,112,112,68,0,0,0,0,,,,,,,,,,,,,5,10.507,,,,,2018_Sep_07_1244,59.6076551867,verb_norming_oral_input,001,800,
GROVEL,Leg,leg,0,112,112,68,0,1,1,1,,,,,,,,,,,,,2,2.259,,,,,2018_Sep_07_1244,59.6076551867,verb_norming_oral_input,001,800,
GROVEL,,,0,112,112,68,,,,,,,,,,,,,,,,,,,return,4.84705606242,,,2018_Sep_07_1244,59.6076551867,verb_norming_oral_input,001,800,
DIG,Arm,arm,0,113,113,13,0,0,0,0,,,,,,,,,,,,,7,3.313,,,,,2018_Sep_07_1244,59.6076551867,verb_norming_oral_input,001,800,
DIG,Leg,leg,0,113,113,13,0,1,1,1,,,,,,,,,,,,,1,0.596,,,,,2018_Sep_07_1244,59.6076551867,verb_norming_oral_input,001,800,
DIG,,,0,113,113,13,,,,,,,,,,,,,,,,,,,return,0.855833409392,,,2018_Sep_07_1244,59.6076551867,verb_norming_oral_input,001,800,
PEEL,Arm,arm,0,114,114,28,0,0,0,0,,,,,,,,,,,,,7,3.011,,,,,2018_Sep_07_1244,59.6076551867,verb_norming_oral_input,001,800,
PEEL,Leg,leg,0,114,114,28,0,1,1,1,,,,,,,,,,,,,1,1.002,,,,,2018_Sep_07_1244,59.6076551867,verb_norming_oral_input,001,800,
PEEL,,,0,114,114,28,,,,,,,,,,,,,,,,,,,return,0.855617679865,,,2018_Sep_07_1244,59.6076551867,verb_norming_oral_input,001,800,
TRAMP,Arm,arm,0,115,115,116,0,0,0,0,,,,,,,,,,,,,1,3.33,,,,,2018_Sep_07_1244,59.6076551867,verb_norming_oral_input,001,800,
TRAMP,Leg,leg,0,115,115,116,0,1,1,1,,,,,,,,,,,,,7,1.069,,,,,2018_Sep_07_1244,59.6076551867,verb_norming_oral_input,001,800,
TRAMP,,,0,115,115,116,,,,,,,,,,,,,,,,,,,return,2.28121015572,,,2018_Sep_07_1244,59.6076551867,verb_norming_oral_input,001,800,
GRAB,Arm,arm,0,116,116,18,0,0,0,0,,,,,,,,,,,,,7,3.028,,,,,2018_Sep_07_1244,59.6076551867,verb_norming_oral_input,001,800,
GRAB,Leg,leg,0,116,116,18,0,1,1,1,,,,,,,,,,,,,1,0.513,,,,,2018_Sep_07_1244,59.6076551867,verb_norming_oral_input,001,800,
GRAB,,,0,116,116,18,,,,,,,,,,,,,,,,,,,return,2.51593929071,,,2018_Sep_07_1244,59.6076551867,verb_norming_oral_input,001,800,
ROW,Arm,arm,0,117,117,36,0,0,0,0,,,,,,,,,,,,,7,3.247,,,,,2018_Sep_07_1244,59.6076551867,verb_norming_oral_input,001,800,
ROW,Leg,leg,0,117,117,36,0,1,1,1,,,,,,,,,,,,,1,1.305,,,,,2018_Sep_07_1244,59.6076551867,verb_norming_oral_input,001,800,
ROW,,,0,117,117,36,,,,,,,,,,,,,,,,,,,return,0.95627288916,,,2018_Sep_07_1244,59.6076551867,verb_norming_oral_input,001,800,
KNEEL,Arm,arm,0,118,118,76,0,0,0,0,,,,,,,,,,,,,1,3.043,,,,,2018_Sep_07_1244,59.6076551867,verb_norming_oral_input,001,800,
KNEEL,Leg,leg,0,118,118,76,0,1,1,1,,,,,,,,,,,,,7,1.032,,,,,2018_Sep_07_1244,59.6076551867,verb_norming_oral_input,001,800,
KNEEL,,,0,118,118,76,,,,,,,,,,,,,,,,,,,return,2.38194557215,,,2018_Sep_07_1244,59.6076551867,verb_norming_oral_input,001,800,
SCRUB,Arm,arm,0,119,119,41,0,0,0,0,,,,,,,,,,,,,7,3.028,,,,,2018_Sep_07_1244,59.6076551867,verb_norming_oral_input,001,800,
SCRUB,Leg,leg,0,119,119,41,0,1,1,1,,,,,,,,,,,,,1,0.649,,,,,2018_Sep_07_1244,59.6076551867,verb_norming_oral_input,001,800,
SCRUB,,,0,119,119,41,,,,,,,,,,,,,,,,,,,return,1.29174573786,,,2018_Sep_07_1244,59.6076551867,verb_norming_oral_input,001,800,
POKE,Arm,arm,0,120,120,31,0,0,0,0,,,,,,,,,,,,,7,3.851,,,,,2018_Sep_07_1244,59.6076551867,verb_norming_oral_input,001,800,
POKE,Leg,leg,0,120,120,31,0,1,1,1,,,,,,,,,,,,,1,0.499,,,,,2018_Sep_07_1244,59.6076551867,verb_norming_oral_input,001,800,
POKE,,,0,120,120,31,,,,,,,,,,,,,,,,,,,return,0.989942104676,,,2018_Sep_07_1244,59.6076551867,verb_norming_oral_input,001,800,
STRAY,Arm,arm,0,121,121,106,0,0,0,0,,,,,,,,,,,,,1,3.313,,,,,2018_Sep_07_1244,59.6076551867,verb_norming_oral_input,001,800,
STRAY,Leg,leg,0,121,121,106,0,1,1,1,,,,,,,,,,,,,7,1.505,,,,,2018_Sep_07_1244,59.6076551867,verb_norming_oral_input,001,800,
STRAY,,,0,121,121,106,,,,,,,,,,,,,,,,,,,return,3.79058826597,,,2018_Sep_07_1244,59.6076551867,verb_norming_oral_input,001,800,
CUT,Arm,arm,0,122,122,12,0,0,0,0,,,,,,,,,,,,,7,2.996,,,,,2018_Sep_07_1244,59.6076551867,verb_norming_oral_input,001,800,
CUT,Leg,leg,0,122,122,12,0,1,1,1,,,,,,,,,,,,,1,1.003,,,,,2018_Sep_07_1244,59.6076551867,verb_norming_oral_input,001,800,
CUT,,,0,122,122,12,,,,,,,,,,,,,,,,,,,return,5.61954793996,,,2018_Sep_07_1244,59.6076551867,verb_norming_oral_input,001,800,
POLISH,Arm,arm,0,123,123,32,0,0,0,0,,,,,,,,,,,,,7,2.692,,,,,2018_Sep_07_1244,59.6076551867,verb_norming_oral_input,001,800,
POLISH,Leg,leg,0,123,123,32,0,1,1,1,,,,,,,,,,,,,1,1.554,,,,,2018_Sep_07_1244,59.6076551867,verb_norming_oral_input,001,800,
POLISH,,,0,123,123,32,,,,,,,,,,,,,,,,,,,return,8.93927450871,,,2018_Sep_07_1244,59.6076551867,verb_norming_oral_input,001,800,
BOUNCE,Arm,arm,0,124,124,60,0,0,0,0,,,,,,,,,,,,,3,8.611,,,,,2018_Sep_07_1244,59.6076551867,verb_norming_oral_input,001,800,
BOUNCE,Leg,leg,0,124,124,60,0,1,1,1,,,,,,,,,,,,,7,2.057,,,,,2018_Sep_07_1244,59.6076551867,verb_norming_oral_input,001,800,
BOUNCE,,,0,124,124,60,,,,,,,,,,,,,,,,,,,return,1.49307314614,,,2018_Sep_07_1244,59.6076551867,verb_norming_oral_input,001,800,
TUG,Arm,arm,0,125,125,54,0,0,0,0,,,,,,,,,,,,,4,5.981,,,,,2018_Sep_07_1244,59.6076551867,verb_norming_oral_input,001,800,
TUG,Leg,leg,0,125,125,54,0,1,1,1,,,,,,,,,,,,,4,0.447,,,,,2018_Sep_07_1244,59.6076551867,verb_norming_oral_input,001,800,
TUG,,,0,125,125,54,,,,,,,,,,,,,,,,,,,return,1.17440467936,,,2018_Sep_07_1244,59.6076551867,verb_norming_oral_input,001,800,
CYCLE,Arm,arm,0,126,126,63,0,0,0,0,,,,,,,,,,,,,1,2.106,,,,,2018_Sep_07_1244,59.6076551867,verb_norming_oral_input,001,800,
CYCLE,Leg,leg,0,126,126,63,0,1,1,1,,,,,,,,,,,,,7,0.633,,,,,2018_Sep_07_1244,59.6076551867,verb_norming_oral_input,001,800,
CYCLE,,,0,126,126,63,,,,,,,,,,,,,,,,,,,return,0.889333518244,,,2018_Sep_07_1244,59.6076551867,verb_norming_oral_input,001,800,
SIGN,Arm,arm,0,127,127,44,0,0,0,0,,,,,,,,,,,,,7,2.39,,,,,2018_Sep_07_1244,59.6076551867,verb_norming_oral_input,001,800,
SIGN,Leg,leg,0,127,127,44,0,1,1,1,,,,,,,,,,,,,1,0.615,,,,,2018_Sep_07_1244,59.6076551867,verb_norming_oral_input,001,800,
SIGN,,,0,127,127,44,,,,,,,,,,,,,,,,,,,return,2.1806458215,,,2018_Sep_07_1244,59.6076551867,verb_norming_oral_input,001,800,
,,,,,,,,,,,,,,,,,,,,,,,,,,,space,11.5723612545,2018_Sep_07_1244,59.6076551867,verb_norming_oral_input,001,800,
