word,category,category_lowercase,trials.thisRepN,trials.thisTrialN,trials.thisN,trials.thisIndex,armleg_loop.thisRepN,armleg_loop.thisTrialN,armleg_loop.thisN,armleg_loop.thisIndex,rating.response,rating.rt,key_resp_7.keys,key_resp_7.rt,date,frameRate,expName,session,participant,
STEP,Leg,leg,0,0,0,103,0,0,0,0,7,23.772,,,2018_Sep_10_1112,59.2348110198,verb_norming_L2-eng_oral_translation,001,801,
STEP,Arm,arm,0,0,0,103,0,1,1,1,1,6.855,,,2018_Sep_10_1112,59.2348110198,verb_norming_L2-eng_oral_translation,001,801,
STEP,,,0,0,0,103,,,,,,,return,13.2667196911,2018_Sep_10_1112,59.2348110198,verb_norming_L2-eng_oral_translation,001,801,
PAT,Leg,leg,0,1,1,27,0,0,0,0,1,7.036,,,2018_Sep_10_1112,59.2348110198,verb_norming_L2-eng_oral_translation,001,801,
PAT,Arm,arm,0,1,1,27,0,1,1,1,5,57.773,,,2018_Sep_10_1112,59.2348110198,verb_norming_L2-eng_oral_translation,001,801,
PAT,,,0,1,1,27,,,,,,,return,11.9748461817,2018_Sep_10_1112,59.2348110198,verb_norming_L2-eng_oral_translation,001,801,
WHIP,Leg,leg,0,2,2,57,0,0,0,0,1,11.884,,,2018_Sep_10_1112,59.2348110198,verb_norming_L2-eng_oral_translation,001,801,
WHIP,Arm,arm,0,2,2,57,0,1,1,1,3,8.65,,,2018_Sep_10_1112,59.2348110198,verb_norming_L2-eng_oral_translation,001,801,
WHIP,,,0,2,2,57,,,,,,,return,9.66053527035,2018_Sep_10_1112,59.2348110198,verb_norming_L2-eng_oral_translation,001,801,
CLICK,Leg,leg,0,3,3,10,0,0,0,0,1,6.181,,,2018_Sep_10_1112,59.2348110198,verb_norming_L2-eng_oral_translation,001,801,
CLICK,Arm,arm,0,3,3,10,0,1,1,1,3,6.821,,,2018_Sep_10_1112,59.2348110198,verb_norming_L2-eng_oral_translation,001,801,
CLICK,,,0,3,3,10,,,,,,,return,5.92067313391,2018_Sep_10_1112,59.2348110198,verb_norming_L2-eng_oral_translation,001,801,
RUN,Leg,leg,0,4,4,88,0,0,0,0,7,7.171,,,2018_Sep_10_1112,59.2348110198,verb_norming_L2-eng_oral_translation,001,801,
RUN,Arm,arm,0,4,4,88,0,1,1,1,3,12.038,,,2018_Sep_10_1112,59.2348110198,verb_norming_L2-eng_oral_translation,001,801,
RUN,,,0,4,4,88,,,,,,,return,4.98140390721,2018_Sep_10_1112,59.2348110198,verb_norming_L2-eng_oral_translation,001,801,
TOTTER,Leg,leg,0,5,5,114,0,0,0,0,3,14.046,,,2018_Sep_10_1112,59.2348110198,verb_norming_L2-eng_oral_translation,001,801,
TOTTER,Arm,arm,0,5,5,114,0,1,1,1,3,30.418,,,2018_Sep_10_1112,59.2348110198,verb_norming_L2-eng_oral_translation,001,801,
TOTTER,,,0,5,5,114,,,,,,,return,5.60219770928,2018_Sep_10_1112,59.2348110198,verb_norming_L2-eng_oral_translation,001,801,
DANCE,Leg,leg,0,6,6,64,0,0,0,0,7,7.588,,,2018_Sep_10_1112,59.2348110198,verb_norming_L2-eng_oral_translation,001,801,
DANCE,Arm,arm,0,6,6,64,0,1,1,1,6,7.625,,,2018_Sep_10_1112,59.2348110198,verb_norming_L2-eng_oral_translation,001,801,
DANCE,,,0,6,6,64,,,,,,,return,5.01500410129,2018_Sep_10_1112,59.2348110198,verb_norming_L2-eng_oral_translation,001,801,
STAND,Leg,leg,0,7,7,102,0,0,0,0,7,6.466,,,2018_Sep_10_1112,59.2348110198,verb_norming_L2-eng_oral_translation,001,801,
STAND,Arm,arm,0,7,7,102,0,1,1,1,3,9.353,,,2018_Sep_10_1112,59.2348110198,verb_norming_L2-eng_oral_translation,001,801,
STAND,,,0,7,7,102,,,,,,,return,7.44692379178,2018_Sep_10_1112,59.2348110198,verb_norming_L2-eng_oral_translation,001,801,
LEAP,Leg,leg,0,8,8,77,0,0,0,0,4,27.112,,,2018_Sep_10_1112,59.2348110198,verb_norming_L2-eng_oral_translation,001,801,
LEAP,Arm,arm,0,8,8,77,0,1,1,1,4,7.443,,,2018_Sep_10_1112,59.2348110198,verb_norming_L2-eng_oral_translation,001,801,
LEAP,,,0,8,8,77,,,,,,,return,15.0490100786,2018_Sep_10_1112,59.2348110198,verb_norming_L2-eng_oral_translation,001,801,
KICK,Leg,leg,0,9,9,75,0,0,0,0,7,4.354,,,2018_Sep_10_1112,59.2348110198,verb_norming_L2-eng_oral_translation,001,801,
KICK,Arm,arm,0,9,9,75,0,1,1,1,1,5.346,,,2018_Sep_10_1112,59.2348110198,verb_norming_L2-eng_oral_translation,001,801,
KICK,,,0,9,9,75,,,,,,,return,3.43855801949,2018_Sep_10_1112,59.2348110198,verb_norming_L2-eng_oral_translation,001,801,
PLOD,Leg,leg,0,10,10,84,0,0,0,0,4,11.867,,,2018_Sep_10_1112,59.2348110198,verb_norming_L2-eng_oral_translation,001,801,
PLOD,Arm,arm,0,10,10,84,0,1,1,1,7,6.973,,,2018_Sep_10_1112,59.2348110198,verb_norming_L2-eng_oral_translation,001,801,
PLOD,,,0,10,10,84,,,,,,,return,2.38170530102,2018_Sep_10_1112,59.2348110198,verb_norming_L2-eng_oral_translation,001,801,
SIGN,Leg,leg,0,11,11,44,0,0,0,0,1,5.66,,,2018_Sep_10_1112,59.2348110198,verb_norming_L2-eng_oral_translation,001,801,
SIGN,Arm,arm,0,11,11,44,0,1,1,1,3,5.43,,,2018_Sep_10_1112,59.2348110198,verb_norming_L2-eng_oral_translation,001,801,
SIGN,,,0,11,11,44,,,,,,,return,3.69009146125,2018_Sep_10_1112,59.2348110198,verb_norming_L2-eng_oral_translation,001,801,
WASH,Leg,leg,0,12,12,56,0,0,0,0,1,9.653,,,2018_Sep_10_1112,59.2348110198,verb_norming_L2-eng_oral_translation,001,801,
WASH,Arm,arm,0,12,12,56,0,1,1,1,7,2.411,,,2018_Sep_10_1112,59.2348110198,verb_norming_L2-eng_oral_translation,001,801,
WASH,,,0,12,12,56,,,,,,,return,2.07991993387,2018_Sep_10_1112,59.2348110198,verb_norming_L2-eng_oral_translation,001,801,
SHAKE,Leg,leg,0,13,13,43,0,0,0,0,4,5.594,,,2018_Sep_10_1112,59.2348110198,verb_norming_L2-eng_oral_translation,001,801,
SHAKE,Arm,arm,0,13,13,43,0,1,1,1,7,3.551,,,2018_Sep_10_1112,59.2348110198,verb_norming_L2-eng_oral_translation,001,801,
SHAKE,,,0,13,13,43,,,,,,,return,2.70056003616,2018_Sep_10_1112,59.2348110198,verb_norming_L2-eng_oral_translation,001,801,
MARCH,Leg,leg,0,14,14,80,0,0,0,0,7,5.574,,,2018_Sep_10_1112,59.2348110198,verb_norming_L2-eng_oral_translation,001,801,
MARCH,Arm,arm,0,14,14,80,0,1,1,1,3,3.433,,,2018_Sep_10_1112,59.2348110198,verb_norming_L2-eng_oral_translation,001,801,
MARCH,,,0,14,14,80,,,,,,,return,2.28121251345,2018_Sep_10_1112,59.2348110198,verb_norming_L2-eng_oral_translation,001,801,
TIPTOE,Leg,leg,0,15,15,112,0,0,0,0,6,5.946,,,2018_Sep_10_1112,59.2348110198,verb_norming_L2-eng_oral_translation,001,801,
TIPTOE,Arm,arm,0,15,15,112,0,1,1,1,2,4.203,,,2018_Sep_10_1112,59.2348110198,verb_norming_L2-eng_oral_translation,001,801,
TIPTOE,,,0,15,15,112,,,,,,,return,9.97937538623,2018_Sep_10_1112,59.2348110198,verb_norming_L2-eng_oral_translation,001,801,
THROW,Leg,leg,0,16,16,52,0,0,0,0,1,5.326,,,2018_Sep_10_1112,59.2348110198,verb_norming_L2-eng_oral_translation,001,801,
THROW,Arm,arm,0,16,16,52,0,1,1,1,7,2.746,,,2018_Sep_10_1112,59.2348110198,verb_norming_L2-eng_oral_translation,001,801,
THROW,,,0,16,16,52,,,,,,,return,7.19529947355,2018_Sep_10_1112,59.2348110198,verb_norming_L2-eng_oral_translation,001,801,
LIFT,Leg,leg,0,17,17,25,0,0,0,0,1,3.364,,,2018_Sep_10_1112,59.2348110198,verb_norming_L2-eng_oral_translation,001,801,
LIFT,Arm,arm,0,17,17,25,0,1,1,1,7,2.529,,,2018_Sep_10_1112,59.2348110198,verb_norming_L2-eng_oral_translation,001,801,
LIFT,,,0,17,17,25,,,,,,,return,2.6165672557,2018_Sep_10_1112,59.2348110198,verb_norming_L2-eng_oral_translation,001,801,
SKATE,Leg,leg,0,18,18,92,0,0,0,0,7,5.913,,,2018_Sep_10_1112,59.2348110198,verb_norming_L2-eng_oral_translation,001,801,
SKATE,Arm,arm,0,18,18,92,0,1,1,1,2,7.341,,,2018_Sep_10_1112,59.2348110198,verb_norming_L2-eng_oral_translation,001,801,
SKATE,,,0,18,18,92,,,,,,,return,1.62725986089,2018_Sep_10_1112,59.2348110198,verb_norming_L2-eng_oral_translation,001,801,
WADE,Leg,leg,0,19,19,124,0,0,0,0,6,7.154,,,2018_Sep_10_1112,59.2348110198,verb_norming_L2-eng_oral_translation,001,801,
WADE,Arm,arm,0,19,19,124,0,1,1,1,3,4.256,,,2018_Sep_10_1112,59.2348110198,verb_norming_L2-eng_oral_translation,001,801,
WADE,,,0,19,19,124,,,,,,,return,3.17019622997,2018_Sep_10_1112,59.2348110198,verb_norming_L2-eng_oral_translation,001,801,
TRIP,Leg,leg,0,20,20,120,0,0,0,0,6,10.693,,,2018_Sep_10_1112,59.2348110198,verb_norming_L2-eng_oral_translation,001,801,
TRIP,Arm,arm,0,20,20,120,0,1,1,1,2,4.91,,,2018_Sep_10_1112,59.2348110198,verb_norming_L2-eng_oral_translation,001,801,
TRIP,,,0,20,20,120,,,,,,,return,2.26463387843,2018_Sep_10_1112,59.2348110198,verb_norming_L2-eng_oral_translation,001,801,
ROAM,Leg,leg,0,21,21,87,0,0,0,0,1,12.016,,,2018_Sep_10_1112,59.2348110198,verb_norming_L2-eng_oral_translation,001,801,
ROAM,Arm,arm,0,21,21,87,0,1,1,1,1,1.286,,,2018_Sep_10_1112,59.2348110198,verb_norming_L2-eng_oral_translation,001,801,
ROAM,,,0,21,21,87,,,,,,,return,15.4971002502,2018_Sep_10_1112,59.2348110198,verb_norming_L2-eng_oral_translation,001,801,
WOBBLE,Leg,leg,0,22,22,127,0,0,0,0,7,7.757,,,2018_Sep_10_1112,59.2348110198,verb_norming_L2-eng_oral_translation,001,801,
WOBBLE,Arm,arm,0,22,22,127,0,1,1,1,1,4.456,,,2018_Sep_10_1112,59.2348110198,verb_norming_L2-eng_oral_translation,001,801,
WOBBLE,,,0,22,22,127,,,,,,,return,4.67828226075,2018_Sep_10_1112,59.2348110198,verb_norming_L2-eng_oral_translation,001,801,
STAB,Leg,leg,0,23,23,49,0,0,0,0,1,6.534,,,2018_Sep_10_1112,59.2348110198,verb_norming_L2-eng_oral_translation,001,801,
STAB,Arm,arm,0,23,23,49,0,1,1,1,7,5.111,,,2018_Sep_10_1112,59.2348110198,verb_norming_L2-eng_oral_translation,001,801,
STAB,,,0,23,23,49,,,,,,,return,1.82847894906,2018_Sep_10_1112,59.2348110198,verb_norming_L2-eng_oral_translation,001,801,
RAMBLE,Leg,leg,0,24,24,86,0,0,0,0,6,10.137,,,2018_Sep_10_1112,59.2348110198,verb_norming_L2-eng_oral_translation,001,801,
RAMBLE,Arm,arm,0,24,24,86,0,1,1,1,4,5.327,,,2018_Sep_10_1112,59.2348110198,verb_norming_L2-eng_oral_translation,001,801,
RAMBLE,,,0,24,24,86,,,,,,,return,10.2645655235,2018_Sep_10_1112,59.2348110198,verb_norming_L2-eng_oral_translation,001,801,
WRAP,Leg,leg,0,25,25,59,0,0,0,0,2,7.133,,,2018_Sep_10_1112,59.2348110198,verb_norming_L2-eng_oral_translation,001,801,
WRAP,Arm,arm,0,25,25,59,0,1,1,1,2,5.312,,,2018_Sep_10_1112,59.2348110198,verb_norming_L2-eng_oral_translation,001,801,
WRAP,,,0,25,25,59,,,,,,,return,11.0693624581,2018_Sep_10_1112,59.2348110198,verb_norming_L2-eng_oral_translation,001,801,
HOBBLE,Leg,leg,0,26,26,70,0,0,0,0,2,8.193,,,2018_Sep_10_1112,59.2348110198,verb_norming_L2-eng_oral_translation,001,801,
HOBBLE,Arm,arm,0,26,26,70,0,1,1,1,2,2.175,,,2018_Sep_10_1112,59.2348110198,verb_norming_L2-eng_oral_translation,001,801,
HOBBLE,,,0,26,26,70,,,,,,,return,1.72764478203,2018_Sep_10_1112,59.2348110198,verb_norming_L2-eng_oral_translation,001,801,
TWINE,Leg,leg,0,27,27,55,0,0,0,0,1,8.328,,,2018_Sep_10_1112,59.2348110198,verb_norming_L2-eng_oral_translation,001,801,
TWINE,Arm,arm,0,27,27,55,0,1,1,1,7,2.327,,,2018_Sep_10_1112,59.2348110198,verb_norming_L2-eng_oral_translation,001,801,
TWINE,,,0,27,27,55,,,,,,,return,15.2956749119,2018_Sep_10_1112,59.2348110198,verb_norming_L2-eng_oral_translation,001,801,
RUB,Leg,leg,0,28,28,37,0,0,0,0,1,5.544,,,2018_Sep_10_1112,59.2348110198,verb_norming_L2-eng_oral_translation,001,801,
RUB,Arm,arm,0,28,28,37,0,1,1,1,7,2.093,,,2018_Sep_10_1112,59.2348110198,verb_norming_L2-eng_oral_translation,001,801,
RUB,,,0,28,28,37,,,,,,,return,2.29808511412,2018_Sep_10_1112,59.2348110198,verb_norming_L2-eng_oral_translation,001,801,
PULL,Leg,leg,0,29,29,33,0,0,0,0,1,11.079,,,2018_Sep_10_1112,59.2348110198,verb_norming_L2-eng_oral_translation,001,801,
PULL,Arm,arm,0,29,29,33,0,1,1,1,7,2.628,,,2018_Sep_10_1112,59.2348110198,verb_norming_L2-eng_oral_translation,001,801,
PULL,,,0,29,29,33,,,,,,,return,9.15750552766,2018_Sep_10_1112,59.2348110198,verb_norming_L2-eng_oral_translation,001,801,
PACE,Leg,leg,0,30,30,82,0,0,0,0,6,7.657,,,2018_Sep_10_1112,59.2348110198,verb_norming_L2-eng_oral_translation,001,801,
PACE,Arm,arm,0,30,30,82,0,1,1,1,2,3.216,,,2018_Sep_10_1112,59.2348110198,verb_norming_L2-eng_oral_translation,001,801,
PACE,,,0,30,30,82,,,,,,,return,10.5830808548,2018_Sep_10_1112,59.2348110198,verb_norming_L2-eng_oral_translation,001,801,
FILE,Leg,leg,0,31,31,15,0,0,0,0,1,5.46,,,2018_Sep_10_1112,59.2348110198,verb_norming_L2-eng_oral_translation,001,801,
FILE,Arm,arm,0,31,31,15,0,1,1,1,2,3.35,,,2018_Sep_10_1112,59.2348110198,verb_norming_L2-eng_oral_translation,001,801,
FILE,,,0,31,31,15,,,,,,,return,1.12404322875,2018_Sep_10_1112,59.2348110198,verb_norming_L2-eng_oral_translation,001,801,
CARVE,Leg,leg,0,32,32,4,0,0,0,0,1,7.607,,,2018_Sep_10_1112,59.2348110198,verb_norming_L2-eng_oral_translation,001,801,
CARVE,Arm,arm,0,32,32,4,0,1,1,1,7,2.763,,,2018_Sep_10_1112,59.2348110198,verb_norming_L2-eng_oral_translation,001,801,
CARVE,,,0,32,32,4,,,,,,,return,3.32099428347,2018_Sep_10_1112,59.2348110198,verb_norming_L2-eng_oral_translation,001,801,
BASH,Leg,leg,0,33,33,0,0,0,0,0,3,4.337,,,2018_Sep_10_1112,59.2348110198,verb_norming_L2-eng_oral_translation,001,801,
BASH,Arm,arm,0,33,33,0,0,1,1,1,3,5.932,,,2018_Sep_10_1112,59.2348110198,verb_norming_L2-eng_oral_translation,001,801,
BASH,,,0,33,33,0,,,,,,,return,2.01298940933,2018_Sep_10_1112,59.2348110198,verb_norming_L2-eng_oral_translation,001,801,
GESTURE,Leg,leg,0,34,34,17,0,0,0,0,2,11.212,,,2018_Sep_10_1112,59.2348110198,verb_norming_L2-eng_oral_translation,001,801,
GESTURE,Arm,arm,0,34,34,17,0,1,1,1,6,8.598,,,2018_Sep_10_1112,59.2348110198,verb_norming_L2-eng_oral_translation,001,801,
GESTURE,,,0,34,34,17,,,,,,,return,8.92257995945,2018_Sep_10_1112,59.2348110198,verb_norming_L2-eng_oral_translation,001,801,
HUG,Leg,leg,0,35,35,23,0,0,0,0,1,4.941,,,2018_Sep_10_1112,59.2348110198,verb_norming_L2-eng_oral_translation,001,801,
HUG,Arm,arm,0,35,35,23,0,1,1,1,7,1.964,,,2018_Sep_10_1112,59.2348110198,verb_norming_L2-eng_oral_translation,001,801,
HUG,,,0,35,35,23,,,,,,,return,1.81168813722,2018_Sep_10_1112,59.2348110198,verb_norming_L2-eng_oral_translation,001,801,
WALK,Leg,leg,0,36,36,125,0,0,0,0,7,5.494,,,2018_Sep_10_1112,59.2348110198,verb_norming_L2-eng_oral_translation,001,801,
WALK,Arm,arm,0,36,36,125,0,1,1,1,2,2.612,,,2018_Sep_10_1112,59.2348110198,verb_norming_L2-eng_oral_translation,001,801,
WALK,,,0,36,36,125,,,,,,,return,1.91235714613,2018_Sep_10_1112,59.2348110198,verb_norming_L2-eng_oral_translation,001,801,
CUT,Leg,leg,0,37,37,12,0,0,0,0,1,3.75,,,2018_Sep_10_1112,59.2348110198,verb_norming_L2-eng_oral_translation,001,801,
CUT,Arm,arm,0,37,37,12,0,1,1,1,5,9.422,,,2018_Sep_10_1112,59.2348110198,verb_norming_L2-eng_oral_translation,001,801,
CUT,,,0,37,37,12,,,,,,,return,3.40504672631,2018_Sep_10_1112,59.2348110198,verb_norming_L2-eng_oral_translation,001,801,
STRAY,Leg,leg,0,38,38,106,0,0,0,0,7,7.807,,,2018_Sep_10_1112,59.2348110198,verb_norming_L2-eng_oral_translation,001,801,
STRAY,Arm,arm,0,38,38,106,0,1,1,1,2,2.008,,,2018_Sep_10_1112,59.2348110198,verb_norming_L2-eng_oral_translation,001,801,
STRAY,,,0,38,38,106,,,,,,,return,1.96265688046,2018_Sep_10_1112,59.2348110198,verb_norming_L2-eng_oral_translation,001,801,
STRIDE,Leg,leg,0,39,39,107,0,0,0,0,3,7.69,,,2018_Sep_10_1112,59.2348110198,verb_norming_L2-eng_oral_translation,001,801,
STRIDE,Arm,arm,0,39,39,107,0,1,1,1,3,0.833,,,2018_Sep_10_1112,59.2348110198,verb_norming_L2-eng_oral_translation,001,801,
STRIDE,,,0,39,39,107,,,,,,,return,1.89570304412,2018_Sep_10_1112,59.2348110198,verb_norming_L2-eng_oral_translation,001,801,
GRASP,Leg,leg,0,40,40,19,0,0,0,0,1,11.666,,,2018_Sep_10_1112,59.2348110198,verb_norming_L2-eng_oral_translation,001,801,
GRASP,Arm,arm,0,40,40,19,0,1,1,1,5,2.259,,,2018_Sep_10_1112,59.2348110198,verb_norming_L2-eng_oral_translation,001,801,
GRASP,,,0,40,40,19,,,,,,,return,7.12819588859,2018_Sep_10_1112,59.2348110198,verb_norming_L2-eng_oral_translation,001,801,
FLEE,Leg,leg,0,41,41,66,0,0,0,0,7,5.812,,,2018_Sep_10_1112,59.2348110198,verb_norming_L2-eng_oral_translation,001,801,
FLEE,Arm,arm,0,41,41,66,0,1,1,1,2,4.726,,,2018_Sep_10_1112,59.2348110198,verb_norming_L2-eng_oral_translation,001,801,
FLEE,,,0,41,41,66,,,,,,,return,5.41754737825,2018_Sep_10_1112,59.2348110198,verb_norming_L2-eng_oral_translation,001,801,
TRUDGE,Leg,leg,0,42,42,122,0,0,0,0,3,7.673,,,2018_Sep_10_1112,59.2348110198,verb_norming_L2-eng_oral_translation,001,801,
TRUDGE,Arm,arm,0,42,42,122,0,1,1,1,3,2.494,,,2018_Sep_10_1112,59.2348110198,verb_norming_L2-eng_oral_translation,001,801,
TRUDGE,,,0,42,42,122,,,,,,,return,1.24152082968,2018_Sep_10_1112,59.2348110198,verb_norming_L2-eng_oral_translation,001,801,
TRAMP,Leg,leg,0,43,43,116,0,0,0,0,6,14.431,,,2018_Sep_10_1112,59.2348110198,verb_norming_L2-eng_oral_translation,001,801,
TRAMP,Arm,arm,0,43,43,116,0,1,1,1,3,2.543,,,2018_Sep_10_1112,59.2348110198,verb_norming_L2-eng_oral_translation,001,801,
TRAMP,,,0,43,43,116,,,,,,,return,6.74246436457,2018_Sep_10_1112,59.2348110198,verb_norming_L2-eng_oral_translation,001,801,
PEEL,Leg,leg,0,44,44,28,0,0,0,0,1,6.098,,,2018_Sep_10_1112,59.2348110198,verb_norming_L2-eng_oral_translation,001,801,
PEEL,Arm,arm,0,44,44,28,0,1,1,1,5,2.395,,,2018_Sep_10_1112,59.2348110198,verb_norming_L2-eng_oral_translation,001,801,
PEEL,,,0,44,44,28,,,,,,,return,1.54339944399,2018_Sep_10_1112,59.2348110198,verb_norming_L2-eng_oral_translation,001,801,
SQUEEZE,Leg,leg,0,45,45,48,0,0,0,0,2,7.852,,,2018_Sep_10_1112,59.2348110198,verb_norming_L2-eng_oral_translation,001,801,
SQUEEZE,Arm,arm,0,45,45,48,0,1,1,1,6,8.897,,,2018_Sep_10_1112,59.2348110198,verb_norming_L2-eng_oral_translation,001,801,
SQUEEZE,,,0,45,45,48,,,,,,,return,8.01709900162,2018_Sep_10_1112,59.2348110198,verb_norming_L2-eng_oral_translation,001,801,
TRAMPLE,Leg,leg,0,46,46,117,0,0,0,0,6,9.549,,,2018_Sep_10_1112,59.2348110198,verb_norming_L2-eng_oral_translation,001,801,
TRAMPLE,Arm,arm,0,46,46,117,0,1,1,1,2,2.945,,,2018_Sep_10_1112,59.2348110198,verb_norming_L2-eng_oral_translation,001,801,
TRAMPLE,,,0,46,46,117,,,,,,,return,14.205474873,2018_Sep_10_1112,59.2348110198,verb_norming_L2-eng_oral_translation,001,801,
SAUNTER,Leg,leg,0,47,47,90,0,0,0,0,3,6.281,,,2018_Sep_10_1112,59.2348110198,verb_norming_L2-eng_oral_translation,001,801,
SAUNTER,Arm,arm,0,47,47,90,0,1,1,1,3,0.932,,,2018_Sep_10_1112,59.2348110198,verb_norming_L2-eng_oral_translation,001,801,
SAUNTER,,,0,47,47,90,,,,,,,return,0.755005713364,2018_Sep_10_1112,59.2348110198,verb_norming_L2-eng_oral_translation,001,801,
STAMP,Leg,leg,0,48,48,101,0,0,0,0,7,8.276,,,2018_Sep_10_1112,59.2348110198,verb_norming_L2-eng_oral_translation,001,801,
STAMP,Arm,arm,0,48,48,101,0,1,1,1,2,3.818,,,2018_Sep_10_1112,59.2348110198,verb_norming_L2-eng_oral_translation,001,801,
STAMP,,,0,48,48,101,,,,,,,return,4.98154614865,2018_Sep_10_1112,59.2348110198,verb_norming_L2-eng_oral_translation,001,801,
TUG,Leg,leg,0,49,49,54,0,0,0,0,3,8.648,,,2018_Sep_10_1112,59.2348110198,verb_norming_L2-eng_oral_translation,001,801,
TUG,Arm,arm,0,49,49,54,0,1,1,1,3,1.657,,,2018_Sep_10_1112,59.2348110198,verb_norming_L2-eng_oral_translation,001,801,
TUG,,,0,49,49,54,,,,,,,return,1.2583871085,2018_Sep_10_1112,59.2348110198,verb_norming_L2-eng_oral_translation,001,801,
HOP,Leg,leg,0,50,50,71,0,0,0,0,7,5.846,,,2018_Sep_10_1112,59.2348110198,verb_norming_L2-eng_oral_translation,001,801,
HOP,Arm,arm,0,50,50,71,0,1,1,1,3,2.21,,,2018_Sep_10_1112,59.2348110198,verb_norming_L2-eng_oral_translation,001,801,
HOP,,,0,50,50,71,,,,,,,return,4.10940065779,2018_Sep_10_1112,59.2348110198,verb_norming_L2-eng_oral_translation,001,801,
TRAIPSE,Leg,leg,0,51,51,115,0,0,0,0,6,12.855,,,2018_Sep_10_1112,59.2348110198,verb_norming_L2-eng_oral_translation,001,801,
TRAIPSE,Arm,arm,0,51,51,115,0,1,1,1,2,2.896,,,2018_Sep_10_1112,59.2348110198,verb_norming_L2-eng_oral_translation,001,801,
TRAIPSE,,,0,51,51,115,,,,,,,return,3.47207879544,2018_Sep_10_1112,59.2348110198,verb_norming_L2-eng_oral_translation,001,801,
HIKE,Leg,leg,0,52,52,69,0,0,0,0,6,6.165,,,2018_Sep_10_1112,59.2348110198,verb_norming_L2-eng_oral_translation,001,801,
HIKE,Arm,arm,0,52,52,69,0,1,1,1,2,3.552,,,2018_Sep_10_1112,59.2348110198,verb_norming_L2-eng_oral_translation,001,801,
HIKE,,,0,52,52,69,,,,,,,return,21.7024384134,2018_Sep_10_1112,59.2348110198,verb_norming_L2-eng_oral_translation,001,801,
PEDAL,Leg,leg,0,53,53,83,0,0,0,0,6,6.013,,,2018_Sep_10_1112,59.2348110198,verb_norming_L2-eng_oral_translation,001,801,
PEDAL,Arm,arm,0,53,53,83,0,1,1,1,2,5.429,,,2018_Sep_10_1112,59.2348110198,verb_norming_L2-eng_oral_translation,001,801,
PEDAL,,,0,53,53,83,,,,,,,return,2.07996063073,2018_Sep_10_1112,59.2348110198,verb_norming_L2-eng_oral_translation,001,801,
POKE,Leg,leg,0,54,54,31,0,0,0,0,2,2.811,,,2018_Sep_10_1112,59.2348110198,verb_norming_L2-eng_oral_translation,001,801,
POKE,Arm,arm,0,54,54,31,0,1,1,1,6,3.601,,,2018_Sep_10_1112,59.2348110198,verb_norming_L2-eng_oral_translation,001,801,
POKE,,,0,54,54,31,,,,,,,return,0.92283915496,2018_Sep_10_1112,59.2348110198,verb_norming_L2-eng_oral_translation,001,801,
SWITCH,Leg,leg,0,55,55,51,0,0,0,0,1,4.588,,,2018_Sep_10_1112,59.2348110198,verb_norming_L2-eng_oral_translation,001,801,
SWITCH,Arm,arm,0,55,55,51,0,1,1,1,6,2.813,,,2018_Sep_10_1112,59.2348110198,verb_norming_L2-eng_oral_translation,001,801,
SWITCH,,,0,55,55,51,,,,,,,return,7.7821916087,2018_Sep_10_1112,59.2348110198,verb_norming_L2-eng_oral_translation,001,801,
TODDLE,Leg,leg,0,56,56,113,0,0,0,0,2,7.153,,,2018_Sep_10_1112,59.2348110198,verb_norming_L2-eng_oral_translation,001,801,
TODDLE,Arm,arm,0,56,56,113,0,1,1,1,3,3.718,,,2018_Sep_10_1112,59.2348110198,verb_norming_L2-eng_oral_translation,001,801,
TODDLE,,,0,56,56,113,,,,,,,return,0.956076238251,2018_Sep_10_1112,59.2348110198,verb_norming_L2-eng_oral_translation,001,801,
RUSH,Leg,leg,0,57,57,89,0,0,0,0,6,5.411,,,2018_Sep_10_1112,59.2348110198,verb_norming_L2-eng_oral_translation,001,801,
RUSH,Arm,arm,0,57,57,89,0,1,1,1,2,2.881,,,2018_Sep_10_1112,59.2348110198,verb_norming_L2-eng_oral_translation,001,801,
RUSH,,,0,57,57,89,,,,,,,return,3.1700559641,2018_Sep_10_1112,59.2348110198,verb_norming_L2-eng_oral_translation,001,801,
ROW,Leg,leg,0,58,58,36,0,0,0,0,4,7.524,,,2018_Sep_10_1112,59.2348110198,verb_norming_L2-eng_oral_translation,001,801,
ROW,Arm,arm,0,58,58,36,0,1,1,1,6,2.999,,,2018_Sep_10_1112,59.2348110198,verb_norming_L2-eng_oral_translation,001,801,
ROW,,,0,58,58,36,,,,,,,return,1.20786492437,2018_Sep_10_1112,59.2348110198,verb_norming_L2-eng_oral_translation,001,801,
SCRATCH,Leg,leg,0,59,59,40,0,0,0,0,2,12.368,,,2018_Sep_10_1112,59.2348110198,verb_norming_L2-eng_oral_translation,001,801,
SCRATCH,Arm,arm,0,59,59,40,0,1,1,1,6,3.784,,,2018_Sep_10_1112,59.2348110198,verb_norming_L2-eng_oral_translation,001,801,
SCRATCH,,,0,59,59,40,,,,,,,return,7.88291040212,2018_Sep_10_1112,59.2348110198,verb_norming_L2-eng_oral_translation,001,801,
WANDER,Leg,leg,0,60,60,126,0,0,0,0,6,9.182,,,2018_Sep_10_1112,59.2348110198,verb_norming_L2-eng_oral_translation,001,801,
WANDER,Arm,arm,0,60,60,126,0,1,1,1,1,3.03,,,2018_Sep_10_1112,59.2348110198,verb_norming_L2-eng_oral_translation,001,801,
WANDER,,,0,60,60,126,,,,,,,return,1.60174253667,2018_Sep_10_1112,59.2348110198,verb_norming_L2-eng_oral_translation,001,801,
STOMP,Leg,leg,0,61,61,104,0,0,0,0,6,7.554,,,2018_Sep_10_1112,59.2348110198,verb_norming_L2-eng_oral_translation,001,801,
STOMP,Arm,arm,0,61,61,104,0,1,1,1,1,3.13,,,2018_Sep_10_1112,59.2348110198,verb_norming_L2-eng_oral_translation,001,801,
STOMP,,,0,61,61,104,,,,,,,return,3.28740594285,2018_Sep_10_1112,59.2348110198,verb_norming_L2-eng_oral_translation,001,801,
DIG,Leg,leg,0,62,62,13,0,0,0,0,5,6.652,,,2018_Sep_10_1112,59.2348110198,verb_norming_L2-eng_oral_translation,001,801,
DIG,Arm,arm,0,62,62,13,0,1,1,1,7,2.78,,,2018_Sep_10_1112,59.2348110198,verb_norming_L2-eng_oral_translation,001,801,
DIG,,,0,62,62,13,,,,,,,return,1.4259984954,2018_Sep_10_1112,59.2348110198,verb_norming_L2-eng_oral_translation,001,801,
BRAID,Leg,leg,0,63,63,2,0,0,0,0,2,8.009,,,2018_Sep_10_1112,59.2348110198,verb_norming_L2-eng_oral_translation,001,801,
BRAID,Arm,arm,0,63,63,2,0,1,1,1,4,12.02,,,2018_Sep_10_1112,59.2348110198,verb_norming_L2-eng_oral_translation,001,801,
BRAID,,,0,63,63,2,,,,,,,return,1.24149593743,2018_Sep_10_1112,59.2348110198,verb_norming_L2-eng_oral_translation,001,801,
SHAMBLE,Leg,leg,0,64,64,91,0,0,0,0,3,4.686,,,2018_Sep_10_1112,59.2348110198,verb_norming_L2-eng_oral_translation,001,801,
SHAMBLE,Arm,arm,0,64,64,91,0,1,1,1,3,3.599,,,2018_Sep_10_1112,59.2348110198,verb_norming_L2-eng_oral_translation,001,801,
SHAMBLE,,,0,64,64,91,,,,,,,return,1.02212012448,2018_Sep_10_1112,59.2348110198,verb_norming_L2-eng_oral_translation,001,801,
HACK,Leg,leg,0,65,65,22,0,0,0,0,1,11.649,,,2018_Sep_10_1112,59.2348110198,verb_norming_L2-eng_oral_translation,001,801,
HACK,Arm,arm,0,65,65,22,0,1,1,1,6,2.73,,,2018_Sep_10_1112,59.2348110198,verb_norming_L2-eng_oral_translation,001,801,
HACK,,,0,65,65,22,,,,,,,return,4.5956672467,2018_Sep_10_1112,59.2348110198,verb_norming_L2-eng_oral_translation,001,801,
SCRUB,Leg,leg,0,66,66,41,0,0,0,0,1,10.475,,,2018_Sep_10_1112,59.2348110198,verb_norming_L2-eng_oral_translation,001,801,
SCRUB,Arm,arm,0,66,66,41,0,1,1,1,5,2.947,,,2018_Sep_10_1112,59.2348110198,verb_norming_L2-eng_oral_translation,001,801,
SCRUB,,,0,66,66,41,,,,,,,return,14.7926989049,2018_Sep_10_1112,59.2348110198,verb_norming_L2-eng_oral_translation,001,801,
KNOCK,Leg,leg,0,67,67,24,0,0,0,0,1,4.471,,,2018_Sep_10_1112,59.2348110198,verb_norming_L2-eng_oral_translation,001,801,
KNOCK,Arm,arm,0,67,67,24,0,1,1,1,6,4.943,,,2018_Sep_10_1112,59.2348110198,verb_norming_L2-eng_oral_translation,001,801,
KNOCK,,,0,67,67,24,,,,,,,return,1.54468040719,2018_Sep_10_1112,59.2348110198,verb_norming_L2-eng_oral_translation,001,801,
WIPE,Leg,leg,0,68,68,58,0,0,0,0,2,11.229,,,2018_Sep_10_1112,59.2348110198,verb_norming_L2-eng_oral_translation,001,801,
WIPE,Arm,arm,0,68,68,58,0,1,1,1,6,2.83,,,2018_Sep_10_1112,59.2348110198,verb_norming_L2-eng_oral_translation,001,801,
WIPE,,,0,68,68,58,,,,,,,return,1.00652848701,2018_Sep_10_1112,59.2348110198,verb_norming_L2-eng_oral_translation,001,801,
TOSS,Leg,leg,0,69,69,53,0,0,0,0,3,4.387,,,2018_Sep_10_1112,59.2348110198,verb_norming_L2-eng_oral_translation,001,801,
TOSS,Arm,arm,0,69,69,53,0,1,1,1,3,1.824,,,2018_Sep_10_1112,59.2348110198,verb_norming_L2-eng_oral_translation,001,801,
TOSS,,,0,69,69,53,,,,,,,return,2.53293403,2018_Sep_10_1112,59.2348110198,verb_norming_L2-eng_oral_translation,001,801,
PUSH,Leg,leg,0,70,70,35,0,0,0,0,2,8.479,,,2018_Sep_10_1112,59.2348110198,verb_norming_L2-eng_oral_translation,001,801,
PUSH,Arm,arm,0,70,70,35,0,1,1,1,7,3.098,,,2018_Sep_10_1112,59.2348110198,verb_norming_L2-eng_oral_translation,001,801,
PUSH,,,0,70,70,35,,,,,,,return,1.37565332284,2018_Sep_10_1112,59.2348110198,verb_norming_L2-eng_oral_translation,001,801,
SCOOP,Leg,leg,0,71,71,38,0,0,0,0,2,14.432,,,2018_Sep_10_1112,59.2348110198,verb_norming_L2-eng_oral_translation,001,801,
SCOOP,Arm,arm,0,71,71,38,0,1,1,1,3,5.194,,,2018_Sep_10_1112,59.2348110198,verb_norming_L2-eng_oral_translation,001,801,
SCOOP,,,0,71,71,38,,,,,,,return,4.47837139872,2018_Sep_10_1112,59.2348110198,verb_norming_L2-eng_oral_translation,001,801,
GRATE,Leg,leg,0,72,72,20,0,0,0,0,3,6.499,,,2018_Sep_10_1112,59.2348110198,verb_norming_L2-eng_oral_translation,001,801,
GRATE,Arm,arm,0,72,72,20,0,1,1,1,6,3.97,,,2018_Sep_10_1112,59.2348110198,verb_norming_L2-eng_oral_translation,001,801,
GRATE,,,0,72,72,20,,,,,,,return,0.822195038302,2018_Sep_10_1112,59.2348110198,verb_norming_L2-eng_oral_translation,001,801,
SLITHER,Leg,leg,0,73,73,96,0,0,0,0,2,11.798,,,2018_Sep_10_1112,59.2348110198,verb_norming_L2-eng_oral_translation,001,801,
SLITHER,Arm,arm,0,73,73,96,0,1,1,1,4,5.881,,,2018_Sep_10_1112,59.2348110198,verb_norming_L2-eng_oral_translation,001,801,
SLITHER,,,0,73,73,96,,,,,,,return,1.49315660625,2018_Sep_10_1112,59.2348110198,verb_norming_L2-eng_oral_translation,001,801,
CLAP,Leg,leg,0,74,74,7,0,0,0,0,1,4.756,,,2018_Sep_10_1112,59.2348110198,verb_norming_L2-eng_oral_translation,001,801,
CLAP,Arm,arm,0,74,74,7,0,1,1,1,6,1.841,,,2018_Sep_10_1112,59.2348110198,verb_norming_L2-eng_oral_translation,001,801,
CLAP,,,0,74,74,7,,,,,,,return,0.805365900301,2018_Sep_10_1112,59.2348110198,verb_norming_L2-eng_oral_translation,001,801,
CREEP,Leg,leg,0,75,75,61,0,0,0,0,3,10.793,,,2018_Sep_10_1112,59.2348110198,verb_norming_L2-eng_oral_translation,001,801,
CREEP,Arm,arm,0,75,75,61,0,1,1,1,4,2.997,,,2018_Sep_10_1112,59.2348110198,verb_norming_L2-eng_oral_translation,001,801,
CREEP,,,0,75,75,61,,,,,,,return,1.04023654752,2018_Sep_10_1112,59.2348110198,verb_norming_L2-eng_oral_translation,001,801,
POLISH,Leg,leg,0,76,76,32,0,0,0,0,2,7.321,,,2018_Sep_10_1112,59.2348110198,verb_norming_L2-eng_oral_translation,001,801,
POLISH,Arm,arm,0,76,76,32,0,1,1,1,6,3.014,,,2018_Sep_10_1112,59.2348110198,verb_norming_L2-eng_oral_translation,001,801,
POLISH,,,0,76,76,32,,,,,,,return,2.4658031821,2018_Sep_10_1112,59.2348110198,verb_norming_L2-eng_oral_translation,001,801,
CYCLE,Leg,leg,0,77,77,63,0,0,0,0,6,3.95,,,2018_Sep_10_1112,59.2348110198,verb_norming_L2-eng_oral_translation,001,801,
CYCLE,Arm,arm,0,77,77,63,0,1,1,1,2,3.585,,,2018_Sep_10_1112,59.2348110198,verb_norming_L2-eng_oral_translation,001,801,
CYCLE,,,0,77,77,63,,,,,,,return,1.22483748915,2018_Sep_10_1112,59.2348110198,verb_norming_L2-eng_oral_translation,001,801,
STRADDLE,Leg,leg,0,78,78,105,0,0,0,0,3,7.471,,,2018_Sep_10_1112,59.2348110198,verb_norming_L2-eng_oral_translation,001,801,
STRADDLE,Arm,arm,0,78,78,105,0,1,1,1,3,2.661,,,2018_Sep_10_1112,59.2348110198,verb_norming_L2-eng_oral_translation,001,801,
STRADDLE,,,0,78,78,105,,,,,,,return,2.70057267984,2018_Sep_10_1112,59.2348110198,verb_norming_L2-eng_oral_translation,001,801,
SLIDE,Leg,leg,0,79,79,94,0,0,0,0,4,11.313,,,2018_Sep_10_1112,59.2348110198,verb_norming_L2-eng_oral_translation,001,801,
SLIDE,Arm,arm,0,79,79,94,0,1,1,1,4,1.32,,,2018_Sep_10_1112,59.2348110198,verb_norming_L2-eng_oral_translation,001,801,
SLIDE,,,0,79,79,94,,,,,,,return,1.35894034868,2018_Sep_10_1112,59.2348110198,verb_norming_L2-eng_oral_translation,001,801,
DASH,Leg,leg,0,80,80,65,0,0,0,0,4,11.028,,,2018_Sep_10_1112,59.2348110198,verb_norming_L2-eng_oral_translation,001,801,
DASH,Arm,arm,0,80,80,65,0,1,1,1,3,1.354,,,2018_Sep_10_1112,59.2348110198,verb_norming_L2-eng_oral_translation,001,801,
DASH,,,0,80,80,65,,,,,,,return,1.19119264707,2018_Sep_10_1112,59.2348110198,verb_norming_L2-eng_oral_translation,001,801,
SLIP,Leg,leg,0,81,81,95,0,0,0,0,6,17.921,,,2018_Sep_10_1112,59.2348110198,verb_norming_L2-eng_oral_translation,001,801,
SLIP,Arm,arm,0,81,81,95,0,1,1,1,3,3.048,,,2018_Sep_10_1112,59.2348110198,verb_norming_L2-eng_oral_translation,001,801,
SLIP,,,0,81,81,95,,,,,,,return,3.8242081498,2018_Sep_10_1112,59.2348110198,verb_norming_L2-eng_oral_translation,001,801,
MOUNT,Leg,leg,0,82,82,81,0,0,0,0,3,6.633,,,2018_Sep_10_1112,59.2348110198,verb_norming_L2-eng_oral_translation,001,801,
MOUNT,Arm,arm,0,82,82,81,0,1,1,1,2,4.791,,,2018_Sep_10_1112,59.2348110198,verb_norming_L2-eng_oral_translation,001,801,
MOUNT,,,0,82,82,81,,,,,,,return,2.8515603886,2018_Sep_10_1112,59.2348110198,verb_norming_L2-eng_oral_translation,001,801,
STIR,Leg,leg,0,83,83,50,0,0,0,0,3,5.058,,,2018_Sep_10_1112,59.2348110198,verb_norming_L2-eng_oral_translation,001,801,
STIR,Arm,arm,0,83,83,50,0,1,1,1,4,8.214,,,2018_Sep_10_1112,59.2348110198,verb_norming_L2-eng_oral_translation,001,801,
STIR,,,0,83,83,50,,,,,,,return,1.47631245387,2018_Sep_10_1112,59.2348110198,verb_norming_L2-eng_oral_translation,001,801,
TREAD,Leg,leg,0,84,84,118,0,0,0,0,3,13.29,,,2018_Sep_10_1112,59.2348110198,verb_norming_L2-eng_oral_translation,001,801,
TREAD,Arm,arm,0,84,84,118,0,1,1,1,4,3.182,,,2018_Sep_10_1112,59.2348110198,verb_norming_L2-eng_oral_translation,001,801,
TREAD,,,0,84,84,118,,,,,,,return,4.19313068669,2018_Sep_10_1112,59.2348110198,verb_norming_L2-eng_oral_translation,001,801,
CLUTCH,Leg,leg,0,85,85,11,0,0,0,0,5,17.652,,,2018_Sep_10_1112,59.2348110198,verb_norming_L2-eng_oral_translation,001,801,
CLUTCH,Arm,arm,0,85,85,11,0,1,1,1,6,7.173,,,2018_Sep_10_1112,59.2348110198,verb_norming_L2-eng_oral_translation,001,801,
CLUTCH,,,0,85,85,11,,,,,,,return,0.771747135811,2018_Sep_10_1112,59.2348110198,verb_norming_L2-eng_oral_translation,001,801,
GRAB,Leg,leg,0,86,86,18,0,0,0,0,2,6.332,,,2018_Sep_10_1112,59.2348110198,verb_norming_L2-eng_oral_translation,001,801,
GRAB,Arm,arm,0,86,86,18,0,1,1,1,6,2.142,,,2018_Sep_10_1112,59.2348110198,verb_norming_L2-eng_oral_translation,001,801,
GRAB,,,0,86,86,18,,,,,,,return,1.49309654875,2018_Sep_10_1112,59.2348110198,verb_norming_L2-eng_oral_translation,001,801,
CROUCH,Leg,leg,0,87,87,62,0,0,0,0,3,18.625,,,2018_Sep_10_1112,59.2348110198,verb_norming_L2-eng_oral_translation,001,801,
CROUCH,Arm,arm,0,87,87,62,0,1,1,1,6,1.538,,,2018_Sep_10_1112,59.2348110198,verb_norming_L2-eng_oral_translation,001,801,
CROUCH,,,0,87,87,62,,,,,,,return,5.95408209228,2018_Sep_10_1112,59.2348110198,verb_norming_L2-eng_oral_translation,001,801,
FOLD,Leg,leg,0,88,88,16,0,0,0,0,1,5.963,,,2018_Sep_10_1112,59.2348110198,verb_norming_L2-eng_oral_translation,001,801,
FOLD,Arm,arm,0,88,88,16,0,1,1,1,6,1.203,,,2018_Sep_10_1112,59.2348110198,verb_norming_L2-eng_oral_translation,001,801,
FOLD,,,0,88,88,16,,,,,,,return,0.939705433781,2018_Sep_10_1112,59.2348110198,verb_norming_L2-eng_oral_translation,001,801,
PLUCK,Leg,leg,0,89,89,30,0,0,0,0,2,5.309,,,2018_Sep_10_1112,59.2348110198,verb_norming_L2-eng_oral_translation,001,801,
PLUCK,Arm,arm,0,89,89,30,0,1,1,1,6,3.97,,,2018_Sep_10_1112,59.2348110198,verb_norming_L2-eng_oral_translation,001,801,
PLUCK,,,0,89,89,30,,,,,,,return,2.3649698053,2018_Sep_10_1112,59.2348110198,verb_norming_L2-eng_oral_translation,001,801,
TREK,Leg,leg,0,90,90,119,0,0,0,0,3,6.785,,,2018_Sep_10_1112,59.2348110198,verb_norming_L2-eng_oral_translation,001,801,
TREK,Arm,arm,0,90,90,119,0,1,1,1,4,3.534,,,2018_Sep_10_1112,59.2348110198,verb_norming_L2-eng_oral_translation,001,801,
TREK,,,0,90,90,119,,,,,,,return,4.02559476678,2018_Sep_10_1112,59.2348110198,verb_norming_L2-eng_oral_translation,001,801,
SWAY,Leg,leg,0,91,91,111,0,0,0,0,2,7.842,,,2018_Sep_10_1112,59.2348110198,verb_norming_L2-eng_oral_translation,001,801,
SWAY,Arm,arm,0,91,91,111,0,1,1,1,2,1.975,,,2018_Sep_10_1112,59.2348110198,verb_norming_L2-eng_oral_translation,001,801,
SWAY,,,0,91,91,111,,,,,,,return,7.93321329736,2018_Sep_10_1112,59.2348110198,verb_norming_L2-eng_oral_translation,001,801,
JUMP,Leg,leg,0,92,92,74,0,0,0,0,7,3.947,,,2018_Sep_10_1112,59.2348110198,verb_norming_L2-eng_oral_translation,001,801,
JUMP,Arm,arm,0,92,92,74,0,1,1,1,2,2.006,,,2018_Sep_10_1112,59.2348110198,verb_norming_L2-eng_oral_translation,001,801,
JUMP,,,0,92,92,74,,,,,,,return,0.872513343037,2018_Sep_10_1112,59.2348110198,verb_norming_L2-eng_oral_translation,001,801,
KNEEL,Leg,leg,0,93,93,76,0,0,0,0,6,10.037,,,2018_Sep_10_1112,59.2348110198,verb_norming_L2-eng_oral_translation,001,801,
KNEEL,Arm,arm,0,93,93,76,0,1,1,1,2,1.321,,,2018_Sep_10_1112,59.2348110198,verb_norming_L2-eng_oral_translation,001,801,
KNEEL,,,0,93,93,76,,,,,,,return,4.81371981913,2018_Sep_10_1112,59.2348110198,verb_norming_L2-eng_oral_translation,001,801,
STROLL,Leg,leg,0,94,94,108,0,0,0,0,6,5.074,,,2018_Sep_10_1112,59.2348110198,verb_norming_L2-eng_oral_translation,001,801,
STROLL,Arm,arm,0,94,94,108,0,1,1,1,2,2.326,,,2018_Sep_10_1112,59.2348110198,verb_norming_L2-eng_oral_translation,001,801,
STROLL,,,0,94,94,108,,,,,,,return,1.72783246171,2018_Sep_10_1112,59.2348110198,verb_norming_L2-eng_oral_translation,001,801,
SQUAT,Leg,leg,0,95,95,99,0,0,0,0,7,4.737,,,2018_Sep_10_1112,59.2348110198,verb_norming_L2-eng_oral_translation,001,801,
SQUAT,Arm,arm,0,95,95,99,0,1,1,1,2,5.998,,,2018_Sep_10_1112,59.2348110198,verb_norming_L2-eng_oral_translation,001,801,
SQUAT,,,0,95,95,99,,,,,,,return,5.40084349174,2018_Sep_10_1112,59.2348110198,verb_norming_L2-eng_oral_translation,001,801,
SKIP,Leg,leg,0,96,96,93,0,0,0,0,6,13.661,,,2018_Sep_10_1112,59.2348110198,verb_norming_L2-eng_oral_translation,001,801,
SKIP,Arm,arm,0,96,96,93,0,1,1,1,5,2.075,,,2018_Sep_10_1112,59.2348110198,verb_norming_L2-eng_oral_translation,001,801,
SKIP,,,0,96,96,93,,,,,,,return,2.58410736384,2018_Sep_10_1112,59.2348110198,verb_norming_L2-eng_oral_translation,001,801,
NIP,Leg,leg,0,97,97,26,0,0,0,0,2,7.725,,,2018_Sep_10_1112,59.2348110198,verb_norming_L2-eng_oral_translation,001,801,
NIP,Arm,arm,0,97,97,26,0,1,1,1,6,1.623,,,2018_Sep_10_1112,59.2348110198,verb_norming_L2-eng_oral_translation,001,801,
NIP,,,0,97,97,26,,,,,,,return,5.21608608452,2018_Sep_10_1112,59.2348110198,verb_norming_L2-eng_oral_translation,001,801,
STRUT,Leg,leg,0,98,98,109,0,0,0,0,3,3.364,,,2018_Sep_10_1112,59.2348110198,verb_norming_L2-eng_oral_translation,001,801,
STRUT,Arm,arm,0,98,98,109,0,1,1,1,3,3.366,,,2018_Sep_10_1112,59.2348110198,verb_norming_L2-eng_oral_translation,001,801,
STRUT,,,0,98,98,109,,,,,,,return,5.30000497845,2018_Sep_10_1112,59.2348110198,verb_norming_L2-eng_oral_translation,001,801,
SNATCH,Leg,leg,0,99,99,47,0,0,0,0,4,9.601,,,2018_Sep_10_1112,59.2348110198,verb_norming_L2-eng_oral_translation,001,801,
SNATCH,Arm,arm,0,99,99,47,0,1,1,1,6,3.818,,,2018_Sep_10_1112,59.2348110198,verb_norming_L2-eng_oral_translation,001,801,
SNATCH,,,0,99,99,47,,,,,,,return,16.1175858625,2018_Sep_10_1112,59.2348110198,verb_norming_L2-eng_oral_translation,001,801,
GROVEL,Leg,leg,0,100,100,68,0,0,0,0,6,7.052,,,2018_Sep_10_1112,59.2348110198,verb_norming_L2-eng_oral_translation,001,801,
GROVEL,Arm,arm,0,100,100,68,0,1,1,1,2,1.672,,,2018_Sep_10_1112,59.2348110198,verb_norming_L2-eng_oral_translation,001,801,
GROVEL,,,0,100,100,68,,,,,,,return,0.906075210952,2018_Sep_10_1112,59.2348110198,verb_norming_L2-eng_oral_translation,001,801,
PRANCE,Leg,leg,0,101,101,85,0,0,0,0,3,3.011,,,2018_Sep_10_1112,59.2348110198,verb_norming_L2-eng_oral_translation,001,801,
PRANCE,Arm,arm,0,101,101,85,0,1,1,1,3,0.616,,,2018_Sep_10_1112,59.2348110198,verb_norming_L2-eng_oral_translation,001,801,
PRANCE,,,0,101,101,85,,,,,,,return,3.23723580628,2018_Sep_10_1112,59.2348110198,verb_norming_L2-eng_oral_translation,001,801,
DUNK,Leg,leg,0,102,102,14,0,0,0,0,4,16.48,,,2018_Sep_10_1112,59.2348110198,verb_norming_L2-eng_oral_translation,001,801,
DUNK,Arm,arm,0,102,102,14,0,1,1,1,6,7.994,,,2018_Sep_10_1112,59.2348110198,verb_norming_L2-eng_oral_translation,001,801,
DUNK,,,0,102,102,14,,,,,,,return,4.49496899927,2018_Sep_10_1112,59.2348110198,verb_norming_L2-eng_oral_translation,001,801,
GLIDE,Leg,leg,0,103,103,67,0,0,0,0,6,6.131,,,2018_Sep_10_1112,59.2348110198,verb_norming_L2-eng_oral_translation,001,801,
GLIDE,Arm,arm,0,103,103,67,0,1,1,1,2,3.081,,,2018_Sep_10_1112,59.2348110198,verb_norming_L2-eng_oral_translation,001,801,
GLIDE,,,0,103,103,67,,,,,,,return,1.62710379042,2018_Sep_10_1112,59.2348110198,verb_norming_L2-eng_oral_translation,001,801,
STAGGER,Leg,leg,0,104,104,100,0,0,0,0,4,7.505,,,2018_Sep_10_1112,59.2348110198,verb_norming_L2-eng_oral_translation,001,801,
STAGGER,Arm,arm,0,104,104,100,0,1,1,1,2,1.873,,,2018_Sep_10_1112,59.2348110198,verb_norming_L2-eng_oral_translation,001,801,
STAGGER,,,0,104,104,100,,,,,,,return,0.637739894141,2018_Sep_10_1112,59.2348110198,verb_norming_L2-eng_oral_translation,001,801,
LUMBER,Leg,leg,0,105,105,79,0,0,0,0,2,11.429,,,2018_Sep_10_1112,59.2348110198,verb_norming_L2-eng_oral_translation,001,801,
LUMBER,Arm,arm,0,105,105,79,0,1,1,1,5,3.716,,,2018_Sep_10_1112,59.2348110198,verb_norming_L2-eng_oral_translation,001,801,
LUMBER,,,0,105,105,79,,,,,,,return,0.872551669203,2018_Sep_10_1112,59.2348110198,verb_norming_L2-eng_oral_translation,001,801,
CLAW,Leg,leg,0,106,106,8,0,0,0,0,3,11.112,,,2018_Sep_10_1112,59.2348110198,verb_norming_L2-eng_oral_translation,001,801,
CLAW,Arm,arm,0,106,106,8,0,1,1,1,6,4.138,,,2018_Sep_10_1112,59.2348110198,verb_norming_L2-eng_oral_translation,001,801,
CLAW,,,0,106,106,8,,,,,,,return,1.66067356064,2018_Sep_10_1112,59.2348110198,verb_norming_L2-eng_oral_translation,001,801,
CHOP,Leg,leg,0,107,107,6,0,0,0,0,1,7.221,,,2018_Sep_10_1112,59.2348110198,verb_norming_L2-eng_oral_translation,001,801,
CHOP,Arm,arm,0,107,107,6,0,1,1,1,6,1.421,,,2018_Sep_10_1112,59.2348110198,verb_norming_L2-eng_oral_translation,001,801,
CHOP,,,0,107,107,6,,,,,,,return,3.17019781043,2018_Sep_10_1112,59.2348110198,verb_norming_L2-eng_oral_translation,001,801,
JOG,Leg,leg,0,108,108,73,0,0,0,0,6,4.789,,,2018_Sep_10_1112,59.2348110198,verb_norming_L2-eng_oral_translation,001,801,
JOG,Arm,arm,0,108,108,73,0,1,1,1,2,3.266,,,2018_Sep_10_1112,59.2348110198,verb_norming_L2-eng_oral_translation,001,801,
JOG,,,0,108,108,73,,,,,,,return,3.55655914794,2018_Sep_10_1112,59.2348110198,verb_norming_L2-eng_oral_translation,001,801,
SPRINT,Leg,leg,0,109,109,98,0,0,0,0,7,5.594,,,2018_Sep_10_1112,59.2348110198,verb_norming_L2-eng_oral_translation,001,801,
SPRINT,Arm,arm,0,109,109,98,0,1,1,1,3,2.997,,,2018_Sep_10_1112,59.2348110198,verb_norming_L2-eng_oral_translation,001,801,
SPRINT,,,0,109,109,98,,,,,,,return,5.76974508753,2018_Sep_10_1112,59.2348110198,verb_norming_L2-eng_oral_translation,001,801,
PUNCH,Leg,leg,0,110,110,34,0,0,0,0,1,6.852,,,2018_Sep_10_1112,59.2348110198,verb_norming_L2-eng_oral_translation,001,801,
PUNCH,Arm,arm,0,110,110,34,0,1,1,1,6,2.293,,,2018_Sep_10_1112,59.2348110198,verb_norming_L2-eng_oral_translation,001,801,
PUNCH,,,0,110,110,34,,,,,,,return,2.23098903635,2018_Sep_10_1112,59.2348110198,verb_norming_L2-eng_oral_translation,001,801,
STUMBLE,Leg,leg,0,111,111,110,0,0,0,0,6,6.783,,,2018_Sep_10_1112,59.2348110198,verb_norming_L2-eng_oral_translation,001,801,
STUMBLE,Arm,arm,0,111,111,110,0,1,1,1,2,1.332,,,2018_Sep_10_1112,59.2348110198,verb_norming_L2-eng_oral_translation,001,801,
STUMBLE,,,0,111,111,110,,,,,,,return,1.2582642277,2018_Sep_10_1112,59.2348110198,verb_norming_L2-eng_oral_translation,001,801,
SEIZE,Leg,leg,0,112,112,42,0,0,0,0,4,9.065,,,2018_Sep_10_1112,59.2348110198,verb_norming_L2-eng_oral_translation,001,801,
SEIZE,Arm,arm,0,112,112,42,0,1,1,1,2,2.208,,,2018_Sep_10_1112,59.2348110198,verb_norming_L2-eng_oral_translation,001,801,
SEIZE,,,0,112,112,42,,,,,,,return,1.49309615363,2018_Sep_10_1112,59.2348110198,verb_norming_L2-eng_oral_translation,001,801,
SKIM,Leg,leg,0,113,113,45,0,0,0,0,4,6.382,,,2018_Sep_10_1112,59.2348110198,verb_norming_L2-eng_oral_translation,001,801,
SKIM,Arm,arm,0,113,113,45,0,1,1,1,3,1.47,,,2018_Sep_10_1112,59.2348110198,verb_norming_L2-eng_oral_translation,001,801,
SKIM,,,0,113,113,45,,,,,,,return,2.18073118422,2018_Sep_10_1112,59.2348110198,verb_norming_L2-eng_oral_translation,001,801,
SLAP,Leg,leg,0,114,114,46,0,0,0,0,2,6.853,,,2018_Sep_10_1112,59.2348110198,verb_norming_L2-eng_oral_translation,001,801,
SLAP,Arm,arm,0,114,114,46,0,1,1,1,6,1.304,,,2018_Sep_10_1112,59.2348110198,verb_norming_L2-eng_oral_translation,001,801,
SLAP,,,0,114,114,46,,,,,,,return,8.77180403239,2018_Sep_10_1112,59.2348110198,verb_norming_L2-eng_oral_translation,001,801,
CLEAN,Leg,leg,0,115,115,9,0,0,0,0,2,6.315,,,2018_Sep_10_1112,59.2348110198,verb_norming_L2-eng_oral_translation,001,801,
CLEAN,Arm,arm,0,115,115,9,0,1,1,1,6,1.237,,,2018_Sep_10_1112,59.2348110198,verb_norming_L2-eng_oral_translation,001,801,
CLEAN,,,0,115,115,9,,,,,,,return,2.34842870622,2018_Sep_10_1112,59.2348110198,verb_norming_L2-eng_oral_translation,001,801,
BIND,Leg,leg,0,116,116,1,0,0,0,0,4,9.334,,,2018_Sep_10_1112,59.2348110198,verb_norming_L2-eng_oral_translation,001,801,
BIND,Arm,arm,0,116,116,1,0,1,1,1,6,4.222,,,2018_Sep_10_1112,59.2348110198,verb_norming_L2-eng_oral_translation,001,801,
BIND,,,0,116,116,1,,,,,,,return,3.65642212202,2018_Sep_10_1112,59.2348110198,verb_norming_L2-eng_oral_translation,001,801,
INCH,Leg,leg,0,117,117,72,0,0,0,0,2,7.943,,,2018_Sep_10_1112,59.2348110198,verb_norming_L2-eng_oral_translation,001,801,
INCH,Arm,arm,0,117,117,72,0,1,1,1,6,1.304,,,2018_Sep_10_1112,59.2348110198,verb_norming_L2-eng_oral_translation,001,801,
INCH,,,0,117,117,72,,,,,,,return,1.4090725542,2018_Sep_10_1112,59.2348110198,verb_norming_L2-eng_oral_translation,001,801,
LIMP,Leg,leg,0,118,118,78,0,0,0,0,7,5.962,,,2018_Sep_10_1112,59.2348110198,verb_norming_L2-eng_oral_translation,001,801,
LIMP,Arm,arm,0,118,118,78,0,1,1,1,3,2.845,,,2018_Sep_10_1112,59.2348110198,verb_norming_L2-eng_oral_translation,001,801,
LIMP,,,0,118,118,78,,,,,,,return,1.19121556374,2018_Sep_10_1112,59.2348110198,verb_norming_L2-eng_oral_translation,001,801,
SCRAPE,Leg,leg,0,119,119,39,0,0,0,0,3,6.634,,,2018_Sep_10_1112,59.2348110198,verb_norming_L2-eng_oral_translation,001,801,
SCRAPE,Arm,arm,0,119,119,39,0,1,1,1,6,10.611,,,2018_Sep_10_1112,59.2348110198,verb_norming_L2-eng_oral_translation,001,801,
SCRAPE,,,0,119,119,39,,,,,,,return,2.33142334688,2018_Sep_10_1112,59.2348110198,verb_norming_L2-eng_oral_translation,001,801,
CATCH,Leg,leg,0,120,120,5,0,0,0,0,2,3.263,,,2018_Sep_10_1112,59.2348110198,verb_norming_L2-eng_oral_translation,001,801,
CATCH,Arm,arm,0,120,120,5,0,1,1,1,7,1.05,,,2018_Sep_10_1112,59.2348110198,verb_norming_L2-eng_oral_translation,001,801,
CATCH,,,0,120,120,5,,,,,,,return,0.972824377654,2018_Sep_10_1112,59.2348110198,verb_norming_L2-eng_oral_translation,001,801,
BRUSH,Leg,leg,0,121,121,3,0,0,0,0,2,2.693,,,2018_Sep_10_1112,59.2348110198,verb_norming_L2-eng_oral_translation,001,801,
BRUSH,Arm,arm,0,121,121,3,0,1,1,1,6,3.467,,,2018_Sep_10_1112,59.2348110198,verb_norming_L2-eng_oral_translation,001,801,
BRUSH,,,0,121,121,3,,,,,,,return,0.956434607659,2018_Sep_10_1112,59.2348110198,verb_norming_L2-eng_oral_translation,001,801,
SNEAK,Leg,leg,0,122,122,97,0,0,0,0,5,5.074,,,2018_Sep_10_1112,59.2348110198,verb_norming_L2-eng_oral_translation,001,801,
SNEAK,Arm,arm,0,122,122,97,0,1,1,1,2,1.253,,,2018_Sep_10_1112,59.2348110198,verb_norming_L2-eng_oral_translation,001,801,
SNEAK,,,0,122,122,97,,,,,,,return,2.8850878815,2018_Sep_10_1112,59.2348110198,verb_norming_L2-eng_oral_translation,001,801,
GRIP,Leg,leg,0,123,123,21,0,0,0,0,5,3.465,,,2018_Sep_10_1112,59.2348110198,verb_norming_L2-eng_oral_translation,001,801,
GRIP,Arm,arm,0,123,123,21,0,1,1,1,2,1.472,,,2018_Sep_10_1112,59.2348110198,verb_norming_L2-eng_oral_translation,001,801,
GRIP,,,0,123,123,21,,,,,,,return,3.00392033215,2018_Sep_10_1112,59.2348110198,verb_norming_L2-eng_oral_translation,001,801,
BOUNCE,Leg,leg,0,124,124,60,0,0,0,0,6,5.459,,,2018_Sep_10_1112,59.2348110198,verb_norming_L2-eng_oral_translation,001,801,
BOUNCE,Arm,arm,0,124,124,60,0,1,1,1,2,1.034,,,2018_Sep_10_1112,59.2348110198,verb_norming_L2-eng_oral_translation,001,801,
BOUNCE,,,0,124,124,60,,,,,,,return,0.838982294102,2018_Sep_10_1112,59.2348110198,verb_norming_L2-eng_oral_translation,001,801,
TROT,Leg,leg,0,125,125,121,0,0,0,0,7,5.98,,,2018_Sep_10_1112,59.2348110198,verb_norming_L2-eng_oral_translation,001,801,
TROT,Arm,arm,0,125,125,121,0,1,1,1,2,0.952,,,2018_Sep_10_1112,59.2348110198,verb_norming_L2-eng_oral_translation,001,801,
TROT,,,0,125,125,121,,,,,,,return,0.872601058592,2018_Sep_10_1112,59.2348110198,verb_norming_L2-eng_oral_translation,001,801,
PINCH,Leg,leg,0,126,126,29,0,0,0,0,2,4.839,,,2018_Sep_10_1112,59.2348110198,verb_norming_L2-eng_oral_translation,001,801,
PINCH,Arm,arm,0,126,126,29,0,1,1,1,6,3.165,,,2018_Sep_10_1112,59.2348110198,verb_norming_L2-eng_oral_translation,001,801,
PINCH,,,0,126,126,29,,,,,,,return,0.973117157953,2018_Sep_10_1112,59.2348110198,verb_norming_L2-eng_oral_translation,001,801,
WADDLE,Leg,leg,0,127,127,123,0,0,0,0,3,3.128,,,2018_Sep_10_1112,59.2348110198,verb_norming_L2-eng_oral_translation,001,801,
WADDLE,Arm,arm,0,127,127,123,0,1,1,1,3,1.018,,,2018_Sep_10_1112,59.2348110198,verb_norming_L2-eng_oral_translation,001,801,
WADDLE,,,0,127,127,123,,,,,,,return,1.04023378171,2018_Sep_10_1112,59.2348110198,verb_norming_L2-eng_oral_translation,001,801,
