word,category,category_lowercase,trials.thisRepN,trials.thisTrialN,trials.thisN,trials.thisIndex,armleg_loop.thisRepN,armleg_loop.thisTrialN,armleg_loop.thisN,armleg_loop.thisIndex,rating.response,rating.rt,key_resp_8.keys,key_resp_8.rt,date,frameRate,expName,session,participant,
TRYCKA,Ben/fötter,ben/fötter,0,0,0,95,0,0,0,0,1,7.933,,,2018_Sep_10_1155,59.9454289653,verb_norming_L1-swe_no_translation,001,801,
TRYCKA,Armar/händer,armar/händer,0,0,0,95,0,1,1,1,7,3.692,,,2018_Sep_10_1155,59.9454289653,verb_norming_L1-swe_no_translation,001,801,
TRYCKA,,,0,0,0,95,,,,,,,,,2018_Sep_10_1155,59.9454289653,verb_norming_L1-swe_no_translation,001,801,
RYCKA,Ben/fötter,ben/fötter,0,1,1,67,0,0,0,0,1,6.174,,,2018_Sep_10_1155,59.9454289653,verb_norming_L1-swe_no_translation,001,801,
RYCKA,Armar/händer,armar/händer,0,1,1,67,0,1,1,1,7,5.253,,,2018_Sep_10_1155,59.9454289653,verb_norming_L1-swe_no_translation,001,801,
RYCKA,,,0,1,1,67,,,,,,,,,2018_Sep_10_1155,59.9454289653,verb_norming_L1-swe_no_translation,001,801,
SLÄNTRA,Ben/fötter,ben/fötter,0,2,2,139,0,0,0,0,6,7.864,,,2018_Sep_10_1155,59.9454289653,verb_norming_L1-swe_no_translation,001,801,
SLÄNTRA,Armar/händer,armar/händer,0,2,2,139,0,1,1,1,1,3.725,,,2018_Sep_10_1155,59.9454289653,verb_norming_L1-swe_no_translation,001,801,
SLÄNTRA,,,0,2,2,139,,,,,,,,,2018_Sep_10_1155,59.9454289653,verb_norming_L1-swe_no_translation,001,801,
BULTA,Ben/fötter,ben/fötter,0,3,3,4,0,0,0,0,1,10.583,,,2018_Sep_10_1155,59.9454289653,verb_norming_L1-swe_no_translation,001,801,
BULTA,Armar/händer,armar/händer,0,3,3,4,0,1,1,1,7,2.418,,,2018_Sep_10_1155,59.9454289653,verb_norming_L1-swe_no_translation,001,801,
BULTA,,,0,3,3,4,,,,,,,,,2018_Sep_10_1155,59.9454289653,verb_norming_L1-swe_no_translation,001,801,
SKAKA,Ben/fötter,ben/fötter,0,4,4,69,0,0,0,0,2,5.52,,,2018_Sep_10_1155,59.9454289653,verb_norming_L1-swe_no_translation,001,801,
SKAKA,Armar/händer,armar/händer,0,4,4,69,0,1,1,1,7,3.407,,,2018_Sep_10_1155,59.9454289653,verb_norming_L1-swe_no_translation,001,801,
SKAKA,,,0,4,4,69,,,,,,,,,2018_Sep_10_1155,59.9454289653,verb_norming_L1-swe_no_translation,001,801,
RAFSA,Ben/fötter,ben/fötter,0,5,5,58,0,0,0,0,1,3.204,,,2018_Sep_10_1155,59.9454289653,verb_norming_L1-swe_no_translation,001,801,
RAFSA,Armar/händer,armar/händer,0,5,5,58,0,1,1,1,7,2.921,,,2018_Sep_10_1155,59.9454289653,verb_norming_L1-swe_no_translation,001,801,
RAFSA,,,0,5,5,58,,,,,,,,,2018_Sep_10_1155,59.9454289653,verb_norming_L1-swe_no_translation,001,801,
KNACKA,Ben/fötter,ben/fötter,0,6,6,36,0,0,0,0,1,3.909,,,2018_Sep_10_1155,59.9454289653,verb_norming_L1-swe_no_translation,001,801,
KNACKA,Armar/händer,armar/händer,0,6,6,36,0,1,1,1,7,2.166,,,2018_Sep_10_1155,59.9454289653,verb_norming_L1-swe_no_translation,001,801,
KNACKA,,,0,6,6,36,,,,,,,,,2018_Sep_10_1155,59.9454289653,verb_norming_L1-swe_no_translation,001,801,
SLUNGA,Ben/fötter,ben/fötter,0,7,7,83,0,0,0,0,1,3.538,,,2018_Sep_10_1155,59.9454289653,verb_norming_L1-swe_no_translation,001,801,
SLUNGA,Armar/händer,armar/händer,0,7,7,83,0,1,1,1,7,1.629,,,2018_Sep_10_1155,59.9454289653,verb_norming_L1-swe_no_translation,001,801,
SLUNGA,,,0,7,7,83,,,,,,,,,2018_Sep_10_1155,59.9454289653,verb_norming_L1-swe_no_translation,001,801,
ÖSA,Ben/fötter,ben/fötter,0,8,8,48,0,0,0,0,1,3.641,,,2018_Sep_10_1155,59.9454289653,verb_norming_L1-swe_no_translation,001,801,
ÖSA,Armar/händer,armar/händer,0,8,8,48,0,1,1,1,7,2.268,,,2018_Sep_10_1155,59.9454289653,verb_norming_L1-swe_no_translation,001,801,
ÖSA,,,0,8,8,48,,,,,,,,,2018_Sep_10_1155,59.9454289653,verb_norming_L1-swe_no_translation,001,801,
SLÅ,Ben/fötter,ben/fötter,0,9,9,79,0,0,0,0,1,2.766,,,2018_Sep_10_1155,59.9454289653,verb_norming_L1-swe_no_translation,001,801,
SLÅ,Armar/händer,armar/händer,0,9,9,79,0,1,1,1,7,1.327,,,2018_Sep_10_1155,59.9454289653,verb_norming_L1-swe_no_translation,001,801,
SLÅ,,,0,9,9,79,,,,,,,,,2018_Sep_10_1155,59.9454289653,verb_norming_L1-swe_no_translation,001,801,
KLIPPA,Ben/fötter,ben/fötter,0,10,10,34,0,0,0,0,1,2.634,,,2018_Sep_10_1155,59.9454289653,verb_norming_L1-swe_no_translation,001,801,
KLIPPA,Armar/händer,armar/händer,0,10,10,34,0,1,1,1,5,2.148,,,2018_Sep_10_1155,59.9454289653,verb_norming_L1-swe_no_translation,001,801,
KLIPPA,,,0,10,10,34,,,,,,,,,2018_Sep_10_1155,59.9454289653,verb_norming_L1-swe_no_translation,001,801,
TRIPPA,Ben/fötter,ben/fötter,0,11,11,163,0,0,0,0,6,3.625,,,2018_Sep_10_1155,59.9454289653,verb_norming_L1-swe_no_translation,001,801,
TRIPPA,Armar/händer,armar/händer,0,11,11,163,0,1,1,1,1,1.511,,,2018_Sep_10_1155,59.9454289653,verb_norming_L1-swe_no_translation,001,801,
TRIPPA,,,0,11,11,163,,,,,,,,,2018_Sep_10_1155,59.9454289653,verb_norming_L1-swe_no_translation,001,801,
STRUTTA,Ben/fötter,ben/fötter,0,12,12,154,0,0,0,0,6,7.9,,,2018_Sep_10_1155,59.9454289653,verb_norming_L1-swe_no_translation,001,801,
STRUTTA,Armar/händer,armar/händer,0,12,12,154,0,1,1,1,1,2.92,,,2018_Sep_10_1155,59.9454289653,verb_norming_L1-swe_no_translation,001,801,
STRUTTA,,,0,12,12,154,,,,,,,,,2018_Sep_10_1155,59.9454289653,verb_norming_L1-swe_no_translation,001,801,
PLOCKA,Ben/fötter,ben/fötter,0,13,13,53,0,0,0,0,1,2.685,,,2018_Sep_10_1155,59.9454289653,verb_norming_L1-swe_no_translation,001,801,
PLOCKA,Armar/händer,armar/händer,0,13,13,53,0,1,1,1,7,1.009,,,2018_Sep_10_1155,59.9454289653,verb_norming_L1-swe_no_translation,001,801,
PLOCKA,,,0,13,13,53,,,,,,,,,2018_Sep_10_1155,59.9454289653,verb_norming_L1-swe_no_translation,001,801,
DASKA,Ben/fötter,ben/fötter,0,14,14,5,0,0,0,0,1,3.121,,,2018_Sep_10_1155,59.9454289653,verb_norming_L1-swe_no_translation,001,801,
DASKA,Armar/händer,armar/händer,0,14,14,5,0,1,1,1,7,1.445,,,2018_Sep_10_1155,59.9454289653,verb_norming_L1-swe_no_translation,001,801,
DASKA,,,0,14,14,5,,,,,,,,,2018_Sep_10_1155,59.9454289653,verb_norming_L1-swe_no_translation,001,801,
SKÄRA,Ben/fötter,ben/fötter,0,15,15,71,0,0,0,0,1,2.836,,,2018_Sep_10_1155,59.9454289653,verb_norming_L1-swe_no_translation,001,801,
SKÄRA,Armar/händer,armar/händer,0,15,15,71,0,1,1,1,7,0.858,,,2018_Sep_10_1155,59.9454289653,verb_norming_L1-swe_no_translation,001,801,
SKÄRA,,,0,15,15,71,,,,,,,,,2018_Sep_10_1155,59.9454289653,verb_norming_L1-swe_no_translation,001,801,
FATTA,Ben/fötter,ben/fötter,0,16,16,9,0,0,0,0,3,6.777,,,2018_Sep_10_1155,59.9454289653,verb_norming_L1-swe_no_translation,001,801,
FATTA,Armar/händer,armar/händer,0,16,16,9,0,1,1,1,2,1.78,,,2018_Sep_10_1155,59.9454289653,verb_norming_L1-swe_no_translation,001,801,
FATTA,,,0,16,16,9,,,,,,,,,2018_Sep_10_1155,59.9454289653,verb_norming_L1-swe_no_translation,001,801,
SKOPA,Ben/fötter,ben/fötter,0,17,17,73,0,0,0,0,2,3.155,,,2018_Sep_10_1155,59.9454289653,verb_norming_L1-swe_no_translation,001,801,
SKOPA,Armar/händer,armar/händer,0,17,17,73,0,1,1,1,7,4.145,,,2018_Sep_10_1155,59.9454289653,verb_norming_L1-swe_no_translation,001,801,
SKOPA,,,0,17,17,73,,,,,,,,,2018_Sep_10_1155,59.9454289653,verb_norming_L1-swe_no_translation,001,801,
PUTTA,Ben/fötter,ben/fötter,0,18,18,57,0,0,0,0,2,3.206,,,2018_Sep_10_1155,59.9454289653,verb_norming_L1-swe_no_translation,001,801,
PUTTA,Armar/händer,armar/händer,0,18,18,57,0,1,1,1,7,0.959,,,2018_Sep_10_1155,59.9454289653,verb_norming_L1-swe_no_translation,001,801,
PUTTA,,,0,18,18,57,,,,,,,,,2018_Sep_10_1155,59.9454289653,verb_norming_L1-swe_no_translation,001,801,
POLERA,Ben/fötter,ben/fötter,0,19,19,54,0,0,0,0,2,2.511,,,2018_Sep_10_1155,59.9454289653,verb_norming_L1-swe_no_translation,001,801,
POLERA,Armar/händer,armar/händer,0,19,19,54,0,1,1,1,7,0.839,,,2018_Sep_10_1155,59.9454289653,verb_norming_L1-swe_no_translation,001,801,
POLERA,,,0,19,19,54,,,,,,,,,2018_Sep_10_1155,59.9454289653,verb_norming_L1-swe_no_translation,001,801,
RAKA,Ben/fötter,ben/fötter,0,20,20,59,0,0,0,0,1,3.323,,,2018_Sep_10_1155,59.9454289653,verb_norming_L1-swe_no_translation,001,801,
RAKA,Armar/händer,armar/händer,0,20,20,59,0,1,1,1,5,1.865,,,2018_Sep_10_1155,59.9454289653,verb_norming_L1-swe_no_translation,001,801,
RAKA,,,0,20,20,59,,,,,,,,,2018_Sep_10_1155,59.9454289653,verb_norming_L1-swe_no_translation,001,801,
PILLA,Ben/fötter,ben/fötter,0,21,21,51,0,0,0,0,1,2.769,,,2018_Sep_10_1155,59.9454289653,verb_norming_L1-swe_no_translation,001,801,
PILLA,Armar/händer,armar/händer,0,21,21,51,0,1,1,1,7,1.63,,,2018_Sep_10_1155,59.9454289653,verb_norming_L1-swe_no_translation,001,801,
PILLA,,,0,21,21,51,,,,,,,,,2018_Sep_10_1155,59.9454289653,verb_norming_L1-swe_no_translation,001,801,
SIGNERA,Ben/fötter,ben/fötter,0,22,22,68,0,0,0,0,1,3.186,,,2018_Sep_10_1155,59.9454289653,verb_norming_L1-swe_no_translation,001,801,
SIGNERA,Armar/händer,armar/händer,0,22,22,68,0,1,1,1,7,5.149,,,2018_Sep_10_1155,59.9454289653,verb_norming_L1-swe_no_translation,001,801,
SIGNERA,,,0,22,22,68,,,,,,,,,2018_Sep_10_1155,59.9454289653,verb_norming_L1-swe_no_translation,001,801,
PINNA,Ben/fötter,ben/fötter,0,23,23,128,0,0,0,0,7,6.358,,,2018_Sep_10_1155,59.9454289653,verb_norming_L1-swe_no_translation,001,801,
PINNA,Armar/händer,armar/händer,0,23,23,128,0,1,1,1,1,3.055,,,2018_Sep_10_1155,59.9454289653,verb_norming_L1-swe_no_translation,001,801,
PINNA,,,0,23,23,128,,,,,,,,,2018_Sep_10_1155,59.9454289653,verb_norming_L1-swe_no_translation,001,801,
SKEJTA,Ben/fötter,ben/fötter,0,24,24,135,0,0,0,0,7,4.024,,,2018_Sep_10_1155,59.9454289653,verb_norming_L1-swe_no_translation,001,801,
SKEJTA,Armar/händer,armar/händer,0,24,24,135,0,1,1,1,2,1.896,,,2018_Sep_10_1155,59.9454289653,verb_norming_L1-swe_no_translation,001,801,
SKEJTA,,,0,24,24,135,,,,,,,,,2018_Sep_10_1155,59.9454289653,verb_norming_L1-swe_no_translation,001,801,
SKRIDA,Ben/fötter,ben/fötter,0,25,25,136,0,0,0,0,7,4.312,,,2018_Sep_10_1155,59.9454289653,verb_norming_L1-swe_no_translation,001,801,
SKRIDA,Armar/händer,armar/händer,0,25,25,136,0,1,1,1,1,2.635,,,2018_Sep_10_1155,59.9454289653,verb_norming_L1-swe_no_translation,001,801,
SKRIDA,,,0,25,25,136,,,,,,,,,2018_Sep_10_1155,59.9454289653,verb_norming_L1-swe_no_translation,001,801,
NAPPA,Ben/fötter,ben/fötter,0,26,26,45,0,0,0,0,1,9.41,,,2018_Sep_10_1155,59.9454289653,verb_norming_L1-swe_no_translation,001,801,
NAPPA,Armar/händer,armar/händer,0,26,26,45,0,1,1,1,6,1.042,,,2018_Sep_10_1155,59.9454289653,verb_norming_L1-swe_no_translation,001,801,
NAPPA,,,0,26,26,45,,,,,,,,,2018_Sep_10_1155,59.9454289653,verb_norming_L1-swe_no_translation,001,801,
BORSTA,Ben/fötter,ben/fötter,0,27,27,3,0,0,0,0,1,2.886,,,2018_Sep_10_1155,59.9454289653,verb_norming_L1-swe_no_translation,001,801,
BORSTA,Armar/händer,armar/händer,0,27,27,3,0,1,1,1,6,5.234,,,2018_Sep_10_1155,59.9454289653,verb_norming_L1-swe_no_translation,001,801,
BORSTA,,,0,27,27,3,,,,,,,,,2018_Sep_10_1155,59.9454289653,verb_norming_L1-swe_no_translation,001,801,
PROMENERA,Ben/fötter,ben/fötter,0,28,28,129,0,0,0,0,7,2.964,,,2018_Sep_10_1155,59.9454289653,verb_norming_L1-swe_no_translation,001,801,
PROMENERA,Armar/händer,armar/händer,0,28,28,129,0,1,1,1,1,2.196,,,2018_Sep_10_1155,59.9454289653,verb_norming_L1-swe_no_translation,001,801,
PROMENERA,,,0,28,28,129,,,,,,,,,2018_Sep_10_1155,59.9454289653,verb_norming_L1-swe_no_translation,001,801,
DUNKA,Ben/fötter,ben/fötter,0,29,29,7,0,0,0,0,1,2.904,,,2018_Sep_10_1155,59.9454289653,verb_norming_L1-swe_no_translation,001,801,
DUNKA,Armar/händer,armar/händer,0,29,29,7,0,1,1,1,7,1.04,,,2018_Sep_10_1155,59.9454289653,verb_norming_L1-swe_no_translation,001,801,
DUNKA,,,0,29,29,7,,,,,,,,,2018_Sep_10_1155,59.9454289653,verb_norming_L1-swe_no_translation,001,801,
STRÖVA,Ben/fötter,ben/fötter,0,30,30,153,0,0,0,0,2,21.788,,,2018_Sep_10_1155,59.9454289653,verb_norming_L1-swe_no_translation,001,801,
STRÖVA,Armar/händer,armar/händer,0,30,30,153,0,1,1,1,6,5.164,,,2018_Sep_10_1155,59.9454289653,verb_norming_L1-swe_no_translation,001,801,
STRÖVA,,,0,30,30,153,,,,,,,,,2018_Sep_10_1155,59.9454289653,verb_norming_L1-swe_no_translation,001,801,
VIKA,Ben/fötter,ben/fötter,0,31,31,98,0,0,0,0,2,15.868,,,2018_Sep_10_1155,59.9454289653,verb_norming_L1-swe_no_translation,001,801,
VIKA,Armar/händer,armar/händer,0,31,31,98,0,1,1,1,6,7.366,,,2018_Sep_10_1155,59.9454289653,verb_norming_L1-swe_no_translation,001,801,
VIKA,,,0,31,31,98,,,,,,,,,2018_Sep_10_1155,59.9454289653,verb_norming_L1-swe_no_translation,001,801,
GRÄVA,Ben/fötter,ben/fötter,0,32,32,17,0,0,0,0,1,4.279,,,2018_Sep_10_1155,59.9454289653,verb_norming_L1-swe_no_translation,001,801,
GRÄVA,Armar/händer,armar/händer,0,32,32,17,0,1,1,1,7,2.317,,,2018_Sep_10_1155,59.9454289653,verb_norming_L1-swe_no_translation,001,801,
GRÄVA,,,0,32,32,17,,,,,,,,,2018_Sep_10_1155,59.9454289653,verb_norming_L1-swe_no_translation,001,801,
HÖJA,Ben/fötter,ben/fötter,0,33,33,25,0,0,0,0,3,5.015,,,2018_Sep_10_1155,59.9454289653,verb_norming_L1-swe_no_translation,001,801,
HÖJA,Armar/händer,armar/händer,0,33,33,25,0,1,1,1,4,2.282,,,2018_Sep_10_1155,59.9454289653,verb_norming_L1-swe_no_translation,001,801,
HÖJA,,,0,33,33,25,,,,,,,,,2018_Sep_10_1155,59.9454289653,verb_norming_L1-swe_no_translation,001,801,
STEGA,Ben/fötter,ben/fötter,0,34,34,150,0,0,0,0,7,2.918,,,2018_Sep_10_1155,59.9454289653,verb_norming_L1-swe_no_translation,001,801,
STEGA,Armar/händer,armar/händer,0,34,34,150,0,1,1,1,1,3.875,,,2018_Sep_10_1155,59.9454289653,verb_norming_L1-swe_no_translation,001,801,
STEGA,,,0,34,34,150,,,,,,,,,2018_Sep_10_1155,59.9454289653,verb_norming_L1-swe_no_translation,001,801,
SMYGA,Ben/fötter,ben/fötter,0,35,35,141,0,0,0,0,7,3.925,,,2018_Sep_10_1155,59.9454289653,verb_norming_L1-swe_no_translation,001,801,
SMYGA,Armar/händer,armar/händer,0,35,35,141,0,1,1,1,1,2.062,,,2018_Sep_10_1155,59.9454289653,verb_norming_L1-swe_no_translation,001,801,
SMYGA,,,0,35,35,141,,,,,,,,,2018_Sep_10_1155,59.9454289653,verb_norming_L1-swe_no_translation,001,801,
MARSCHERA,Ben/fötter,ben/fötter,0,36,36,127,0,0,0,0,7,2.413,,,2018_Sep_10_1155,59.9454289653,verb_norming_L1-swe_no_translation,001,801,
MARSCHERA,Armar/händer,armar/händer,0,36,36,127,0,1,1,1,2,1.525,,,2018_Sep_10_1155,59.9454289653,verb_norming_L1-swe_no_translation,001,801,
MARSCHERA,,,0,36,36,127,,,,,,,,,2018_Sep_10_1155,59.9454289653,verb_norming_L1-swe_no_translation,001,801,
KLIA,Ben/fötter,ben/fötter,0,37,37,32,0,0,0,0,1,4.48,,,2018_Sep_10_1155,59.9454289653,verb_norming_L1-swe_no_translation,001,801,
KLIA,Armar/händer,armar/händer,0,37,37,32,0,1,1,1,7,1.999,,,2018_Sep_10_1155,59.9454289653,verb_norming_L1-swe_no_translation,001,801,
KLIA,,,0,37,37,32,,,,,,,,,2018_Sep_10_1155,59.9454289653,verb_norming_L1-swe_no_translation,001,801,
KILA,Ben/fötter,ben/fötter,0,38,38,115,0,0,0,0,1,5.503,,,2018_Sep_10_1155,59.9454289653,verb_norming_L1-swe_no_translation,001,801,
KILA,Armar/händer,armar/händer,0,38,38,115,0,1,1,1,1,26.233,,,2018_Sep_10_1155,59.9454289653,verb_norming_L1-swe_no_translation,001,801,
KILA,,,0,38,38,115,,,,,,,,,2018_Sep_10_1155,59.9454289653,verb_norming_L1-swe_no_translation,001,801,
RÄNNA,Ben/fötter,ben/fötter,0,39,39,131,0,0,0,0,7,3.423,,,2018_Sep_10_1155,59.9454289653,verb_norming_L1-swe_no_translation,001,801,
RÄNNA,Armar/händer,armar/händer,0,39,39,131,0,1,1,1,1,1.495,,,2018_Sep_10_1155,59.9454289653,verb_norming_L1-swe_no_translation,001,801,
RÄNNA,,,0,39,39,131,,,,,,,,,2018_Sep_10_1155,59.9454289653,verb_norming_L1-swe_no_translation,001,801,
HACKA,Ben/fötter,ben/fötter,0,40,40,20,0,0,0,0,2,3.574,,,2018_Sep_10_1155,59.9454289653,verb_norming_L1-swe_no_translation,001,801,
HACKA,Armar/händer,armar/händer,0,40,40,20,0,1,1,1,7,1.512,,,2018_Sep_10_1155,59.9454289653,verb_norming_L1-swe_no_translation,001,801,
HACKA,,,0,40,40,20,,,,,,,,,2018_Sep_10_1155,59.9454289653,verb_norming_L1-swe_no_translation,001,801,
KNYCKA,Ben/fötter,ben/fötter,0,41,41,39,0,0,0,0,2,4.865,,,2018_Sep_10_1155,59.9454289653,verb_norming_L1-swe_no_translation,001,801,
KNYCKA,Armar/händer,armar/händer,0,41,41,39,0,1,1,1,7,1.478,,,2018_Sep_10_1155,59.9454289653,verb_norming_L1-swe_no_translation,001,801,
KNYCKA,,,0,41,41,39,,,,,,,,,2018_Sep_10_1155,59.9454289653,verb_norming_L1-swe_no_translation,001,801,
GREPPA,Ben/fötter,ben/fötter,0,42,42,18,0,0,0,0,2,3.153,,,2018_Sep_10_1155,59.9454289653,verb_norming_L1-swe_no_translation,001,801,
GREPPA,Armar/händer,armar/händer,0,42,42,18,0,1,1,1,7,1.04,,,2018_Sep_10_1155,59.9454289653,verb_norming_L1-swe_no_translation,001,801,
GREPPA,,,0,42,42,18,,,,,,,,,2018_Sep_10_1155,59.9454289653,verb_norming_L1-swe_no_translation,001,801,
TVÄTTA,Ben/fötter,ben/fötter,0,43,43,96,0,0,0,0,1,2.752,,,2018_Sep_10_1155,59.9454289653,verb_norming_L1-swe_no_translation,001,801,
TVÄTTA,Armar/händer,armar/händer,0,43,43,96,0,1,1,1,7,1.359,,,2018_Sep_10_1155,59.9454289653,verb_norming_L1-swe_no_translation,001,801,
TVÄTTA,,,0,43,43,96,,,,,,,,,2018_Sep_10_1155,59.9454289653,verb_norming_L1-swe_no_translation,001,801,
GRIPA,Ben/fötter,ben/fötter,0,44,44,19,0,0,0,0,2,4.279,,,2018_Sep_10_1155,59.9454289653,verb_norming_L1-swe_no_translation,001,801,
GRIPA,Armar/händer,armar/händer,0,44,44,19,0,1,1,1,7,3.558,,,2018_Sep_10_1155,59.9454289653,verb_norming_L1-swe_no_translation,001,801,
GRIPA,,,0,44,44,19,,,,,,,,,2018_Sep_10_1155,59.9454289653,verb_norming_L1-swe_no_translation,001,801,
GESTIKULERA,Ben/fötter,ben/fötter,0,45,45,13,0,0,0,0,2,3.501,,,2018_Sep_10_1155,59.9454289653,verb_norming_L1-swe_no_translation,001,801,
GESTIKULERA,Armar/händer,armar/händer,0,45,45,13,0,1,1,1,7,2.329,,,2018_Sep_10_1155,59.9454289653,verb_norming_L1-swe_no_translation,001,801,
GESTIKULERA,,,0,45,45,13,,,,,,,,,2018_Sep_10_1155,59.9454289653,verb_norming_L1-swe_no_translation,001,801,
CYKLA,Ben/fötter,ben/fötter,0,46,46,101,0,0,0,0,7,3.992,,,2018_Sep_10_1155,59.9454289653,verb_norming_L1-swe_no_translation,001,801,
CYKLA,Armar/händer,armar/händer,0,46,46,101,0,1,1,1,2,1.713,,,2018_Sep_10_1155,59.9454289653,verb_norming_L1-swe_no_translation,001,801,
CYKLA,,,0,46,46,101,,,,,,,,,2018_Sep_10_1155,59.9454289653,verb_norming_L1-swe_no_translation,001,801,
KRATSA,Ben/fötter,ben/fötter,0,47,47,42,0,0,0,0,3,6.877,,,2018_Sep_10_1155,59.9454289653,verb_norming_L1-swe_no_translation,001,801,
KRATSA,Armar/händer,armar/händer,0,47,47,42,0,1,1,1,3,0.74,,,2018_Sep_10_1155,59.9454289653,verb_norming_L1-swe_no_translation,001,801,
KRATSA,,,0,47,47,42,,,,,,,,,2018_Sep_10_1155,59.9454289653,verb_norming_L1-swe_no_translation,001,801,
FÖSA,Ben/fötter,ben/fötter,0,48,48,12,0,0,0,0,2,4.816,,,2018_Sep_10_1155,59.9454289653,verb_norming_L1-swe_no_translation,001,801,
FÖSA,Armar/händer,armar/händer,0,48,48,12,0,1,1,1,5,2.687,,,2018_Sep_10_1155,59.9454289653,verb_norming_L1-swe_no_translation,001,801,
FÖSA,,,0,48,48,12,,,,,,,,,2018_Sep_10_1155,59.9454289653,verb_norming_L1-swe_no_translation,001,801,
STÅ,Ben/fötter,ben/fötter,0,49,49,147,0,0,0,0,7,2.701,,,2018_Sep_10_1155,59.9454289653,verb_norming_L1-swe_no_translation,001,801,
STÅ,Armar/händer,armar/händer,0,49,49,147,0,1,1,1,1,0.874,,,2018_Sep_10_1155,59.9454289653,verb_norming_L1-swe_no_translation,001,801,
STÅ,,,0,49,49,147,,,,,,,,,2018_Sep_10_1155,59.9454289653,verb_norming_L1-swe_no_translation,001,801,
SKALA,Ben/fötter,ben/fötter,0,50,50,70,0,0,0,0,1,12.916,,,2018_Sep_10_1155,59.9454289653,verb_norming_L1-swe_no_translation,001,801,
SKALA,Armar/händer,armar/händer,0,50,50,70,0,1,1,1,7,1.193,,,2018_Sep_10_1155,59.9454289653,verb_norming_L1-swe_no_translation,001,801,
SKALA,,,0,50,50,70,,,,,,,,,2018_Sep_10_1155,59.9454289653,verb_norming_L1-swe_no_translation,001,801,
RAGLA,Ben/fötter,ben/fötter,0,51,51,130,0,0,0,0,7,4.245,,,2018_Sep_10_1155,59.9454289653,verb_norming_L1-swe_no_translation,001,801,
RAGLA,Armar/händer,armar/händer,0,51,51,130,0,1,1,1,1,1.545,,,2018_Sep_10_1155,59.9454289653,verb_norming_L1-swe_no_translation,001,801,
RAGLA,,,0,51,51,130,,,,,,,,,2018_Sep_10_1155,59.9454289653,verb_norming_L1-swe_no_translation,001,801,
VANDRA,Ben/fötter,ben/fötter,0,52,52,166,0,0,0,0,7,9.074,,,2018_Sep_10_1155,59.9454289653,verb_norming_L1-swe_no_translation,001,801,
VANDRA,Armar/händer,armar/händer,0,52,52,166,0,1,1,1,1,1.612,,,2018_Sep_10_1155,59.9454289653,verb_norming_L1-swe_no_translation,001,801,
VANDRA,,,0,52,52,166,,,,,,,,,2018_Sep_10_1155,59.9454289653,verb_norming_L1-swe_no_translation,001,801,
GRABBA,Ben/fötter,ben/fötter,0,53,53,16,0,0,0,0,2,3.272,,,2018_Sep_10_1155,59.9454289653,verb_norming_L1-swe_no_translation,001,801,
GRABBA,Armar/händer,armar/händer,0,53,53,16,0,1,1,1,7,0.958,,,2018_Sep_10_1155,59.9454289653,verb_norming_L1-swe_no_translation,001,801,
GRABBA,,,0,53,53,16,,,,,,,,,2018_Sep_10_1155,59.9454289653,verb_norming_L1-swe_no_translation,001,801,
RULLA,Ben/fötter,ben/fötter,0,54,54,132,0,0,0,0,4,4.33,,,2018_Sep_10_1155,59.9454289653,verb_norming_L1-swe_no_translation,001,801,
RULLA,Armar/händer,armar/händer,0,54,54,132,0,1,1,1,3,2.853,,,2018_Sep_10_1155,59.9454289653,verb_norming_L1-swe_no_translation,001,801,
RULLA,,,0,54,54,132,,,,,,,,,2018_Sep_10_1155,59.9454289653,verb_norming_L1-swe_no_translation,001,801,
FÅNGA,Ben/fötter,ben/fötter,0,55,55,8,0,0,0,0,1,3.74,,,2018_Sep_10_1155,59.9454289653,verb_norming_L1-swe_no_translation,001,801,
FÅNGA,Armar/händer,armar/händer,0,55,55,8,0,1,1,1,7,0.974,,,2018_Sep_10_1155,59.9454289653,verb_norming_L1-swe_no_translation,001,801,
FÅNGA,,,0,55,55,8,,,,,,,,,2018_Sep_10_1155,59.9454289653,verb_norming_L1-swe_no_translation,001,801,
KARVA,Ben/fötter,ben/fötter,0,56,56,26,0,0,0,0,1,3.071,,,2018_Sep_10_1155,59.9454289653,verb_norming_L1-swe_no_translation,001,801,
KARVA,Armar/händer,armar/händer,0,56,56,26,0,1,1,1,7,1.797,,,2018_Sep_10_1155,59.9454289653,verb_norming_L1-swe_no_translation,001,801,
KARVA,,,0,56,56,26,,,,,,,,,2018_Sep_10_1155,59.9454289653,verb_norming_L1-swe_no_translation,001,801,
KRAMA,Ben/fötter,ben/fötter,0,57,57,41,0,0,0,0,1,2.497,,,2018_Sep_10_1155,59.9454289653,verb_norming_L1-swe_no_translation,001,801,
KRAMA,Armar/händer,armar/händer,0,57,57,41,0,1,1,1,7,0.89,,,2018_Sep_10_1155,59.9454289653,verb_norming_L1-swe_no_translation,001,801,
KRAMA,,,0,57,57,41,,,,,,,,,2018_Sep_10_1155,59.9454289653,verb_norming_L1-swe_no_translation,001,801,
KLÄTTRA,Ben/fötter,ben/fötter,0,58,58,116,0,0,0,0,7,2.818,,,2018_Sep_10_1155,59.9454289653,verb_norming_L1-swe_no_translation,001,801,
KLÄTTRA,Armar/händer,armar/händer,0,58,58,116,0,1,1,1,7,3.758,,,2018_Sep_10_1155,59.9454289653,verb_norming_L1-swe_no_translation,001,801,
KLÄTTRA,,,0,58,58,116,,,,,,,,,2018_Sep_10_1155,59.9454289653,verb_norming_L1-swe_no_translation,001,801,
HOPPA,Ben/fötter,ben/fötter,0,59,59,111,0,0,0,0,7,3.625,,,2018_Sep_10_1155,59.9454289653,verb_norming_L1-swe_no_translation,001,801,
HOPPA,Armar/händer,armar/händer,0,59,59,111,0,1,1,1,2,2.075,,,2018_Sep_10_1155,59.9454289653,verb_norming_L1-swe_no_translation,001,801,
HOPPA,,,0,59,59,111,,,,,,,,,2018_Sep_10_1155,59.9454289653,verb_norming_L1-swe_no_translation,001,801,
SLEVA,Ben/fötter,ben/fötter,0,60,60,80,0,0,0,0,1,2.818,,,2018_Sep_10_1155,59.9454289653,verb_norming_L1-swe_no_translation,001,801,
SLEVA,Armar/händer,armar/händer,0,60,60,80,0,1,1,1,6,3.002,,,2018_Sep_10_1155,59.9454289653,verb_norming_L1-swe_no_translation,001,801,
SLEVA,,,0,60,60,80,,,,,,,,,2018_Sep_10_1155,59.9454289653,verb_norming_L1-swe_no_translation,001,801,
FLÄTA,Ben/fötter,ben/fötter,0,61,61,11,0,0,0,0,1,5.839,,,2018_Sep_10_1155,59.9454289653,verb_norming_L1-swe_no_translation,001,801,
FLÄTA,Armar/händer,armar/händer,0,61,61,11,0,1,1,1,7,2.468,,,2018_Sep_10_1155,59.9454289653,verb_norming_L1-swe_no_translation,001,801,
FLÄTA,,,0,61,61,11,,,,,,,,,2018_Sep_10_1155,59.9454289653,verb_norming_L1-swe_no_translation,001,801,
KNÄA,Ben/fötter,ben/fötter,0,62,62,118,0,0,0,0,7,4.296,,,2018_Sep_10_1155,59.9454289653,verb_norming_L1-swe_no_translation,001,801,
KNÄA,Armar/händer,armar/händer,0,62,62,118,0,1,1,1,1,0.841,,,2018_Sep_10_1155,59.9454289653,verb_norming_L1-swe_no_translation,001,801,
KNÄA,,,0,62,62,118,,,,,,,,,2018_Sep_10_1155,59.9454289653,verb_norming_L1-swe_no_translation,001,801,
NORPA,Ben/fötter,ben/fötter,0,63,63,46,0,0,0,0,1,3.591,,,2018_Sep_10_1155,59.9454289653,verb_norming_L1-swe_no_translation,001,801,
NORPA,Armar/händer,armar/händer,0,63,63,46,0,1,1,1,6,1.143,,,2018_Sep_10_1155,59.9454289653,verb_norming_L1-swe_no_translation,001,801,
NORPA,,,0,63,63,46,,,,,,,,,2018_Sep_10_1155,59.9454289653,verb_norming_L1-swe_no_translation,001,801,
KASTA,Ben/fötter,ben/fötter,0,64,64,27,0,0,0,0,1,3.139,,,2018_Sep_10_1155,59.9454289653,verb_norming_L1-swe_no_translation,001,801,
KASTA,Armar/händer,armar/händer,0,64,64,27,0,1,1,1,6,2.535,,,2018_Sep_10_1155,59.9454289653,verb_norming_L1-swe_no_translation,001,801,
KASTA,,,0,64,64,27,,,,,,,,,2018_Sep_10_1155,59.9454289653,verb_norming_L1-swe_no_translation,001,801,
PUTSA,Ben/fötter,ben/fötter,0,65,65,56,0,0,0,0,2,3.205,,,2018_Sep_10_1155,59.9454289653,verb_norming_L1-swe_no_translation,001,801,
PUTSA,Armar/händer,armar/händer,0,65,65,56,0,1,1,1,7,3.86,,,2018_Sep_10_1155,59.9454289653,verb_norming_L1-swe_no_translation,001,801,
PUTSA,,,0,65,65,56,,,,,,,,,2018_Sep_10_1155,59.9454289653,verb_norming_L1-swe_no_translation,001,801,
BANKA,Ben/fötter,ben/fötter,0,66,66,1,0,0,0,0,1,2.786,,,2018_Sep_10_1155,59.9454289653,verb_norming_L1-swe_no_translation,001,801,
BANKA,Armar/händer,armar/händer,0,66,66,1,0,1,1,1,7,0.825,,,2018_Sep_10_1155,59.9454289653,verb_norming_L1-swe_no_translation,001,801,
BANKA,,,0,66,66,1,,,,,,,,,2018_Sep_10_1155,59.9454289653,verb_norming_L1-swe_no_translation,001,801,
SMEKA,Ben/fötter,ben/fötter,0,67,67,85,0,0,0,0,1,2.499,,,2018_Sep_10_1155,59.9454289653,verb_norming_L1-swe_no_translation,001,801,
SMEKA,Armar/händer,armar/händer,0,67,67,85,0,1,1,1,7,1.022,,,2018_Sep_10_1155,59.9454289653,verb_norming_L1-swe_no_translation,001,801,
SMEKA,,,0,67,67,85,,,,,,,,,2018_Sep_10_1155,59.9454289653,verb_norming_L1-swe_no_translation,001,801,
SVABBA,Ben/fötter,ben/fötter,0,68,68,90,0,0,0,0,3,3.674,,,2018_Sep_10_1155,59.9454289653,verb_norming_L1-swe_no_translation,001,801,
SVABBA,Armar/händer,armar/händer,0,68,68,90,0,1,1,1,4,1.477,,,2018_Sep_10_1155,59.9454289653,verb_norming_L1-swe_no_translation,001,801,
SVABBA,,,0,68,68,90,,,,,,,,,2018_Sep_10_1155,59.9454289653,verb_norming_L1-swe_no_translation,001,801,
SKRAPA,Ben/fötter,ben/fötter,0,69,69,74,0,0,0,0,1,2.4,,,2018_Sep_10_1155,59.9454289653,verb_norming_L1-swe_no_translation,001,801,
SKRAPA,Armar/händer,armar/händer,0,69,69,74,0,1,1,1,6,1.277,,,2018_Sep_10_1155,59.9454289653,verb_norming_L1-swe_no_translation,001,801,
SKRAPA,,,0,69,69,74,,,,,,,,,2018_Sep_10_1155,59.9454289653,verb_norming_L1-swe_no_translation,001,801,
VANKA,Ben/fötter,ben/fötter,0,70,70,167,0,0,0,0,7,3.927,,,2018_Sep_10_1155,59.9454289653,verb_norming_L1-swe_no_translation,001,801,
VANKA,Armar/händer,armar/händer,0,70,70,167,0,1,1,1,1,1.009,,,2018_Sep_10_1155,59.9454289653,verb_norming_L1-swe_no_translation,001,801,
VANKA,,,0,70,70,167,,,,,,,,,2018_Sep_10_1155,59.9454289653,verb_norming_L1-swe_no_translation,001,801,
TA,Ben/fötter,ben/fötter,0,71,71,92,0,0,0,0,2,6.629,,,2018_Sep_10_1155,59.9454289653,verb_norming_L1-swe_no_translation,001,801,
TA,Armar/händer,armar/händer,0,71,71,92,0,1,1,1,7,1.833,,,2018_Sep_10_1155,59.9454289653,verb_norming_L1-swe_no_translation,001,801,
TA,,,0,71,71,92,,,,,,,,,2018_Sep_10_1155,59.9454289653,verb_norming_L1-swe_no_translation,001,801,
KNIPA,Ben/fötter,ben/fötter,0,72,72,37,0,0,0,0,1,3.994,,,2018_Sep_10_1155,59.9454289653,verb_norming_L1-swe_no_translation,001,801,
KNIPA,Armar/händer,armar/händer,0,72,72,37,0,1,1,1,7,1.043,,,2018_Sep_10_1155,59.9454289653,verb_norming_L1-swe_no_translation,001,801,
KNIPA,,,0,72,72,37,,,,,,,,,2018_Sep_10_1155,59.9454289653,verb_norming_L1-swe_no_translation,001,801,
KLICKA,Ben/fötter,ben/fötter,0,73,73,33,0,0,0,0,1,1.913,,,2018_Sep_10_1155,59.9454289653,verb_norming_L1-swe_no_translation,001,801,
KLICKA,Armar/händer,armar/händer,0,73,73,33,0,1,1,1,7,1.361,,,2018_Sep_10_1155,59.9454289653,verb_norming_L1-swe_no_translation,001,801,
KLICKA,,,0,73,73,33,,,,,,,,,2018_Sep_10_1155,59.9454289653,verb_norming_L1-swe_no_translation,001,801,
LUNKA,Ben/fötter,ben/fötter,0,74,74,126,0,0,0,0,7,2.87,,,2018_Sep_10_1155,59.9454289653,verb_norming_L1-swe_no_translation,001,801,
LUNKA,Armar/händer,armar/händer,0,74,74,126,0,1,1,1,4,2.653,,,2018_Sep_10_1155,59.9454289653,verb_norming_L1-swe_no_translation,001,801,
LUNKA,,,0,74,74,126,,,,,,,,,2018_Sep_10_1155,59.9454289653,verb_norming_L1-swe_no_translation,001,801,
STÖTA,Ben/fötter,ben/fötter,0,75,75,89,0,0,0,0,1,2.752,,,2018_Sep_10_1155,59.9454289653,verb_norming_L1-swe_no_translation,001,801,
STÖTA,Armar/händer,armar/händer,0,75,75,89,0,1,1,1,5,1.63,,,2018_Sep_10_1155,59.9454289653,verb_norming_L1-swe_no_translation,001,801,
STÖTA,,,0,75,75,89,,,,,,,,,2018_Sep_10_1155,59.9454289653,verb_norming_L1-swe_no_translation,001,801,
LINDA,Ben/fötter,ben/fötter,0,76,76,43,0,0,0,0,1,3.222,,,2018_Sep_10_1155,59.9454289653,verb_norming_L1-swe_no_translation,001,801,
LINDA,Armar/händer,armar/händer,0,76,76,43,0,1,1,1,6,2.183,,,2018_Sep_10_1155,59.9454289653,verb_norming_L1-swe_no_translation,001,801,
LINDA,,,0,76,76,43,,,,,,,,,2018_Sep_10_1155,59.9454289653,verb_norming_L1-swe_no_translation,001,801,
VINGLA,Ben/fötter,ben/fötter,0,77,77,168,0,0,0,0,6,2.635,,,2018_Sep_10_1155,59.9454289653,verb_norming_L1-swe_no_translation,001,801,
VINGLA,Armar/händer,armar/händer,0,77,77,168,0,1,1,1,2,1.712,,,2018_Sep_10_1155,59.9454289653,verb_norming_L1-swe_no_translation,001,801,
VINGLA,,,0,77,77,168,,,,,,,,,2018_Sep_10_1155,59.9454289653,verb_norming_L1-swe_no_translation,001,801,
TRUMMA,Ben/fötter,ben/fötter,0,78,78,94,0,0,0,0,1,4.396,,,2018_Sep_10_1155,59.9454289653,verb_norming_L1-swe_no_translation,001,801,
TRUMMA,Armar/händer,armar/händer,0,78,78,94,0,1,1,1,7,1.189,,,2018_Sep_10_1155,59.9454289653,verb_norming_L1-swe_no_translation,001,801,
TRUMMA,,,0,78,78,94,,,,,,,,,2018_Sep_10_1155,59.9454289653,verb_norming_L1-swe_no_translation,001,801,
TRAMPA,Ben/fötter,ben/fötter,0,79,79,161,0,0,0,0,7,3.522,,,2018_Sep_10_1155,59.9454289653,verb_norming_L1-swe_no_translation,001,801,
TRAMPA,Armar/händer,armar/händer,0,79,79,161,0,1,1,1,1,1.024,,,2018_Sep_10_1155,59.9454289653,verb_norming_L1-swe_no_translation,001,801,
TRAMPA,,,0,79,79,161,,,,,,,,,2018_Sep_10_1155,59.9454289653,verb_norming_L1-swe_no_translation,001,801,
KRYPA,Ben/fötter,ben/fötter,0,80,80,123,0,0,0,0,5,3.054,,,2018_Sep_10_1155,59.9454289653,verb_norming_L1-swe_no_translation,001,801,
KRYPA,Armar/händer,armar/händer,0,80,80,123,0,1,1,1,4,3.038,,,2018_Sep_10_1155,59.9454289653,verb_norming_L1-swe_no_translation,001,801,
KRYPA,,,0,80,80,123,,,,,,,,,2018_Sep_10_1155,59.9454289653,verb_norming_L1-swe_no_translation,001,801,
STIGA,Ben/fötter,ben/fötter,0,81,81,151,0,0,0,0,7,3.289,,,2018_Sep_10_1155,59.9454289653,verb_norming_L1-swe_no_translation,001,801,
STIGA,Armar/händer,armar/händer,0,81,81,151,0,1,1,1,3,1.663,,,2018_Sep_10_1155,59.9454289653,verb_norming_L1-swe_no_translation,001,801,
STIGA,,,0,81,81,151,,,,,,,,,2018_Sep_10_1155,59.9454289653,verb_norming_L1-swe_no_translation,001,801,
TRÄDA,Ben/fötter,ben/fötter,0,82,82,160,0,0,0,0,6,4.396,,,2018_Sep_10_1155,59.9454289653,verb_norming_L1-swe_no_translation,001,801,
TRÄDA,Armar/händer,armar/händer,0,82,82,160,0,1,1,1,2,1.395,,,2018_Sep_10_1155,59.9454289653,verb_norming_L1-swe_no_translation,001,801,
TRÄDA,,,0,82,82,160,,,,,,,,,2018_Sep_10_1155,59.9454289653,verb_norming_L1-swe_no_translation,001,801,
SNUBBLA,Ben/fötter,ben/fötter,0,83,83,143,0,0,0,0,7,2.097,,,2018_Sep_10_1155,59.9454289653,verb_norming_L1-swe_no_translation,001,801,
SNUBBLA,Armar/händer,armar/händer,0,83,83,143,0,1,1,1,2,0.857,,,2018_Sep_10_1155,59.9454289653,verb_norming_L1-swe_no_translation,001,801,
SNUBBLA,,,0,83,83,143,,,,,,,,,2018_Sep_10_1155,59.9454289653,verb_norming_L1-swe_no_translation,001,801,
KLAPPA,Ben/fötter,ben/fötter,0,84,84,31,0,0,0,0,1,3.305,,,2018_Sep_10_1155,59.9454289653,verb_norming_L1-swe_no_translation,001,801,
KLAPPA,Armar/händer,armar/händer,0,84,84,31,0,1,1,1,7,1.461,,,2018_Sep_10_1155,59.9454289653,verb_norming_L1-swe_no_translation,001,801,
KLAPPA,,,0,84,84,31,,,,,,,,,2018_Sep_10_1155,59.9454289653,verb_norming_L1-swe_no_translation,001,801,
STAPPLA,Ben/fötter,ben/fötter,0,85,85,149,0,0,0,0,7,8.923,,,2018_Sep_10_1155,59.9454289653,verb_norming_L1-swe_no_translation,001,801,
STAPPLA,Armar/händer,armar/händer,0,85,85,149,0,1,1,1,1,0.991,,,2018_Sep_10_1155,59.9454289653,verb_norming_L1-swe_no_translation,001,801,
STAPPLA,,,0,85,85,149,,,,,,,,,2018_Sep_10_1155,59.9454289653,verb_norming_L1-swe_no_translation,001,801,
SKYFFLA,Ben/fötter,ben/fötter,0,86,86,78,0,0,0,0,1,2.517,,,2018_Sep_10_1155,59.9454289653,verb_norming_L1-swe_no_translation,001,801,
SKYFFLA,Armar/händer,armar/händer,0,86,86,78,0,1,1,1,7,3.641,,,2018_Sep_10_1155,59.9454289653,verb_norming_L1-swe_no_translation,001,801,
SKYFFLA,,,0,86,86,78,,,,,,,,,2018_Sep_10_1155,59.9454289653,verb_norming_L1-swe_no_translation,001,801,
PADDLA,Ben/fötter,ben/fötter,0,87,87,49,0,0,0,0,7,11.204,,,2018_Sep_10_1155,59.9454289653,verb_norming_L1-swe_no_translation,001,801,
PADDLA,Armar/händer,armar/händer,0,87,87,49,0,1,1,1,7,2.987,,,2018_Sep_10_1155,59.9454289653,verb_norming_L1-swe_no_translation,001,801,
PADDLA,,,0,87,87,49,,,,,,,,,2018_Sep_10_1155,59.9454289653,verb_norming_L1-swe_no_translation,001,801,
KRAVLA,Ben/fötter,ben/fötter,0,88,88,122,0,0,0,0,4,3.607,,,2018_Sep_10_1155,59.9454289653,verb_norming_L1-swe_no_translation,001,801,
KRAVLA,Armar/händer,armar/händer,0,88,88,122,0,1,1,1,6,5.553,,,2018_Sep_10_1155,59.9454289653,verb_norming_L1-swe_no_translation,001,801,
KRAVLA,,,0,88,88,122,,,,,,,,,2018_Sep_10_1155,59.9454289653,verb_norming_L1-swe_no_translation,001,801,
SMÄLLA,Ben/fötter,ben/fötter,0,89,89,84,0,0,0,0,1,3.638,,,2018_Sep_10_1155,59.9454289653,verb_norming_L1-swe_no_translation,001,801,
SMÄLLA,Armar/händer,armar/händer,0,89,89,84,0,1,1,1,7,1.443,,,2018_Sep_10_1155,59.9454289653,verb_norming_L1-swe_no_translation,001,801,
SMÄLLA,,,0,89,89,84,,,,,,,,,2018_Sep_10_1155,59.9454289653,verb_norming_L1-swe_no_translation,001,801,
TASSA,Ben/fötter,ben/fötter,0,90,90,159,0,0,0,0,7,3.172,,,2018_Sep_10_1155,59.9454289653,verb_norming_L1-swe_no_translation,001,801,
TASSA,Armar/händer,armar/händer,0,90,90,159,0,1,1,1,1,1.043,,,2018_Sep_10_1155,59.9454289653,verb_norming_L1-swe_no_translation,001,801,
TASSA,,,0,90,90,159,,,,,,,,,2018_Sep_10_1155,59.9454289653,verb_norming_L1-swe_no_translation,001,801,
SKRUBBA,Ben/fötter,ben/fötter,0,91,91,75,0,0,0,0,1,2.399,,,2018_Sep_10_1155,59.9454289653,verb_norming_L1-swe_no_translation,001,801,
SKRUBBA,Armar/händer,armar/händer,0,91,91,75,0,1,1,1,6,1.31,,,2018_Sep_10_1155,59.9454289653,verb_norming_L1-swe_no_translation,001,801,
SKRUBBA,,,0,91,91,75,,,,,,,,,2018_Sep_10_1155,59.9454289653,verb_norming_L1-swe_no_translation,001,801,
FLANERA,Ben/fötter,ben/fötter,0,92,92,104,0,0,0,0,6,3.839,,,2018_Sep_10_1155,59.9454289653,verb_norming_L1-swe_no_translation,001,801,
FLANERA,Armar/händer,armar/händer,0,92,92,104,0,1,1,1,2,1.375,,,2018_Sep_10_1155,59.9454289653,verb_norming_L1-swe_no_translation,001,801,
FLANERA,,,0,92,92,104,,,,,,,,,2018_Sep_10_1155,59.9454289653,verb_norming_L1-swe_no_translation,001,801,
SPRINTA,Ben/fötter,ben/fötter,0,93,93,146,0,0,0,0,7,6.273,,,2018_Sep_10_1155,59.9454289653,verb_norming_L1-swe_no_translation,001,801,
SPRINTA,Armar/händer,armar/händer,0,93,93,146,0,1,1,1,1,0.974,,,2018_Sep_10_1155,59.9454289653,verb_norming_L1-swe_no_translation,001,801,
SPRINTA,,,0,93,93,146,,,,,,,,,2018_Sep_10_1155,59.9454289653,verb_norming_L1-swe_no_translation,001,801,
RISTA,Ben/fötter,ben/fötter,0,94,94,62,0,0,0,0,1,2.903,,,2018_Sep_10_1155,59.9454289653,verb_norming_L1-swe_no_translation,001,801,
RISTA,Armar/händer,armar/händer,0,94,94,62,0,1,1,1,6,1.344,,,2018_Sep_10_1155,59.9454289653,verb_norming_L1-swe_no_translation,001,801,
RISTA,,,0,94,94,62,,,,,,,,,2018_Sep_10_1155,59.9454289653,verb_norming_L1-swe_no_translation,001,801,
JOGGA,Ben/fötter,ben/fötter,0,95,95,114,0,0,0,0,7,4.11,,,2018_Sep_10_1155,59.9454289653,verb_norming_L1-swe_no_translation,001,801,
JOGGA,Armar/händer,armar/händer,0,95,95,114,0,1,1,1,1,1.158,,,2018_Sep_10_1155,59.9454289653,verb_norming_L1-swe_no_translation,001,801,
JOGGA,,,0,95,95,114,,,,,,,,,2018_Sep_10_1155,59.9454289653,verb_norming_L1-swe_no_translation,001,801,
RASPA,Ben/fötter,ben/fötter,0,96,96,60,0,0,0,0,1,4.211,,,2018_Sep_10_1155,59.9454289653,verb_norming_L1-swe_no_translation,001,801,
RASPA,Armar/händer,armar/händer,0,96,96,60,0,1,1,1,6,4.262,,,2018_Sep_10_1155,59.9454289653,verb_norming_L1-swe_no_translation,001,801,
RASPA,,,0,96,96,60,,,,,,,,,2018_Sep_10_1155,59.9454289653,verb_norming_L1-swe_no_translation,001,801,
KLÖSA,Ben/fötter,ben/fötter,0,97,97,35,0,0,0,0,2,3.171,,,2018_Sep_10_1155,59.9454289653,verb_norming_L1-swe_no_translation,001,801,
KLÖSA,Armar/händer,armar/händer,0,97,97,35,0,1,1,1,7,2.334,,,2018_Sep_10_1155,59.9454289653,verb_norming_L1-swe_no_translation,001,801,
KLÖSA,,,0,97,97,35,,,,,,,,,2018_Sep_10_1155,59.9454289653,verb_norming_L1-swe_no_translation,001,801,
KNIVHUGGA,Ben/fötter,ben/fötter,0,98,98,38,0,0,0,0,1,3.924,,,2018_Sep_10_1155,59.9454289653,verb_norming_L1-swe_no_translation,001,801,
KNIVHUGGA,Armar/händer,armar/händer,0,98,98,38,0,1,1,1,7,0.973,,,2018_Sep_10_1155,59.9454289653,verb_norming_L1-swe_no_translation,001,801,
KNIVHUGGA,,,0,98,98,38,,,,,,,,,2018_Sep_10_1155,59.9454289653,verb_norming_L1-swe_no_translation,001,801,
VADA,Ben/fötter,ben/fötter,0,99,99,165,0,0,0,0,6,3.458,,,2018_Sep_10_1155,59.9454289653,verb_norming_L1-swe_no_translation,001,801,
VADA,Armar/händer,armar/händer,0,99,99,165,0,1,1,1,3,2.081,,,2018_Sep_10_1155,59.9454289653,verb_norming_L1-swe_no_translation,001,801,
VADA,,,0,99,99,165,,,,,,,,,2018_Sep_10_1155,59.9454289653,verb_norming_L1-swe_no_translation,001,801,
SKUTTA,Ben/fötter,ben/fötter,0,100,100,137,0,0,0,0,7,5.301,,,2018_Sep_10_1155,59.9454289653,verb_norming_L1-swe_no_translation,001,801,
SKUTTA,Armar/händer,armar/händer,0,100,100,137,0,1,1,1,1,1.645,,,2018_Sep_10_1155,59.9454289653,verb_norming_L1-swe_no_translation,001,801,
SKUTTA,,,0,100,100,137,,,,,,,,,2018_Sep_10_1155,59.9454289653,verb_norming_L1-swe_no_translation,001,801,
KNATA,Ben/fötter,ben/fötter,0,101,101,120,0,0,0,0,6,11.96,,,2018_Sep_10_1155,59.9454289653,verb_norming_L1-swe_no_translation,001,801,
KNATA,Armar/händer,armar/händer,0,101,101,120,0,1,1,1,2,1.042,,,2018_Sep_10_1155,59.9454289653,verb_norming_L1-swe_no_translation,001,801,
KNATA,,,0,101,101,120,,,,,,,,,2018_Sep_10_1155,59.9454289653,verb_norming_L1-swe_no_translation,001,801,
BADDA,Ben/fötter,ben/fötter,0,102,102,0,0,0,0,0,3,3.742,,,2018_Sep_10_1155,59.9454289653,verb_norming_L1-swe_no_translation,001,801,
BADDA,Armar/händer,armar/händer,0,102,102,0,0,1,1,1,4,1.193,,,2018_Sep_10_1155,59.9454289653,verb_norming_L1-swe_no_translation,001,801,
BADDA,,,0,102,102,0,,,,,,,,,2018_Sep_10_1155,59.9454289653,verb_norming_L1-swe_no_translation,001,801,
LYFTA,Ben/fötter,ben/fötter,0,103,103,44,0,0,0,0,1,5.15,,,2018_Sep_10_1155,59.9454289653,verb_norming_L1-swe_no_translation,001,801,
LYFTA,Armar/händer,armar/händer,0,103,103,44,0,1,1,1,7,0.825,,,2018_Sep_10_1155,59.9454289653,verb_norming_L1-swe_no_translation,001,801,
LYFTA,,,0,103,103,44,,,,,,,,,2018_Sep_10_1155,59.9454289653,verb_norming_L1-swe_no_translation,001,801,
TRASKA,Ben/fötter,ben/fötter,0,104,104,162,0,0,0,0,7,2.014,,,2018_Sep_10_1155,59.9454289653,verb_norming_L1-swe_no_translation,001,801,
TRASKA,Armar/händer,armar/händer,0,104,104,162,0,1,1,1,2,1.595,,,2018_Sep_10_1155,59.9454289653,verb_norming_L1-swe_no_translation,001,801,
TRASKA,,,0,104,104,162,,,,,,,,,2018_Sep_10_1155,59.9454289653,verb_norming_L1-swe_no_translation,001,801,
SKYNDA,Ben/fötter,ben/fötter,0,105,105,138,0,0,0,0,7,2.098,,,2018_Sep_10_1155,59.9454289653,verb_norming_L1-swe_no_translation,001,801,
SKYNDA,Armar/händer,armar/händer,0,105,105,138,0,1,1,1,1,0.975,,,2018_Sep_10_1155,59.9454289653,verb_norming_L1-swe_no_translation,001,801,
SKYNDA,,,0,105,105,138,,,,,,,,,2018_Sep_10_1155,59.9454289653,verb_norming_L1-swe_no_translation,001,801,
ILA,Ben/fötter,ben/fötter,0,106,106,112,0,0,0,0,7,2.435,,,2018_Sep_10_1155,59.9454289653,verb_norming_L1-swe_no_translation,001,801,
ILA,Armar/händer,armar/händer,0,106,106,112,0,1,1,1,1,1.781,,,2018_Sep_10_1155,59.9454289653,verb_norming_L1-swe_no_translation,001,801,
ILA,,,0,106,106,112,,,,,,,,,2018_Sep_10_1155,59.9454289653,verb_norming_L1-swe_no_translation,001,801,
SLITA,Ben/fötter,ben/fötter,0,107,107,82,0,0,0,0,6,1.914,,,2018_Sep_10_1155,59.9454289653,verb_norming_L1-swe_no_translation,001,801,
SLITA,Armar/händer,armar/händer,0,107,107,82,0,1,1,1,7,4.85,,,2018_Sep_10_1155,59.9454289653,verb_norming_L1-swe_no_translation,001,801,
SLITA,,,0,107,107,82,,,,,,,,,2018_Sep_10_1155,59.9454289653,verb_norming_L1-swe_no_translation,001,801,
PETA,Ben/fötter,ben/fötter,0,108,108,50,0,0,0,0,1,5.35,,,2018_Sep_10_1155,59.9454289653,verb_norming_L1-swe_no_translation,001,801,
PETA,Armar/händer,armar/händer,0,108,108,50,0,1,1,1,7,1.41,,,2018_Sep_10_1155,59.9454289653,verb_norming_L1-swe_no_translation,001,801,
PETA,,,0,108,108,50,,,,,,,,,2018_Sep_10_1155,59.9454289653,verb_norming_L1-swe_no_translation,001,801,
GUPPA,Ben/fötter,ben/fötter,0,109,109,108,0,0,0,0,4,5.285,,,2018_Sep_10_1155,59.9454289653,verb_norming_L1-swe_no_translation,001,801,
GUPPA,Armar/händer,armar/händer,0,109,109,108,0,1,1,1,7,1.714,,,2018_Sep_10_1155,59.9454289653,verb_norming_L1-swe_no_translation,001,801,
GUPPA,,,0,109,109,108,,,,,,,,,2018_Sep_10_1155,59.9454289653,verb_norming_L1-swe_no_translation,001,801,
HALTA,Ben/fötter,ben/fötter,0,110,110,110,0,0,0,0,7,2.099,,,2018_Sep_10_1155,59.9454289653,verb_norming_L1-swe_no_translation,001,801,
HALTA,Armar/händer,armar/händer,0,110,110,110,0,1,1,1,1,1.242,,,2018_Sep_10_1155,59.9454289653,verb_norming_L1-swe_no_translation,001,801,
HALTA,,,0,110,110,110,,,,,,,,,2018_Sep_10_1155,59.9454289653,verb_norming_L1-swe_no_translation,001,801,
FLY,Ben/fötter,ben/fötter,0,111,111,105,0,0,0,0,7,1.613,,,2018_Sep_10_1155,59.9454289653,verb_norming_L1-swe_no_translation,001,801,
FLY,Armar/händer,armar/händer,0,111,111,105,0,1,1,1,1,0.909,,,2018_Sep_10_1155,59.9454289653,verb_norming_L1-swe_no_translation,001,801,
FLY,,,0,111,111,105,,,,,,,,,2018_Sep_10_1155,59.9454289653,verb_norming_L1-swe_no_translation,001,801,
REPA,Ben/fötter,ben/fötter,0,112,112,61,0,0,0,0,2,3.255,,,2018_Sep_10_1155,59.9454289653,verb_norming_L1-swe_no_translation,001,801,
REPA,Armar/händer,armar/händer,0,112,112,61,0,1,1,1,7,2.282,,,2018_Sep_10_1155,59.9454289653,verb_norming_L1-swe_no_translation,001,801,
REPA,,,0,112,112,61,,,,,,,,,2018_Sep_10_1155,59.9454289653,verb_norming_L1-swe_no_translation,001,801,
IRRA,Ben/fötter,ben/fötter,0,113,113,113,0,0,0,0,5,2.921,,,2018_Sep_10_1155,59.9454289653,verb_norming_L1-swe_no_translation,001,801,
IRRA,Armar/händer,armar/händer,0,113,113,113,0,1,1,1,1,1.395,,,2018_Sep_10_1155,59.9454289653,verb_norming_L1-swe_no_translation,001,801,
IRRA,,,0,113,113,113,,,,,,,,,2018_Sep_10_1155,59.9454289653,verb_norming_L1-swe_no_translation,001,801,
STÄDA,Ben/fötter,ben/fötter,0,114,114,88,0,0,0,0,5,2.869,,,2018_Sep_10_1155,59.9454289653,verb_norming_L1-swe_no_translation,001,801,
STÄDA,Armar/händer,armar/händer,0,114,114,88,0,1,1,1,7,1.059,,,2018_Sep_10_1155,59.9454289653,verb_norming_L1-swe_no_translation,001,801,
STÄDA,,,0,114,114,88,,,,,,,,,2018_Sep_10_1155,59.9454289653,verb_norming_L1-swe_no_translation,001,801,
VIRA,Ben/fötter,ben/fötter,0,115,115,99,0,0,0,0,1,2.317,,,2018_Sep_10_1155,59.9454289653,verb_norming_L1-swe_no_translation,001,801,
VIRA,Armar/händer,armar/händer,0,115,115,99,0,1,1,1,7,0.959,,,2018_Sep_10_1155,59.9454289653,verb_norming_L1-swe_no_translation,001,801,
VIRA,,,0,115,115,99,,,,,,,,,2018_Sep_10_1155,59.9454289653,verb_norming_L1-swe_no_translation,001,801,
RIVA,Ben/fötter,ben/fötter,0,116,116,63,0,0,0,0,7,2.032,,,2018_Sep_10_1155,59.9454289653,verb_norming_L1-swe_no_translation,001,801,
RIVA,Armar/händer,armar/händer,0,116,116,63,0,1,1,1,6,15.013,,,2018_Sep_10_1155,59.9454289653,verb_norming_L1-swe_no_translation,001,801,
RIVA,,,0,116,116,63,,,,,,,,,2018_Sep_10_1155,59.9454289653,verb_norming_L1-swe_no_translation,001,801,
SVASSA,Ben/fötter,ben/fötter,0,117,117,157,0,0,0,0,7,7.28,,,2018_Sep_10_1155,59.9454289653,verb_norming_L1-swe_no_translation,001,801,
SVASSA,Armar/händer,armar/händer,0,117,117,157,0,1,1,1,1,3.44,,,2018_Sep_10_1155,59.9454289653,verb_norming_L1-swe_no_translation,001,801,
SVASSA,,,0,117,117,157,,,,,,,,,2018_Sep_10_1155,59.9454289653,verb_norming_L1-swe_no_translation,001,801,
KLÄMMA,Ben/fötter,ben/fötter,0,118,118,30,0,0,0,0,1,3.002,,,2018_Sep_10_1155,59.9454289653,verb_norming_L1-swe_no_translation,001,801,
KLÄMMA,Armar/händer,armar/händer,0,118,118,30,0,1,1,1,7,2.298,,,2018_Sep_10_1155,59.9454289653,verb_norming_L1-swe_no_translation,001,801,
KLÄMMA,,,0,118,118,30,,,,,,,,,2018_Sep_10_1155,59.9454289653,verb_norming_L1-swe_no_translation,001,801,
TÅGA,Ben/fötter,ben/fötter,0,119,119,158,0,0,0,0,7,2.734,,,2018_Sep_10_1155,59.9454289653,verb_norming_L1-swe_no_translation,001,801,
TÅGA,Armar/händer,armar/händer,0,119,119,158,0,1,1,1,2,1.561,,,2018_Sep_10_1155,59.9454289653,verb_norming_L1-swe_no_translation,001,801,
TÅGA,,,0,119,119,158,,,,,,,,,2018_Sep_10_1155,59.9454289653,verb_norming_L1-swe_no_translation,001,801,
SNÄRTA,Ben/fötter,ben/fötter,0,120,120,86,0,0,0,0,1,4.128,,,2018_Sep_10_1155,59.9454289653,verb_norming_L1-swe_no_translation,001,801,
SNÄRTA,Armar/händer,armar/händer,0,120,120,86,0,1,1,1,6,1.309,,,2018_Sep_10_1155,59.9454289653,verb_norming_L1-swe_no_translation,001,801,
SNÄRTA,,,0,120,120,86,,,,,,,,,2018_Sep_10_1155,59.9454289653,verb_norming_L1-swe_no_translation,001,801,
PISKA,Ben/fötter,ben/fötter,0,121,121,52,0,0,0,0,1,3.457,,,2018_Sep_10_1155,59.9454289653,verb_norming_L1-swe_no_translation,001,801,
PISKA,Armar/händer,armar/händer,0,121,121,52,0,1,1,1,7,1.428,,,2018_Sep_10_1155,59.9454289653,verb_norming_L1-swe_no_translation,001,801,
PISKA,,,0,121,121,52,,,,,,,,,2018_Sep_10_1155,59.9454289653,verb_norming_L1-swe_no_translation,001,801,
GNIDA,Ben/fötter,ben/fötter,0,122,122,14,0,0,0,0,1,3.322,,,2018_Sep_10_1155,59.9454289653,verb_norming_L1-swe_no_translation,001,801,
GNIDA,Armar/händer,armar/händer,0,122,122,14,0,1,1,1,6,0.925,,,2018_Sep_10_1155,59.9454289653,verb_norming_L1-swe_no_translation,001,801,
GNIDA,,,0,122,122,14,,,,,,,,,2018_Sep_10_1155,59.9454289653,verb_norming_L1-swe_no_translation,001,801,
TORKA,Ben/fötter,ben/fötter,0,123,123,93,0,0,0,0,2,5.319,,,2018_Sep_10_1155,59.9454289653,verb_norming_L1-swe_no_translation,001,801,
TORKA,Armar/händer,armar/händer,0,123,123,93,0,1,1,1,7,1.512,,,2018_Sep_10_1155,59.9454289653,verb_norming_L1-swe_no_translation,001,801,
TORKA,,,0,123,123,93,,,,,,,,,2018_Sep_10_1155,59.9454289653,verb_norming_L1-swe_no_translation,001,801,
GNUGGA,Ben/fötter,ben/fötter,0,124,124,15,0,0,0,0,2,8.605,,,2018_Sep_10_1155,59.9454289653,verb_norming_L1-swe_no_translation,001,801,
GNUGGA,Armar/händer,armar/händer,0,124,124,15,0,1,1,1,7,4.195,,,2018_Sep_10_1155,59.9454289653,verb_norming_L1-swe_no_translation,001,801,
GNUGGA,,,0,124,124,15,,,,,,,,,2018_Sep_10_1155,59.9454289653,verb_norming_L1-swe_no_translation,001,801,
HISSA,Ben/fötter,ben/fötter,0,125,125,23,0,0,0,0,2,3.121,,,2018_Sep_10_1155,59.9454289653,verb_norming_L1-swe_no_translation,001,801,
HISSA,Armar/händer,armar/händer,0,125,125,23,0,1,1,1,6,4.179,,,2018_Sep_10_1155,59.9454289653,verb_norming_L1-swe_no_translation,001,801,
HISSA,,,0,125,125,23,,,,,,,,,2018_Sep_10_1155,59.9454289653,verb_norming_L1-swe_no_translation,001,801,
HIVA,Ben/fötter,ben/fötter,0,126,126,24,0,0,0,0,2,3.39,,,2018_Sep_10_1155,59.9454289653,verb_norming_L1-swe_no_translation,001,801,
HIVA,Armar/händer,armar/händer,0,126,126,24,0,1,1,1,7,1.798,,,2018_Sep_10_1155,59.9454289653,verb_norming_L1-swe_no_translation,001,801,
HIVA,,,0,126,126,24,,,,,,,,,2018_Sep_10_1155,59.9454289653,verb_norming_L1-swe_no_translation,001,801,
SKURA,Ben/fötter,ben/fötter,0,127,127,77,0,0,0,0,4,3.322,,,2018_Sep_10_1155,59.9454289653,verb_norming_L1-swe_no_translation,001,801,
SKURA,Armar/händer,armar/händer,0,127,127,77,0,1,1,1,6,2.971,,,2018_Sep_10_1155,59.9454289653,verb_norming_L1-swe_no_translation,001,801,
SKURA,,,0,127,127,77,,,,,,,,,2018_Sep_10_1155,59.9454289653,verb_norming_L1-swe_no_translation,001,801,
SLIPA,Ben/fötter,ben/fötter,0,128,128,81,0,0,0,0,1,5.52,,,2018_Sep_10_1155,59.9454289653,verb_norming_L1-swe_no_translation,001,801,
SLIPA,Armar/händer,armar/händer,0,128,128,81,0,1,1,1,7,1.06,,,2018_Sep_10_1155,59.9454289653,verb_norming_L1-swe_no_translation,001,801,
SLIPA,,,0,128,128,81,,,,,,,,,2018_Sep_10_1155,59.9454289653,verb_norming_L1-swe_no_translation,001,801,
HAFFA,Ben/fötter,ben/fötter,0,129,129,21,0,0,0,0,1,3.054,,,2018_Sep_10_1155,59.9454289653,verb_norming_L1-swe_no_translation,001,801,
HAFFA,Armar/händer,armar/händer,0,129,129,21,0,1,1,1,6,0.975,,,2018_Sep_10_1155,59.9454289653,verb_norming_L1-swe_no_translation,001,801,
HAFFA,,,0,129,129,21,,,,,,,,,2018_Sep_10_1155,59.9454289653,verb_norming_L1-swe_no_translation,001,801,
ÅLA,Ben/fötter,ben/fötter,0,130,130,100,0,0,0,0,3,4.178,,,2018_Sep_10_1155,59.9454289653,verb_norming_L1-swe_no_translation,001,801,
ÅLA,Armar/händer,armar/händer,0,130,130,100,0,1,1,1,6,3.457,,,2018_Sep_10_1155,59.9454289653,verb_norming_L1-swe_no_translation,001,801,
ÅLA,,,0,130,130,100,,,,,,,,,2018_Sep_10_1155,59.9454289653,verb_norming_L1-swe_no_translation,001,801,
RULTA,Ben/fötter,ben/fötter,0,131,131,133,0,0,0,0,6,4.665,,,2018_Sep_10_1155,59.9454289653,verb_norming_L1-swe_no_translation,001,801,
RULTA,Armar/händer,armar/händer,0,131,131,133,0,1,1,1,1,2.149,,,2018_Sep_10_1155,59.9454289653,verb_norming_L1-swe_no_translation,001,801,
RULTA,,,0,131,131,133,,,,,,,,,2018_Sep_10_1155,59.9454289653,verb_norming_L1-swe_no_translation,001,801,
GÅ,Ben/fötter,ben/fötter,0,132,132,106,0,0,0,0,7,3.205,,,2018_Sep_10_1155,59.9454289653,verb_norming_L1-swe_no_translation,001,801,
GÅ,Armar/händer,armar/händer,0,132,132,106,0,1,1,1,1,1.426,,,2018_Sep_10_1155,59.9454289653,verb_norming_L1-swe_no_translation,001,801,
GÅ,,,0,132,132,106,,,,,,,,,2018_Sep_10_1155,59.9454289653,verb_norming_L1-swe_no_translation,001,801,
KLÅ,Ben/fötter,ben/fötter,0,133,133,29,0,0,0,0,1,5.704,,,2018_Sep_10_1155,59.9454289653,verb_norming_L1-swe_no_translation,001,801,
KLÅ,Armar/händer,armar/händer,0,133,133,29,0,1,1,1,7,0.706,,,2018_Sep_10_1155,59.9454289653,verb_norming_L1-swe_no_translation,001,801,
KLÅ,,,0,133,133,29,,,,,,,,,2018_Sep_10_1155,59.9454289653,verb_norming_L1-swe_no_translation,001,801,
ROTA,Ben/fötter,ben/fötter,0,134,134,66,0,0,0,0,1,2.837,,,2018_Sep_10_1155,59.9454289653,verb_norming_L1-swe_no_translation,001,801,
ROTA,Armar/händer,armar/händer,0,134,134,66,0,1,1,1,7,0.909,,,2018_Sep_10_1155,59.9454289653,verb_norming_L1-swe_no_translation,001,801,
ROTA,,,0,134,134,66,,,,,,,,,2018_Sep_10_1155,59.9454289653,verb_norming_L1-swe_no_translation,001,801,
SNAVA,Ben/fötter,ben/fötter,0,135,135,142,0,0,0,0,7,6.442,,,2018_Sep_10_1155,59.9454289653,verb_norming_L1-swe_no_translation,001,801,
SNAVA,Armar/händer,armar/händer,0,135,135,142,0,1,1,1,1,0.741,,,2018_Sep_10_1155,59.9454289653,verb_norming_L1-swe_no_translation,001,801,
SNAVA,,,0,135,135,142,,,,,,,,,2018_Sep_10_1155,59.9454289653,verb_norming_L1-swe_no_translation,001,801,
STUDSA,Ben/fötter,ben/fötter,0,136,136,155,0,0,0,0,5,2.953,,,2018_Sep_10_1155,59.9454289653,verb_norming_L1-swe_no_translation,001,801,
STUDSA,Armar/händer,armar/händer,0,136,136,155,0,1,1,1,1,0.874,,,2018_Sep_10_1155,59.9454289653,verb_norming_L1-swe_no_translation,001,801,
STUDSA,,,0,136,136,155,,,,,,,,,2018_Sep_10_1155,59.9454289653,verb_norming_L1-swe_no_translation,001,801,
HÅVA,Ben/fötter,ben/fötter,0,137,137,22,0,0,0,0,6,3.707,,,2018_Sep_10_1155,59.9454289653,verb_norming_L1-swe_no_translation,001,801,
HÅVA,Armar/händer,armar/händer,0,137,137,22,0,1,1,1,3,1.426,,,2018_Sep_10_1155,59.9454289653,verb_norming_L1-swe_no_translation,001,801,
HÅVA,,,0,137,137,22,,,,,,,,,2018_Sep_10_1155,59.9454289653,verb_norming_L1-swe_no_translation,001,801,
VACKLA,Ben/fötter,ben/fötter,0,138,138,164,0,0,0,0,6,3.792,,,2018_Sep_10_1155,59.9454289653,verb_norming_L1-swe_no_translation,001,801,
VACKLA,Armar/händer,armar/händer,0,138,138,164,0,1,1,1,1,7.029,,,2018_Sep_10_1155,59.9454289653,verb_norming_L1-swe_no_translation,001,801,
VACKLA,,,0,138,138,164,,,,,,,,,2018_Sep_10_1155,59.9454289653,verb_norming_L1-swe_no_translation,001,801,
LINKA,Ben/fötter,ben/fötter,0,139,139,124,0,0,0,0,7,24.958,,,2018_Sep_10_1155,59.9454289653,verb_norming_L1-swe_no_translation,001,801,
LINKA,Armar/händer,armar/händer,0,139,139,124,0,1,1,1,1,7.533,,,2018_Sep_10_1155,59.9454289653,verb_norming_L1-swe_no_translation,001,801,
LINKA,,,0,139,139,124,,,,,,,,,2018_Sep_10_1155,59.9454289653,verb_norming_L1-swe_no_translation,001,801,
SPRINGA,Ben/fötter,ben/fötter,0,140,140,145,0,0,0,0,7,1.779,,,2018_Sep_10_1155,59.9454289653,verb_norming_L1-swe_no_translation,001,801,
SPRINGA,Armar/händer,armar/händer,0,140,140,145,0,1,1,1,2,2.785,,,2018_Sep_10_1155,59.9454289653,verb_norming_L1-swe_no_translation,001,801,
SPRINGA,,,0,140,140,145,,,,,,,,,2018_Sep_10_1155,59.9454289653,verb_norming_L1-swe_no_translation,001,801,
KLIVA,Ben/fötter,ben/fötter,0,141,141,117,0,0,0,0,7,2.183,,,2018_Sep_10_1155,59.9454289653,verb_norming_L1-swe_no_translation,001,801,
KLIVA,Armar/händer,armar/händer,0,141,141,117,0,1,1,1,1,1.747,,,2018_Sep_10_1155,59.9454289653,verb_norming_L1-swe_no_translation,001,801,
KLIVA,,,0,141,141,117,,,,,,,,,2018_Sep_10_1155,59.9454289653,verb_norming_L1-swe_no_translation,001,801,
KNOGA,Ben/fötter,ben/fötter,0,142,142,121,0,0,0,0,1,9.629,,,2018_Sep_10_1155,59.9454289653,verb_norming_L1-swe_no_translation,001,801,
KNOGA,Armar/händer,armar/händer,0,142,142,121,0,1,1,1,6,1.73,,,2018_Sep_10_1155,59.9454289653,verb_norming_L1-swe_no_translation,001,801,
KNOGA,,,0,142,142,121,,,,,,,,,2018_Sep_10_1155,59.9454289653,verb_norming_L1-swe_no_translation,001,801,
NYPA,Ben/fötter,ben/fötter,0,143,143,47,0,0,0,0,1,2.634,,,2018_Sep_10_1155,59.9454289653,verb_norming_L1-swe_no_translation,001,801,
NYPA,Armar/händer,armar/händer,0,143,143,47,0,1,1,1,6,1.362,,,2018_Sep_10_1155,59.9454289653,verb_norming_L1-swe_no_translation,001,801,
NYPA,,,0,143,143,47,,,,,,,,,2018_Sep_10_1155,59.9454289653,verb_norming_L1-swe_no_translation,001,801,
RO,Ben/fötter,ben/fötter,0,144,144,64,0,0,0,0,6,3.844,,,2018_Sep_10_1155,59.9454289653,verb_norming_L1-swe_no_translation,001,801,
RO,Armar/händer,armar/händer,0,144,144,64,0,1,1,1,6,1.061,,,2018_Sep_10_1155,59.9454289653,verb_norming_L1-swe_no_translation,001,801,
RO,,,0,144,144,64,,,,,,,,,2018_Sep_10_1155,59.9454289653,verb_norming_L1-swe_no_translation,001,801,
GLIDA,Ben/fötter,ben/fötter,0,145,145,107,0,0,0,0,6,3.272,,,2018_Sep_10_1155,59.9454289653,verb_norming_L1-swe_no_translation,001,801,
GLIDA,Armar/händer,armar/händer,0,145,145,107,0,1,1,1,1,1.747,,,2018_Sep_10_1155,59.9454289653,verb_norming_L1-swe_no_translation,001,801,
GLIDA,,,0,145,145,107,,,,,,,,,2018_Sep_10_1155,59.9454289653,verb_norming_L1-swe_no_translation,001,801,
FILA,Ben/fötter,ben/fötter,0,146,146,10,0,0,0,0,1,3.575,,,2018_Sep_10_1155,59.9454289653,verb_norming_L1-swe_no_translation,001,801,
FILA,Armar/händer,armar/händer,0,146,146,10,0,1,1,1,6,2.217,,,2018_Sep_10_1155,59.9454289653,verb_norming_L1-swe_no_translation,001,801,
FILA,,,0,146,146,10,,,,,,,,,2018_Sep_10_1155,59.9454289653,verb_norming_L1-swe_no_translation,001,801,
TVINNA,Ben/fötter,ben/fötter,0,147,147,97,0,0,0,0,1,2.785,,,2018_Sep_10_1155,59.9454289653,verb_norming_L1-swe_no_translation,001,801,
TVINNA,Armar/händer,armar/händer,0,147,147,97,0,1,1,1,7,0.79,,,2018_Sep_10_1155,59.9454289653,verb_norming_L1-swe_no_translation,001,801,
TVINNA,,,0,147,147,97,,,,,,,,,2018_Sep_10_1155,59.9454289653,verb_norming_L1-swe_no_translation,001,801,
SPARKA,Ben/fötter,ben/fötter,0,148,148,144,0,0,0,0,6,6.29,,,2018_Sep_10_1155,59.9454289653,verb_norming_L1-swe_no_translation,001,801,
SPARKA,Armar/händer,armar/händer,0,148,148,144,0,1,1,1,1,3.877,,,2018_Sep_10_1155,59.9454289653,verb_norming_L1-swe_no_translation,001,801,
SPARKA,,,0,148,148,144,,,,,,,,,2018_Sep_10_1155,59.9454289653,verb_norming_L1-swe_no_translation,001,801,
RÖRA,Ben/fötter,ben/fötter,0,149,149,65,0,0,0,0,1,9.16,,,2018_Sep_10_1155,59.9454289653,verb_norming_L1-swe_no_translation,001,801,
RÖRA,Armar/händer,armar/händer,0,149,149,65,0,1,1,1,7,1.344,,,2018_Sep_10_1155,59.9454289653,verb_norming_L1-swe_no_translation,001,801,
RÖRA,,,0,149,149,65,,,,,,,,,2018_Sep_10_1155,59.9454289653,verb_norming_L1-swe_no_translation,001,801,
DRA,Ben/fötter,ben/fötter,0,150,150,6,0,0,0,0,1,2.301,,,2018_Sep_10_1155,59.9454289653,verb_norming_L1-swe_no_translation,001,801,
DRA,Armar/händer,armar/händer,0,150,150,6,0,1,1,1,7,1.077,,,2018_Sep_10_1155,59.9454289653,verb_norming_L1-swe_no_translation,001,801,
DRA,,,0,150,150,6,,,,,,,,,2018_Sep_10_1155,59.9454289653,verb_norming_L1-swe_no_translation,001,801,
SKJUTA,Ben/fötter,ben/fötter,0,151,151,72,0,0,0,0,5,2.784,,,2018_Sep_10_1155,59.9454289653,verb_norming_L1-swe_no_translation,001,801,
SKJUTA,Armar/händer,armar/händer,0,151,151,72,0,1,1,1,7,2.264,,,2018_Sep_10_1155,59.9454289653,verb_norming_L1-swe_no_translation,001,801,
SKJUTA,,,0,151,151,72,,,,,,,,,2018_Sep_10_1155,59.9454289653,verb_norming_L1-swe_no_translation,001,801,
SKUMMA,Ben/fötter,ben/fötter,0,152,152,76,0,0,0,0,1,4.227,,,2018_Sep_10_1155,59.9454289653,verb_norming_L1-swe_no_translation,001,801,
SKUMMA,Armar/händer,armar/händer,0,152,152,76,0,1,1,1,5,1.208,,,2018_Sep_10_1155,59.9454289653,verb_norming_L1-swe_no_translation,001,801,
SKUMMA,,,0,152,152,76,,,,,,,,,2018_Sep_10_1155,59.9454289653,verb_norming_L1-swe_no_translation,001,801,
KOPPLA,Ben/fötter,ben/fötter,0,153,153,40,0,0,0,0,3,3.021,,,2018_Sep_10_1155,59.9454289653,verb_norming_L1-swe_no_translation,001,801,
KOPPLA,Armar/händer,armar/händer,0,153,153,40,0,1,1,1,4,1.277,,,2018_Sep_10_1155,59.9454289653,verb_norming_L1-swe_no_translation,001,801,
KOPPLA,,,0,153,153,40,,,,,,,,,2018_Sep_10_1155,59.9454289653,verb_norming_L1-swe_no_translation,001,801,
FLACKA,Ben/fötter,ben/fötter,0,154,154,103,0,0,0,0,1,4.176,,,2018_Sep_10_1155,59.9454289653,verb_norming_L1-swe_no_translation,001,801,
FLACKA,Armar/händer,armar/händer,0,154,154,103,0,1,1,1,1,0.874,,,2018_Sep_10_1155,59.9454289653,verb_norming_L1-swe_no_translation,001,801,
FLACKA,,,0,154,154,103,,,,,,,,,2018_Sep_10_1155,59.9454289653,verb_norming_L1-swe_no_translation,001,801,
BINDA,Ben/fötter,ben/fötter,0,155,155,2,0,0,0,0,1,2.333,,,2018_Sep_10_1155,59.9454289653,verb_norming_L1-swe_no_translation,001,801,
BINDA,Armar/händer,armar/händer,0,155,155,2,0,1,1,1,6,1.411,,,2018_Sep_10_1155,59.9454289653,verb_norming_L1-swe_no_translation,001,801,
BINDA,,,0,155,155,2,,,,,,,,,2018_Sep_10_1155,59.9454289653,verb_norming_L1-swe_no_translation,001,801,
STAMPA,Ben/fötter,ben/fötter,0,156,156,148,0,0,0,0,7,2.331,,,2018_Sep_10_1155,59.9454289653,verb_norming_L1-swe_no_translation,001,801,
STAMPA,Armar/händer,armar/händer,0,156,156,148,0,1,1,1,2,1.896,,,2018_Sep_10_1155,59.9454289653,verb_norming_L1-swe_no_translation,001,801,
STAMPA,,,0,156,156,148,,,,,,,,,2018_Sep_10_1155,59.9454289653,verb_norming_L1-swe_no_translation,001,801,
SLINTA,Ben/fötter,ben/fötter,0,157,157,140,0,0,0,0,1,3.49,,,2018_Sep_10_1155,59.9454289653,verb_norming_L1-swe_no_translation,001,801,
SLINTA,Armar/händer,armar/händer,0,157,157,140,0,1,1,1,5,0.824,,,2018_Sep_10_1155,59.9454289653,verb_norming_L1-swe_no_translation,001,801,
SLINTA,,,0,157,157,140,,,,,,,,,2018_Sep_10_1155,59.9454289653,verb_norming_L1-swe_no_translation,001,801,
DANSA,Ben/fötter,ben/fötter,0,158,158,102,0,0,0,0,7,2.702,,,2018_Sep_10_1155,59.9454289653,verb_norming_L1-swe_no_translation,001,801,
DANSA,Armar/händer,armar/händer,0,158,158,102,0,1,1,1,3,1.395,,,2018_Sep_10_1155,59.9454289653,verb_norming_L1-swe_no_translation,001,801,
DANSA,,,0,158,158,102,,,,,,,,,2018_Sep_10_1155,59.9454289653,verb_norming_L1-swe_no_translation,001,801,
KNALLA,Ben/fötter,ben/fötter,0,159,159,119,0,0,0,0,7,4.848,,,2018_Sep_10_1155,59.9454289653,verb_norming_L1-swe_no_translation,001,801,
KNALLA,Armar/händer,armar/händer,0,159,159,119,0,1,1,1,1,4.916,,,2018_Sep_10_1155,59.9454289653,verb_norming_L1-swe_no_translation,001,801,
KNALLA,,,0,159,159,119,,,,,,,,,2018_Sep_10_1155,59.9454289653,verb_norming_L1-swe_no_translation,001,801,
STÖVLA,Ben/fötter,ben/fötter,0,160,160,152,0,0,0,0,7,2.232,,,2018_Sep_10_1155,59.9454289653,verb_norming_L1-swe_no_translation,001,801,
STÖVLA,Armar/händer,armar/händer,0,160,160,152,0,1,1,1,1,0.824,,,2018_Sep_10_1155,59.9454289653,verb_norming_L1-swe_no_translation,001,801,
STÖVLA,,,0,160,160,152,,,,,,,,,2018_Sep_10_1155,59.9454289653,verb_norming_L1-swe_no_translation,001,801,
SVAJA,Ben/fötter,ben/fötter,0,161,161,156,0,0,0,0,5,2.013,,,2018_Sep_10_1155,59.9454289653,verb_norming_L1-swe_no_translation,001,801,
SVAJA,Armar/händer,armar/händer,0,161,161,156,0,1,1,1,1,1.04,,,2018_Sep_10_1155,59.9454289653,verb_norming_L1-swe_no_translation,001,801,
SVAJA,,,0,161,161,156,,,,,,,,,2018_Sep_10_1155,59.9454289653,verb_norming_L1-swe_no_translation,001,801,
PRESSA,Ben/fötter,ben/fötter,0,162,162,55,0,0,0,0,3,3.841,,,2018_Sep_10_1155,59.9454289653,verb_norming_L1-swe_no_translation,001,801,
PRESSA,Armar/händer,armar/händer,0,162,162,55,0,1,1,1,5,1.46,,,2018_Sep_10_1155,59.9454289653,verb_norming_L1-swe_no_translation,001,801,
PRESSA,,,0,162,162,55,,,,,,,,,2018_Sep_10_1155,59.9454289653,verb_norming_L1-swe_no_translation,001,801,
LÖPA,Ben/fötter,ben/fötter,0,163,163,125,0,0,0,0,7,2.904,,,2018_Sep_10_1155,59.9454289653,verb_norming_L1-swe_no_translation,001,801,
LÖPA,Armar/händer,armar/händer,0,163,163,125,0,1,1,1,1,0.624,,,2018_Sep_10_1155,59.9454289653,verb_norming_L1-swe_no_translation,001,801,
LÖPA,,,0,163,163,125,,,,,,,,,2018_Sep_10_1155,59.9454289653,verb_norming_L1-swe_no_translation,001,801,
KELA,Ben/fötter,ben/fötter,0,164,164,28,0,0,0,0,3,2.801,,,2018_Sep_10_1155,59.9454289653,verb_norming_L1-swe_no_translation,001,801,
KELA,Armar/händer,armar/händer,0,164,164,28,0,1,1,1,6,2.064,,,2018_Sep_10_1155,59.9454289653,verb_norming_L1-swe_no_translation,001,801,
KELA,,,0,164,164,28,,,,,,,,,2018_Sep_10_1155,59.9454289653,verb_norming_L1-swe_no_translation,001,801,
SVEPA,Ben/fötter,ben/fötter,0,165,165,91,0,0,0,0,2,7.631,,,2018_Sep_10_1155,59.9454289653,verb_norming_L1-swe_no_translation,001,801,
SVEPA,Armar/händer,armar/händer,0,165,165,91,0,1,1,1,7,3.154,,,2018_Sep_10_1155,59.9454289653,verb_norming_L1-swe_no_translation,001,801,
SVEPA,,,0,165,165,91,,,,,,,,,2018_Sep_10_1155,59.9454289653,verb_norming_L1-swe_no_translation,001,801,
HALKA,Ben/fötter,ben/fötter,0,166,166,109,0,0,0,0,7,2.081,,,2018_Sep_10_1155,59.9454289653,verb_norming_L1-swe_no_translation,001,801,
HALKA,Armar/händer,armar/händer,0,166,166,109,0,1,1,1,1,0.69,,,2018_Sep_10_1155,59.9454289653,verb_norming_L1-swe_no_translation,001,801,
HALKA,,,0,166,166,109,,,,,,,,,2018_Sep_10_1155,59.9454289653,verb_norming_L1-swe_no_translation,001,801,
SNO,Ben/fötter,ben/fötter,0,167,167,87,0,0,0,0,1,2.569,,,2018_Sep_10_1155,59.9454289653,verb_norming_L1-swe_no_translation,001,801,
SNO,Armar/händer,armar/händer,0,167,167,87,0,1,1,1,7,0.96,,,2018_Sep_10_1155,59.9454289653,verb_norming_L1-swe_no_translation,001,801,
SNO,,,0,167,167,87,,,,,,,,,2018_Sep_10_1155,59.9454289653,verb_norming_L1-swe_no_translation,001,801,
RUSA,Ben/fötter,ben/fötter,0,168,168,134,0,0,0,0,7,2.753,,,2018_Sep_10_1155,59.9454289653,verb_norming_L1-swe_no_translation,001,801,
RUSA,Armar/händer,armar/händer,0,168,168,134,0,1,1,1,1,1.697,,,2018_Sep_10_1155,59.9454289653,verb_norming_L1-swe_no_translation,001,801,
RUSA,,,0,168,168,134,,,,,,,,,2018_Sep_10_1155,59.9454289653,verb_norming_L1-swe_no_translation,001,801,
,,,,,,,,,,,,,space,12.8302660547,2018_Sep_10_1155,59.9454289653,verb_norming_L1-swe_no_translation,001,801,
