word,category,category_lowercase,trials.thisRepN,trials.thisTrialN,trials.thisN,trials.thisIndex,armleg_loop.thisRepN,armleg_loop.thisTrialN,armleg_loop.thisN,armleg_loop.thisIndex,rating.response,rating.rt,key_resp_8.keys,key_resp_8.rt,date,frameRate,expName,session,participant,
SKRIDA,Arm,arm,0,0,0,136,0,0,0,0,2,19.464,,,2018_Sep_10_1230,59.6035080448,verb_norming_L1-swe_no_translation,001,802,
SKRIDA,Ben,ben,0,0,0,136,0,1,1,1,4,6.735,,,2018_Sep_10_1230,59.6035080448,verb_norming_L1-swe_no_translation,001,802,
SKRIDA,,,0,0,0,136,,,,,,,,,2018_Sep_10_1230,59.6035080448,verb_norming_L1-swe_no_translation,001,802,
GLIDA,Arm,arm,0,1,1,107,0,0,0,0,1,20.098,,,2018_Sep_10_1230,59.6035080448,verb_norming_L1-swe_no_translation,001,802,
GLIDA,Ben,ben,0,1,1,107,0,1,1,1,4,14.016,,,2018_Sep_10_1230,59.6035080448,verb_norming_L1-swe_no_translation,001,802,
GLIDA,,,0,1,1,107,,,,,,,,,2018_Sep_10_1230,59.6035080448,verb_norming_L1-swe_no_translation,001,802,
TRASKA,Arm,arm,0,2,2,162,0,0,0,0,1,8.393,,,2018_Sep_10_1230,59.6035080448,verb_norming_L1-swe_no_translation,001,802,
TRASKA,Ben,ben,0,2,2,162,0,1,1,1,6,5.009,,,2018_Sep_10_1230,59.6035080448,verb_norming_L1-swe_no_translation,001,802,
TRASKA,,,0,2,2,162,,,,,,,,,2018_Sep_10_1230,59.6035080448,verb_norming_L1-swe_no_translation,001,802,
SKRAPA,Arm,arm,0,3,3,74,0,0,0,0,5,12.017,,,2018_Sep_10_1230,59.6035080448,verb_norming_L1-swe_no_translation,001,802,
SKRAPA,Ben,ben,0,3,3,74,0,1,1,1,5,6.67,,,2018_Sep_10_1230,59.6035080448,verb_norming_L1-swe_no_translation,001,802,
SKRAPA,,,0,3,3,74,,,,,,,,,2018_Sep_10_1230,59.6035080448,verb_norming_L1-swe_no_translation,001,802,
STÖVLA,Arm,arm,0,4,4,152,0,0,0,0,1,5.324,,,2018_Sep_10_1230,59.6035080448,verb_norming_L1-swe_no_translation,001,802,
STÖVLA,Ben,ben,0,4,4,152,0,1,1,1,5,5.982,,,2018_Sep_10_1230,59.6035080448,verb_norming_L1-swe_no_translation,001,802,
STÖVLA,,,0,4,4,152,,,,,,,,,2018_Sep_10_1230,59.6035080448,verb_norming_L1-swe_no_translation,001,802,
KNACKA,Arm,arm,0,5,5,36,0,0,0,0,5,11.495,,,2018_Sep_10_1230,59.6035080448,verb_norming_L1-swe_no_translation,001,802,
KNACKA,Ben,ben,0,5,5,36,0,1,1,1,2,3.366,,,2018_Sep_10_1230,59.6035080448,verb_norming_L1-swe_no_translation,001,802,
KNACKA,,,0,5,5,36,,,,,,,,,2018_Sep_10_1230,59.6035080448,verb_norming_L1-swe_no_translation,001,802,
SNUBBLA,Arm,arm,0,6,6,143,0,0,0,0,2,9.029,,,2018_Sep_10_1230,59.6035080448,verb_norming_L1-swe_no_translation,001,802,
SNUBBLA,Ben,ben,0,6,6,143,0,1,1,1,6,3.65,,,2018_Sep_10_1230,59.6035080448,verb_norming_L1-swe_no_translation,001,802,
SNUBBLA,,,0,6,6,143,,,,,,,,,2018_Sep_10_1230,59.6035080448,verb_norming_L1-swe_no_translation,001,802,
ÖSA,Arm,arm,0,7,7,48,0,0,0,0,4,6.685,,,2018_Sep_10_1230,59.6035080448,verb_norming_L1-swe_no_translation,001,802,
ÖSA,Ben,ben,0,7,7,48,0,1,1,1,1,2.897,,,2018_Sep_10_1230,59.6035080448,verb_norming_L1-swe_no_translation,001,802,
ÖSA,,,0,7,7,48,,,,,,,,,2018_Sep_10_1230,59.6035080448,verb_norming_L1-swe_no_translation,001,802,
JOGGA,Arm,arm,0,8,8,114,0,0,0,0,3,3.647,,,2018_Sep_10_1230,59.6035080448,verb_norming_L1-swe_no_translation,001,802,
JOGGA,Ben,ben,0,8,8,114,0,1,1,1,6,3.45,,,2018_Sep_10_1230,59.6035080448,verb_norming_L1-swe_no_translation,001,802,
JOGGA,,,0,8,8,114,,,,,,,,,2018_Sep_10_1230,59.6035080448,verb_norming_L1-swe_no_translation,001,802,
HOPPA,Arm,arm,0,9,9,111,0,0,0,0,2,5.811,,,2018_Sep_10_1230,59.6035080448,verb_norming_L1-swe_no_translation,001,802,
HOPPA,Ben,ben,0,9,9,111,0,1,1,1,5,7.408,,,2018_Sep_10_1230,59.6035080448,verb_norming_L1-swe_no_translation,001,802,
HOPPA,,,0,9,9,111,,,,,,,,,2018_Sep_10_1230,59.6035080448,verb_norming_L1-swe_no_translation,001,802,
NORPA,Arm,arm,0,10,10,46,0,0,0,0,3,6.416,,,2018_Sep_10_1230,59.6035080448,verb_norming_L1-swe_no_translation,001,802,
NORPA,Ben,ben,0,10,10,46,0,1,1,1,1,2.394,,,2018_Sep_10_1230,59.6035080448,verb_norming_L1-swe_no_translation,001,802,
NORPA,,,0,10,10,46,,,,,,,,,2018_Sep_10_1230,59.6035080448,verb_norming_L1-swe_no_translation,001,802,
SLITA,Arm,arm,0,11,11,82,0,0,0,0,5,7.221,,,2018_Sep_10_1230,59.6035080448,verb_norming_L1-swe_no_translation,001,802,
SLITA,Ben,ben,0,11,11,82,0,1,1,1,2,3.484,,,2018_Sep_10_1230,59.6035080448,verb_norming_L1-swe_no_translation,001,802,
SLITA,,,0,11,11,82,,,,,,,,,2018_Sep_10_1230,59.6035080448,verb_norming_L1-swe_no_translation,001,802,
SLEVA,Arm,arm,0,12,12,80,0,0,0,0,5,3.493,,,2018_Sep_10_1230,59.6035080448,verb_norming_L1-swe_no_translation,001,802,
SLEVA,Ben,ben,0,12,12,80,0,1,1,1,1,2.14,,,2018_Sep_10_1230,59.6035080448,verb_norming_L1-swe_no_translation,001,802,
SLEVA,,,0,12,12,80,,,,,,,,,2018_Sep_10_1230,59.6035080448,verb_norming_L1-swe_no_translation,001,802,
RO,Arm,arm,0,13,13,64,0,0,0,0,4,9.486,,,2018_Sep_10_1230,59.6035080448,verb_norming_L1-swe_no_translation,001,802,
RO,Ben,ben,0,13,13,64,0,1,1,1,2,2.999,,,2018_Sep_10_1230,59.6035080448,verb_norming_L1-swe_no_translation,001,802,
RO,,,0,13,13,64,,,,,,,,,2018_Sep_10_1230,59.6035080448,verb_norming_L1-swe_no_translation,001,802,
RASPA,Arm,arm,0,14,14,60,0,0,0,0,4,6.6,,,2018_Sep_10_1230,59.6035080448,verb_norming_L1-swe_no_translation,001,802,
RASPA,Ben,ben,0,14,14,60,0,1,1,1,1,2.562,,,2018_Sep_10_1230,59.6035080448,verb_norming_L1-swe_no_translation,001,802,
RASPA,,,0,14,14,60,,,,,,,,,2018_Sep_10_1230,59.6035080448,verb_norming_L1-swe_no_translation,001,802,
SLÅ,Arm,arm,0,15,15,79,0,0,0,0,6,2.589,,,2018_Sep_10_1230,59.6035080448,verb_norming_L1-swe_no_translation,001,802,
SLÅ,Ben,ben,0,15,15,79,0,1,1,1,1,3.181,,,2018_Sep_10_1230,59.6035080448,verb_norming_L1-swe_no_translation,001,802,
SLÅ,,,0,15,15,79,,,,,,,,,2018_Sep_10_1230,59.6035080448,verb_norming_L1-swe_no_translation,001,802,
REPA,Arm,arm,0,16,16,61,0,0,0,0,4,10.473,,,2018_Sep_10_1230,59.6035080448,verb_norming_L1-swe_no_translation,001,802,
REPA,Ben,ben,0,16,16,61,0,1,1,1,1,1.939,,,2018_Sep_10_1230,59.6035080448,verb_norming_L1-swe_no_translation,001,802,
REPA,,,0,16,16,61,,,,,,,,,2018_Sep_10_1230,59.6035080448,verb_norming_L1-swe_no_translation,001,802,
HÅVA,Arm,arm,0,17,17,22,0,0,0,0,4,5.358,,,2018_Sep_10_1230,59.6035080448,verb_norming_L1-swe_no_translation,001,802,
HÅVA,Ben,ben,0,17,17,22,0,1,1,1,1,3.23,,,2018_Sep_10_1230,59.6035080448,verb_norming_L1-swe_no_translation,001,802,
HÅVA,,,0,17,17,22,,,,,,,,,2018_Sep_10_1230,59.6035080448,verb_norming_L1-swe_no_translation,001,802,
TASSA,Arm,arm,0,18,18,159,0,0,0,0,2,6.399,,,2018_Sep_10_1230,59.6035080448,verb_norming_L1-swe_no_translation,001,802,
TASSA,Ben,ben,0,18,18,159,0,1,1,1,4,7.123,,,2018_Sep_10_1230,59.6035080448,verb_norming_L1-swe_no_translation,001,802,
TASSA,,,0,18,18,159,,,,,,,,,2018_Sep_10_1230,59.6035080448,verb_norming_L1-swe_no_translation,001,802,
SLINTA,Arm,arm,0,19,19,140,0,0,0,0,3,4.856,,,2018_Sep_10_1230,59.6035080448,verb_norming_L1-swe_no_translation,001,802,
SLINTA,Ben,ben,0,19,19,140,0,1,1,1,6,2.309,,,2018_Sep_10_1230,59.6035080448,verb_norming_L1-swe_no_translation,001,802,
SLINTA,,,0,19,19,140,,,,,,,,,2018_Sep_10_1230,59.6035080448,verb_norming_L1-swe_no_translation,001,802,
KLÅ,Arm,arm,0,20,20,29,0,0,0,0,3,7.319,,,2018_Sep_10_1230,59.6035080448,verb_norming_L1-swe_no_translation,001,802,
KLÅ,Ben,ben,0,20,20,29,0,1,1,1,1,1.471,,,2018_Sep_10_1230,59.6035080448,verb_norming_L1-swe_no_translation,001,802,
KLÅ,,,0,20,20,29,,,,,,,,,2018_Sep_10_1230,59.6035080448,verb_norming_L1-swe_no_translation,001,802,
STUDSA,Arm,arm,0,21,21,155,0,0,0,0,1,5.845,,,2018_Sep_10_1230,59.6035080448,verb_norming_L1-swe_no_translation,001,802,
STUDSA,Ben,ben,0,21,21,155,0,1,1,1,6,2.209,,,2018_Sep_10_1230,59.6035080448,verb_norming_L1-swe_no_translation,001,802,
STUDSA,,,0,21,21,155,,,,,,,,,2018_Sep_10_1230,59.6035080448,verb_norming_L1-swe_no_translation,001,802,
RAKA,Arm,arm,0,22,22,59,0,0,0,0,3,7.994,,,2018_Sep_10_1230,59.6035080448,verb_norming_L1-swe_no_translation,001,802,
RAKA,Ben,ben,0,22,22,59,0,1,1,1,4,9.169,,,2018_Sep_10_1230,59.6035080448,verb_norming_L1-swe_no_translation,001,802,
RAKA,,,0,22,22,59,,,,,,,,,2018_Sep_10_1230,59.6035080448,verb_norming_L1-swe_no_translation,001,802,
FÅNGA,Arm,arm,0,23,23,8,0,0,0,0,4,9.114,,,2018_Sep_10_1230,59.6035080448,verb_norming_L1-swe_no_translation,001,802,
FÅNGA,Ben,ben,0,23,23,8,0,1,1,1,1,1.939,,,2018_Sep_10_1230,59.6035080448,verb_norming_L1-swe_no_translation,001,802,
FÅNGA,,,0,23,23,8,,,,,,,,,2018_Sep_10_1230,59.6035080448,verb_norming_L1-swe_no_translation,001,802,
CYKLA,Arm,arm,0,24,24,101,0,0,0,0,2,3.629,,,2018_Sep_10_1230,59.6035080448,verb_norming_L1-swe_no_translation,001,802,
CYKLA,Ben,ben,0,24,24,101,0,1,1,1,6,2.66,,,2018_Sep_10_1230,59.6035080448,verb_norming_L1-swe_no_translation,001,802,
CYKLA,,,0,24,24,101,,,,,,,,,2018_Sep_10_1230,59.6035080448,verb_norming_L1-swe_no_translation,001,802,
SVEPA,Arm,arm,0,25,25,91,0,0,0,0,4,3.362,,,2018_Sep_10_1230,59.6035080448,verb_norming_L1-swe_no_translation,001,802,
SVEPA,Ben,ben,0,25,25,91,0,1,1,1,3,4.069,,,2018_Sep_10_1230,59.6035080448,verb_norming_L1-swe_no_translation,001,802,
SVEPA,,,0,25,25,91,,,,,,,,,2018_Sep_10_1230,59.6035080448,verb_norming_L1-swe_no_translation,001,802,
TRÄDA,Arm,arm,0,26,26,160,0,0,0,0,3,5.091,,,2018_Sep_10_1230,59.6035080448,verb_norming_L1-swe_no_translation,001,802,
TRÄDA,Ben,ben,0,26,26,160,0,1,1,1,4,5.496,,,2018_Sep_10_1230,59.6035080448,verb_norming_L1-swe_no_translation,001,802,
TRÄDA,,,0,26,26,160,,,,,,,,,2018_Sep_10_1230,59.6035080448,verb_norming_L1-swe_no_translation,001,802,
VINGLA,Arm,arm,0,27,27,168,0,0,0,0,3,3.899,,,2018_Sep_10_1230,59.6035080448,verb_norming_L1-swe_no_translation,001,802,
VINGLA,Ben,ben,0,27,27,168,0,1,1,1,6,1.571,,,2018_Sep_10_1230,59.6035080448,verb_norming_L1-swe_no_translation,001,802,
VINGLA,,,0,27,27,168,,,,,,,,,2018_Sep_10_1230,59.6035080448,verb_norming_L1-swe_no_translation,001,802,
SKEJTA,Arm,arm,0,28,28,135,0,0,0,0,4,3.999,,,2018_Sep_10_1230,59.6035080448,verb_norming_L1-swe_no_translation,001,802,
SKEJTA,Ben,ben,0,28,28,135,0,1,1,1,5,1.704,,,2018_Sep_10_1230,59.6035080448,verb_norming_L1-swe_no_translation,001,802,
SKEJTA,,,0,28,28,135,,,,,,,,,2018_Sep_10_1230,59.6035080448,verb_norming_L1-swe_no_translation,001,802,
STRUTTA,Arm,arm,0,29,29,154,0,0,0,0,1,7.74,,,2018_Sep_10_1230,59.6035080448,verb_norming_L1-swe_no_translation,001,802,
STRUTTA,Ben,ben,0,29,29,154,0,1,1,1,4,2.779,,,2018_Sep_10_1230,59.6035080448,verb_norming_L1-swe_no_translation,001,802,
STRUTTA,,,0,29,29,154,,,,,,,,,2018_Sep_10_1230,59.6035080448,verb_norming_L1-swe_no_translation,001,802,
PROMENERA,Arm,arm,0,30,30,129,0,0,0,0,2,4.548,,,2018_Sep_10_1230,59.6035080448,verb_norming_L1-swe_no_translation,001,802,
PROMENERA,Ben,ben,0,30,30,129,0,1,1,1,7,1.97,,,2018_Sep_10_1230,59.6035080448,verb_norming_L1-swe_no_translation,001,802,
PROMENERA,,,0,30,30,129,,,,,,,,,2018_Sep_10_1230,59.6035080448,verb_norming_L1-swe_no_translation,001,802,
SKYFFLA,Arm,arm,0,31,31,78,0,0,0,0,4,3.21,,,2018_Sep_10_1230,59.6035080448,verb_norming_L1-swe_no_translation,001,802,
SKYFFLA,Ben,ben,0,31,31,78,0,1,1,1,2,3.612,,,2018_Sep_10_1230,59.6035080448,verb_norming_L1-swe_no_translation,001,802,
SKYFFLA,,,0,31,31,78,,,,,,,,,2018_Sep_10_1230,59.6035080448,verb_norming_L1-swe_no_translation,001,802,
SKUMMA,Arm,arm,0,32,32,76,0,0,0,0,1,9.416,,,2018_Sep_10_1230,59.6035080448,verb_norming_L1-swe_no_translation,001,802,
SKUMMA,Ben,ben,0,32,32,76,0,1,1,1,1,1.453,,,2018_Sep_10_1230,59.6035080448,verb_norming_L1-swe_no_translation,001,802,
SKUMMA,,,0,32,32,76,,,,,,,,,2018_Sep_10_1230,59.6035080448,verb_norming_L1-swe_no_translation,001,802,
STAMPA,Arm,arm,0,33,33,148,0,0,0,0,1,3.915,,,2018_Sep_10_1230,59.6035080448,verb_norming_L1-swe_no_translation,001,802,
STAMPA,Ben,ben,0,33,33,148,0,1,1,1,6,2.577,,,2018_Sep_10_1230,59.6035080448,verb_norming_L1-swe_no_translation,001,802,
STAMPA,,,0,33,33,148,,,,,,,,,2018_Sep_10_1230,59.6035080448,verb_norming_L1-swe_no_translation,001,802,
LINDA,Arm,arm,0,34,34,43,0,0,0,0,6,7.573,,,2018_Sep_10_1230,59.6035080448,verb_norming_L1-swe_no_translation,001,802,
LINDA,Ben,ben,0,34,34,43,0,1,1,1,4,5.731,,,2018_Sep_10_1230,59.6035080448,verb_norming_L1-swe_no_translation,001,802,
LINDA,,,0,34,34,43,,,,,,,,,2018_Sep_10_1230,59.6035080448,verb_norming_L1-swe_no_translation,001,802,
VADA,Arm,arm,0,35,35,165,0,0,0,0,1,4.806,,,2018_Sep_10_1230,59.6035080448,verb_norming_L1-swe_no_translation,001,802,
VADA,Ben,ben,0,35,35,165,0,1,1,1,6,2.126,,,2018_Sep_10_1230,59.6035080448,verb_norming_L1-swe_no_translation,001,802,
VADA,,,0,35,35,165,,,,,,,,,2018_Sep_10_1230,59.6035080448,verb_norming_L1-swe_no_translation,001,802,
PINNA,Arm,arm,0,36,36,128,0,0,0,0,1,8.528,,,2018_Sep_10_1230,59.6035080448,verb_norming_L1-swe_no_translation,001,802,
PINNA,Ben,ben,0,36,36,128,0,1,1,1,3,2.343,,,2018_Sep_10_1230,59.6035080448,verb_norming_L1-swe_no_translation,001,802,
PINNA,,,0,36,36,128,,,,,,,,,2018_Sep_10_1230,59.6035080448,verb_norming_L1-swe_no_translation,001,802,
KLÄTTRA,Arm,arm,0,37,37,116,0,0,0,0,6,6.147,,,2018_Sep_10_1230,59.6035080448,verb_norming_L1-swe_no_translation,001,802,
KLÄTTRA,Ben,ben,0,37,37,116,0,1,1,1,6,4.489,,,2018_Sep_10_1230,59.6035080448,verb_norming_L1-swe_no_translation,001,802,
KLÄTTRA,,,0,37,37,116,,,,,,,,,2018_Sep_10_1230,59.6035080448,verb_norming_L1-swe_no_translation,001,802,
TRIPPA,Arm,arm,0,38,38,163,0,0,0,0,2,4.101,,,2018_Sep_10_1230,59.6035080448,verb_norming_L1-swe_no_translation,001,802,
TRIPPA,Ben,ben,0,38,38,163,0,1,1,1,5,2.259,,,2018_Sep_10_1230,59.6035080448,verb_norming_L1-swe_no_translation,001,802,
TRIPPA,,,0,38,38,163,,,,,,,,,2018_Sep_10_1230,59.6035080448,verb_norming_L1-swe_no_translation,001,802,
PRESSA,Arm,arm,0,39,39,55,0,0,0,0,5,4.904,,,2018_Sep_10_1230,59.6035080448,verb_norming_L1-swe_no_translation,001,802,
PRESSA,Ben,ben,0,39,39,55,0,1,1,1,3,3.498,,,2018_Sep_10_1230,59.6035080448,verb_norming_L1-swe_no_translation,001,802,
PRESSA,,,0,39,39,55,,,,,,,,,2018_Sep_10_1230,59.6035080448,verb_norming_L1-swe_no_translation,001,802,
HIVA,Arm,arm,0,40,40,24,0,0,0,0,5,2.76,,,2018_Sep_10_1230,59.6035080448,verb_norming_L1-swe_no_translation,001,802,
HIVA,Ben,ben,0,40,40,24,0,1,1,1,1,2.377,,,2018_Sep_10_1230,59.6035080448,verb_norming_L1-swe_no_translation,001,802,
HIVA,,,0,40,40,24,,,,,,,,,2018_Sep_10_1230,59.6035080448,verb_norming_L1-swe_no_translation,001,802,
BANKA,Arm,arm,0,41,41,1,0,0,0,0,7,4.252,,,2018_Sep_10_1230,59.6035080448,verb_norming_L1-swe_no_translation,001,802,
BANKA,Ben,ben,0,41,41,1,0,1,1,1,1,4.121,,,2018_Sep_10_1230,59.6035080448,verb_norming_L1-swe_no_translation,001,802,
BANKA,,,0,41,41,1,,,,,,,,,2018_Sep_10_1230,59.6035080448,verb_norming_L1-swe_no_translation,001,802,
KRAMA,Arm,arm,0,42,42,41,0,0,0,0,6,3.278,,,2018_Sep_10_1230,59.6035080448,verb_norming_L1-swe_no_translation,001,802,
KRAMA,Ben,ben,0,42,42,41,0,1,1,1,1,2.961,,,2018_Sep_10_1230,59.6035080448,verb_norming_L1-swe_no_translation,001,802,
KRAMA,,,0,42,42,41,,,,,,,,,2018_Sep_10_1230,59.6035080448,verb_norming_L1-swe_no_translation,001,802,
SKALA,Arm,arm,0,43,43,70,0,0,0,0,4,4.118,,,2018_Sep_10_1230,59.6035080448,verb_norming_L1-swe_no_translation,001,802,
SKALA,Ben,ben,0,43,43,70,0,1,1,1,1,2.176,,,2018_Sep_10_1230,59.6035080448,verb_norming_L1-swe_no_translation,001,802,
SKALA,,,0,43,43,70,,,,,,,,,2018_Sep_10_1230,59.6035080448,verb_norming_L1-swe_no_translation,001,802,
ILA,Arm,arm,0,44,44,112,0,0,0,0,1,6.116,,,2018_Sep_10_1230,59.6035080448,verb_norming_L1-swe_no_translation,001,802,
ILA,Ben,ben,0,44,44,112,0,1,1,1,4,3.518,,,2018_Sep_10_1230,59.6035080448,verb_norming_L1-swe_no_translation,001,802,
ILA,,,0,44,44,112,,,,,,,,,2018_Sep_10_1230,59.6035080448,verb_norming_L1-swe_no_translation,001,802,
KNATA,Arm,arm,0,45,45,120,0,0,0,0,1,3.548,,,2018_Sep_10_1230,59.6035080448,verb_norming_L1-swe_no_translation,001,802,
KNATA,Ben,ben,0,45,45,120,0,1,1,1,5,1.84,,,2018_Sep_10_1230,59.6035080448,verb_norming_L1-swe_no_translation,001,802,
KNATA,,,0,45,45,120,,,,,,,,,2018_Sep_10_1230,59.6035080448,verb_norming_L1-swe_no_translation,001,802,
LYFTA,Arm,arm,0,46,46,44,0,0,0,0,6,3.63,,,2018_Sep_10_1230,59.6035080448,verb_norming_L1-swe_no_translation,001,802,
LYFTA,Ben,ben,0,46,46,44,0,1,1,1,4,2.644,,,2018_Sep_10_1230,59.6035080448,verb_norming_L1-swe_no_translation,001,802,
LYFTA,,,0,46,46,44,,,,,,,,,2018_Sep_10_1230,59.6035080448,verb_norming_L1-swe_no_translation,001,802,
SKUTTA,Arm,arm,0,47,47,137,0,0,0,0,1,3.379,,,2018_Sep_10_1230,59.6035080448,verb_norming_L1-swe_no_translation,001,802,
SKUTTA,Ben,ben,0,47,47,137,0,1,1,1,6,1.437,,,2018_Sep_10_1230,59.6035080448,verb_norming_L1-swe_no_translation,001,802,
SKUTTA,,,0,47,47,137,,,,,,,,,2018_Sep_10_1230,59.6035080448,verb_norming_L1-swe_no_translation,001,802,
SKOPA,Arm,arm,0,48,48,73,0,0,0,0,5,3.413,,,2018_Sep_10_1230,59.6035080448,verb_norming_L1-swe_no_translation,001,802,
SKOPA,Ben,ben,0,48,48,73,0,1,1,1,1,1.656,,,2018_Sep_10_1230,59.6035080448,verb_norming_L1-swe_no_translation,001,802,
SKOPA,,,0,48,48,73,,,,,,,,,2018_Sep_10_1230,59.6035080448,verb_norming_L1-swe_no_translation,001,802,
IRRA,Arm,arm,0,49,49,113,0,0,0,0,1,6.165,,,2018_Sep_10_1230,59.6035080448,verb_norming_L1-swe_no_translation,001,802,
IRRA,Ben,ben,0,49,49,113,0,1,1,1,2,2.26,,,2018_Sep_10_1230,59.6035080448,verb_norming_L1-swe_no_translation,001,802,
IRRA,,,0,49,49,113,,,,,,,,,2018_Sep_10_1230,59.6035080448,verb_norming_L1-swe_no_translation,001,802,
TVÄTTA,Arm,arm,0,50,50,96,0,0,0,0,4,4.302,,,2018_Sep_10_1230,59.6035080448,verb_norming_L1-swe_no_translation,001,802,
TVÄTTA,Ben,ben,0,50,50,96,0,1,1,1,1,2.007,,,2018_Sep_10_1230,59.6035080448,verb_norming_L1-swe_no_translation,001,802,
TVÄTTA,,,0,50,50,96,,,,,,,,,2018_Sep_10_1230,59.6035080448,verb_norming_L1-swe_no_translation,001,802,
DASKA,Arm,arm,0,51,51,5,0,0,0,0,4,3.866,,,2018_Sep_10_1230,59.6035080448,verb_norming_L1-swe_no_translation,001,802,
DASKA,Ben,ben,0,51,51,5,0,1,1,1,1,2.075,,,2018_Sep_10_1230,59.6035080448,verb_norming_L1-swe_no_translation,001,802,
DASKA,,,0,51,51,5,,,,,,,,,2018_Sep_10_1230,59.6035080448,verb_norming_L1-swe_no_translation,001,802,
HACKA,Arm,arm,0,52,52,20,0,0,0,0,6,4.252,,,2018_Sep_10_1230,59.6035080448,verb_norming_L1-swe_no_translation,001,802,
HACKA,Ben,ben,0,52,52,20,0,1,1,1,1,4.507,,,2018_Sep_10_1230,59.6035080448,verb_norming_L1-swe_no_translation,001,802,
HACKA,,,0,52,52,20,,,,,,,,,2018_Sep_10_1230,59.6035080448,verb_norming_L1-swe_no_translation,001,802,
GESTIKULERA,Arm,arm,0,53,53,13,0,0,0,0,6,5.974,,,2018_Sep_10_1230,59.6035080448,verb_norming_L1-swe_no_translation,001,802,
GESTIKULERA,Ben,ben,0,53,53,13,0,1,1,1,1,2.035,,,2018_Sep_10_1230,59.6035080448,verb_norming_L1-swe_no_translation,001,802,
GESTIKULERA,,,0,53,53,13,,,,,,,,,2018_Sep_10_1230,59.6035080448,verb_norming_L1-swe_no_translation,001,802,
SNAVA,Arm,arm,0,54,54,142,0,0,0,0,2,4.42,,,2018_Sep_10_1230,59.6035080448,verb_norming_L1-swe_no_translation,001,802,
SNAVA,Ben,ben,0,54,54,142,0,1,1,1,6,2.964,,,2018_Sep_10_1230,59.6035080448,verb_norming_L1-swe_no_translation,001,802,
SNAVA,,,0,54,54,142,,,,,,,,,2018_Sep_10_1230,59.6035080448,verb_norming_L1-swe_no_translation,001,802,
SNÄRTA,Arm,arm,0,55,55,86,0,0,0,0,4,6.851,,,2018_Sep_10_1230,59.6035080448,verb_norming_L1-swe_no_translation,001,802,
SNÄRTA,Ben,ben,0,55,55,86,0,1,1,1,1,1.924,,,2018_Sep_10_1230,59.6035080448,verb_norming_L1-swe_no_translation,001,802,
SNÄRTA,,,0,55,55,86,,,,,,,,,2018_Sep_10_1230,59.6035080448,verb_norming_L1-swe_no_translation,001,802,
KILA,Arm,arm,0,56,56,115,0,0,0,0,1,4.034,,,2018_Sep_10_1230,59.6035080448,verb_norming_L1-swe_no_translation,001,802,
KILA,Ben,ben,0,56,56,115,0,1,1,1,5,1.773,,,2018_Sep_10_1230,59.6035080448,verb_norming_L1-swe_no_translation,001,802,
KILA,,,0,56,56,115,,,,,,,,,2018_Sep_10_1230,59.6035080448,verb_norming_L1-swe_no_translation,001,802,
STRÖVA,Arm,arm,0,57,57,153,0,0,0,0,1,3.833,,,2018_Sep_10_1230,59.6035080448,verb_norming_L1-swe_no_translation,001,802,
STRÖVA,Ben,ben,0,57,57,153,0,1,1,1,4,1.051,,,2018_Sep_10_1230,59.6035080448,verb_norming_L1-swe_no_translation,001,802,
STRÖVA,,,0,57,57,153,,,,,,,,,2018_Sep_10_1230,59.6035080448,verb_norming_L1-swe_no_translation,001,802,
KLÖSA,Arm,arm,0,58,58,35,0,0,0,0,5,4.722,,,2018_Sep_10_1230,59.6035080448,verb_norming_L1-swe_no_translation,001,802,
KLÖSA,Ben,ben,0,58,58,35,0,1,1,1,1,2.092,,,2018_Sep_10_1230,59.6035080448,verb_norming_L1-swe_no_translation,001,802,
KLÖSA,,,0,58,58,35,,,,,,,,,2018_Sep_10_1230,59.6035080448,verb_norming_L1-swe_no_translation,001,802,
GRABBA,Arm,arm,0,59,59,16,0,0,0,0,5,5.225,,,2018_Sep_10_1230,59.6035080448,verb_norming_L1-swe_no_translation,001,802,
GRABBA,Ben,ben,0,59,59,16,0,1,1,1,1,2.039,,,2018_Sep_10_1230,59.6035080448,verb_norming_L1-swe_no_translation,001,802,
GRABBA,,,0,59,59,16,,,,,,,,,2018_Sep_10_1230,59.6035080448,verb_norming_L1-swe_no_translation,001,802,
VIKA,Arm,arm,0,60,60,98,0,0,0,0,2,6.869,,,2018_Sep_10_1230,59.6035080448,verb_norming_L1-swe_no_translation,001,802,
VIKA,Ben,ben,0,60,60,98,0,1,1,1,1,1.572,,,2018_Sep_10_1230,59.6035080448,verb_norming_L1-swe_no_translation,001,802,
VIKA,,,0,60,60,98,,,,,,,,,2018_Sep_10_1230,59.6035080448,verb_norming_L1-swe_no_translation,001,802,
SPRINTA,Arm,arm,0,61,61,146,0,0,0,0,2,6.868,,,2018_Sep_10_1230,59.6035080448,verb_norming_L1-swe_no_translation,001,802,
SPRINTA,Ben,ben,0,61,61,146,0,1,1,1,7,2.828,,,2018_Sep_10_1230,59.6035080448,verb_norming_L1-swe_no_translation,001,802,
SPRINTA,,,0,61,61,146,,,,,,,,,2018_Sep_10_1230,59.6035080448,verb_norming_L1-swe_no_translation,001,802,
BULTA,Arm,arm,0,62,62,4,0,0,0,0,6,3.967,,,2018_Sep_10_1230,59.6035080448,verb_norming_L1-swe_no_translation,001,802,
BULTA,Ben,ben,0,62,62,4,0,1,1,1,1,2.661,,,2018_Sep_10_1230,59.6035080448,verb_norming_L1-swe_no_translation,001,802,
BULTA,,,0,62,62,4,,,,,,,,,2018_Sep_10_1230,59.6035080448,verb_norming_L1-swe_no_translation,001,802,
RYCKA,Arm,arm,0,63,63,67,0,0,0,0,7,6.146,,,2018_Sep_10_1230,59.6035080448,verb_norming_L1-swe_no_translation,001,802,
RYCKA,Ben,ben,0,63,63,67,0,1,1,1,1,2.089,,,2018_Sep_10_1230,59.6035080448,verb_norming_L1-swe_no_translation,001,802,
RYCKA,,,0,63,63,67,,,,,,,,,2018_Sep_10_1230,59.6035080448,verb_norming_L1-swe_no_translation,001,802,
KLICKA,Arm,arm,0,64,64,33,0,0,0,0,4,4.252,,,2018_Sep_10_1230,59.6035080448,verb_norming_L1-swe_no_translation,001,802,
KLICKA,Ben,ben,0,64,64,33,0,1,1,1,1,3.449,,,2018_Sep_10_1230,59.6035080448,verb_norming_L1-swe_no_translation,001,802,
KLICKA,,,0,64,64,33,,,,,,,,,2018_Sep_10_1230,59.6035080448,verb_norming_L1-swe_no_translation,001,802,
GÅ,Arm,arm,0,65,65,106,0,0,0,0,2,3.732,,,2018_Sep_10_1230,59.6035080448,verb_norming_L1-swe_no_translation,001,802,
GÅ,Ben,ben,0,65,65,106,0,1,1,1,7,2.024,,,2018_Sep_10_1230,59.6035080448,verb_norming_L1-swe_no_translation,001,802,
GÅ,,,0,65,65,106,,,,,,,,,2018_Sep_10_1230,59.6035080448,verb_norming_L1-swe_no_translation,001,802,
SKURA,Arm,arm,0,66,66,77,0,0,0,0,5,2.827,,,2018_Sep_10_1230,59.6035080448,verb_norming_L1-swe_no_translation,001,802,
SKURA,Ben,ben,0,66,66,77,0,1,1,1,1,1.622,,,2018_Sep_10_1230,59.6035080448,verb_norming_L1-swe_no_translation,001,802,
SKURA,,,0,66,66,77,,,,,,,,,2018_Sep_10_1230,59.6035080448,verb_norming_L1-swe_no_translation,001,802,
SNO,Arm,arm,0,67,67,87,0,0,0,0,6,3.884,,,2018_Sep_10_1230,59.6035080448,verb_norming_L1-swe_no_translation,001,802,
SNO,Ben,ben,0,67,67,87,0,1,1,1,3,2.411,,,2018_Sep_10_1230,59.6035080448,verb_norming_L1-swe_no_translation,001,802,
SNO,,,0,67,67,87,,,,,,,,,2018_Sep_10_1230,59.6035080448,verb_norming_L1-swe_no_translation,001,802,
TA,Arm,arm,0,68,68,92,0,0,0,0,6,7.29,,,2018_Sep_10_1230,59.6035080448,verb_norming_L1-swe_no_translation,001,802,
TA,Ben,ben,0,68,68,92,0,1,1,1,1,1.574,,,2018_Sep_10_1230,59.6035080448,verb_norming_L1-swe_no_translation,001,802,
TA,,,0,68,68,92,,,,,,,,,2018_Sep_10_1230,59.6035080448,verb_norming_L1-swe_no_translation,001,802,
SVAJA,Arm,arm,0,69,69,156,0,0,0,0,2,3.984,,,2018_Sep_10_1230,59.6035080448,verb_norming_L1-swe_no_translation,001,802,
SVAJA,Ben,ben,0,69,69,156,0,1,1,1,5,1.923,,,2018_Sep_10_1230,59.6035080448,verb_norming_L1-swe_no_translation,001,802,
SVAJA,,,0,69,69,156,,,,,,,,,2018_Sep_10_1230,59.6035080448,verb_norming_L1-swe_no_translation,001,802,
GREPPA,Arm,arm,0,70,70,18,0,0,0,0,6,6.095,,,2018_Sep_10_1230,59.6035080448,verb_norming_L1-swe_no_translation,001,802,
GREPPA,Ben,ben,0,70,70,18,0,1,1,1,1,1.754,,,2018_Sep_10_1230,59.6035080448,verb_norming_L1-swe_no_translation,001,802,
GREPPA,,,0,70,70,18,,,,,,,,,2018_Sep_10_1230,59.6035080448,verb_norming_L1-swe_no_translation,001,802,
RÄNNA,Arm,arm,0,71,71,131,0,0,0,0,1,5.978,,,2018_Sep_10_1230,59.6035080448,verb_norming_L1-swe_no_translation,001,802,
RÄNNA,Ben,ben,0,71,71,131,0,1,1,1,5,0.935,,,2018_Sep_10_1230,59.6035080448,verb_norming_L1-swe_no_translation,001,802,
RÄNNA,,,0,71,71,131,,,,,,,,,2018_Sep_10_1230,59.6035080448,verb_norming_L1-swe_no_translation,001,802,
FLANERA,Arm,arm,0,72,72,104,0,0,0,0,1,4.116,,,2018_Sep_10_1230,59.6035080448,verb_norming_L1-swe_no_translation,001,802,
FLANERA,Ben,ben,0,72,72,104,0,1,1,1,5,3.85,,,2018_Sep_10_1230,59.6035080448,verb_norming_L1-swe_no_translation,001,802,
FLANERA,,,0,72,72,104,,,,,,,,,2018_Sep_10_1230,59.6035080448,verb_norming_L1-swe_no_translation,001,802,
SMÄLLA,Arm,arm,0,73,73,84,0,0,0,0,4,5.743,,,2018_Sep_10_1230,59.6035080448,verb_norming_L1-swe_no_translation,001,802,
SMÄLLA,Ben,ben,0,73,73,84,0,1,1,1,1,1.956,,,2018_Sep_10_1230,59.6035080448,verb_norming_L1-swe_no_translation,001,802,
SMÄLLA,,,0,73,73,84,,,,,,,,,2018_Sep_10_1230,59.6035080448,verb_norming_L1-swe_no_translation,001,802,
KNYCKA,Arm,arm,0,74,74,39,0,0,0,0,5,5.777,,,2018_Sep_10_1230,59.6035080448,verb_norming_L1-swe_no_translation,001,802,
KNYCKA,Ben,ben,0,74,74,39,0,1,1,1,1,1.721,,,2018_Sep_10_1230,59.6035080448,verb_norming_L1-swe_no_translation,001,802,
KNYCKA,,,0,74,74,39,,,,,,,,,2018_Sep_10_1230,59.6035080448,verb_norming_L1-swe_no_translation,001,802,
PADDLA,Arm,arm,0,75,75,49,0,0,0,0,6,4.403,,,2018_Sep_10_1230,59.6035080448,verb_norming_L1-swe_no_translation,001,802,
PADDLA,Ben,ben,0,75,75,49,0,1,1,1,2,3.516,,,2018_Sep_10_1230,59.6035080448,verb_norming_L1-swe_no_translation,001,802,
PADDLA,,,0,75,75,49,,,,,,,,,2018_Sep_10_1230,59.6035080448,verb_norming_L1-swe_no_translation,001,802,
GRÄVA,Arm,arm,0,76,76,17,0,0,0,0,6,3.832,,,2018_Sep_10_1230,59.6035080448,verb_norming_L1-swe_no_translation,001,802,
GRÄVA,Ben,ben,0,76,76,17,0,1,1,1,2,2.477,,,2018_Sep_10_1230,59.6035080448,verb_norming_L1-swe_no_translation,001,802,
GRÄVA,,,0,76,76,17,,,,,,,,,2018_Sep_10_1230,59.6035080448,verb_norming_L1-swe_no_translation,001,802,
KNIVHUGGA,Arm,arm,0,77,77,38,0,0,0,0,5,4.821,,,2018_Sep_10_1230,59.6035080448,verb_norming_L1-swe_no_translation,001,802,
KNIVHUGGA,Ben,ben,0,77,77,38,0,1,1,1,1,1.905,,,2018_Sep_10_1230,59.6035080448,verb_norming_L1-swe_no_translation,001,802,
KNIVHUGGA,,,0,77,77,38,,,,,,,,,2018_Sep_10_1230,59.6035080448,verb_norming_L1-swe_no_translation,001,802,
STÅ,Arm,arm,0,78,78,147,0,0,0,0,1,9.903,,,2018_Sep_10_1230,59.6035080448,verb_norming_L1-swe_no_translation,001,802,
STÅ,Ben,ben,0,78,78,147,0,1,1,1,5,1.957,,,2018_Sep_10_1230,59.6035080448,verb_norming_L1-swe_no_translation,001,802,
STÅ,,,0,78,78,147,,,,,,,,,2018_Sep_10_1230,59.6035080448,verb_norming_L1-swe_no_translation,001,802,
NAPPA,Arm,arm,0,79,79,45,0,0,0,0,1,7.556,,,2018_Sep_10_1230,59.6035080448,verb_norming_L1-swe_no_translation,001,802,
NAPPA,Ben,ben,0,79,79,45,0,1,1,1,1,1.74,,,2018_Sep_10_1230,59.6035080448,verb_norming_L1-swe_no_translation,001,802,
NAPPA,,,0,79,79,45,,,,,,,,,2018_Sep_10_1230,59.6035080448,verb_norming_L1-swe_no_translation,001,802,
ROTA,Arm,arm,0,80,80,66,0,0,0,0,5,3.146,,,2018_Sep_10_1230,59.6035080448,verb_norming_L1-swe_no_translation,001,802,
ROTA,Ben,ben,0,80,80,66,0,1,1,1,1,1.942,,,2018_Sep_10_1230,59.6035080448,verb_norming_L1-swe_no_translation,001,802,
ROTA,,,0,80,80,66,,,,,,,,,2018_Sep_10_1230,59.6035080448,verb_norming_L1-swe_no_translation,001,802,
RISTA,Arm,arm,0,81,81,62,0,0,0,0,5,4.805,,,2018_Sep_10_1230,59.6035080448,verb_norming_L1-swe_no_translation,001,802,
RISTA,Ben,ben,0,81,81,62,0,1,1,1,1,1.874,,,2018_Sep_10_1230,59.6035080448,verb_norming_L1-swe_no_translation,001,802,
RISTA,,,0,81,81,62,,,,,,,,,2018_Sep_10_1230,59.6035080448,verb_norming_L1-swe_no_translation,001,802,
FLY,Arm,arm,0,82,82,105,0,0,0,0,1,5.894,,,2018_Sep_10_1230,59.6035080448,verb_norming_L1-swe_no_translation,001,802,
FLY,Ben,ben,0,82,82,105,0,1,1,1,5,1.353,,,2018_Sep_10_1230,59.6035080448,verb_norming_L1-swe_no_translation,001,802,
FLY,,,0,82,82,105,,,,,,,,,2018_Sep_10_1230,59.6035080448,verb_norming_L1-swe_no_translation,001,802,
RAFSA,Arm,arm,0,83,83,58,0,0,0,0,6,4.286,,,2018_Sep_10_1230,59.6035080448,verb_norming_L1-swe_no_translation,001,802,
RAFSA,Ben,ben,0,83,83,58,0,1,1,1,1,2.578,,,2018_Sep_10_1230,59.6035080448,verb_norming_L1-swe_no_translation,001,802,
RAFSA,,,0,83,83,58,,,,,,,,,2018_Sep_10_1230,59.6035080448,verb_norming_L1-swe_no_translation,001,802,
BADDA,Arm,arm,0,84,84,0,0,0,0,0,5,6.181,,,2018_Sep_10_1230,59.6035080448,verb_norming_L1-swe_no_translation,001,802,
BADDA,Ben,ben,0,84,84,0,0,1,1,1,3,3.197,,,2018_Sep_10_1230,59.6035080448,verb_norming_L1-swe_no_translation,001,802,
BADDA,,,0,84,84,0,,,,,,,,,2018_Sep_10_1230,59.6035080448,verb_norming_L1-swe_no_translation,001,802,
STÖTA,Arm,arm,0,85,85,89,0,0,0,0,5,9.082,,,2018_Sep_10_1230,59.6035080448,verb_norming_L1-swe_no_translation,001,802,
STÖTA,Ben,ben,0,85,85,89,0,1,1,1,1,1.605,,,2018_Sep_10_1230,59.6035080448,verb_norming_L1-swe_no_translation,001,802,
STÖTA,,,0,85,85,89,,,,,,,,,2018_Sep_10_1230,59.6035080448,verb_norming_L1-swe_no_translation,001,802,
KNIPA,Arm,arm,0,86,86,37,0,0,0,0,3,5.677,,,2018_Sep_10_1230,59.6035080448,verb_norming_L1-swe_no_translation,001,802,
KNIPA,Ben,ben,0,86,86,37,0,1,1,1,1,1.605,,,2018_Sep_10_1230,59.6035080448,verb_norming_L1-swe_no_translation,001,802,
KNIPA,,,0,86,86,37,,,,,,,,,2018_Sep_10_1230,59.6035080448,verb_norming_L1-swe_no_translation,001,802,
SLÄNTRA,Arm,arm,0,87,87,139,0,0,0,0,1,5.693,,,2018_Sep_10_1230,59.6035080448,verb_norming_L1-swe_no_translation,001,802,
SLÄNTRA,Ben,ben,0,87,87,139,0,1,1,1,4,1.587,,,2018_Sep_10_1230,59.6035080448,verb_norming_L1-swe_no_translation,001,802,
SLÄNTRA,,,0,87,87,139,,,,,,,,,2018_Sep_10_1230,59.6035080448,verb_norming_L1-swe_no_translation,001,802,
GNIDA,Arm,arm,0,88,88,14,0,0,0,0,4,11.128,,,2018_Sep_10_1230,59.6035080448,verb_norming_L1-swe_no_translation,001,802,
GNIDA,Ben,ben,0,88,88,14,0,1,1,1,1,3.45,,,2018_Sep_10_1230,59.6035080448,verb_norming_L1-swe_no_translation,001,802,
GNIDA,,,0,88,88,14,,,,,,,,,2018_Sep_10_1230,59.6035080448,verb_norming_L1-swe_no_translation,001,802,
GUPPA,Arm,arm,0,89,89,108,0,0,0,0,1,5.761,,,2018_Sep_10_1230,59.6035080448,verb_norming_L1-swe_no_translation,001,802,
GUPPA,Ben,ben,0,89,89,108,0,1,1,1,1,1.555,,,2018_Sep_10_1230,59.6035080448,verb_norming_L1-swe_no_translation,001,802,
GUPPA,,,0,89,89,108,,,,,,,,,2018_Sep_10_1230,59.6035080448,verb_norming_L1-swe_no_translation,001,802,
SKRUBBA,Arm,arm,0,90,90,75,0,0,0,0,5,4.57,,,2018_Sep_10_1230,59.6035080448,verb_norming_L1-swe_no_translation,001,802,
SKRUBBA,Ben,ben,0,90,90,75,0,1,1,1,2,3.667,,,2018_Sep_10_1230,59.6035080448,verb_norming_L1-swe_no_translation,001,802,
SKRUBBA,,,0,90,90,75,,,,,,,,,2018_Sep_10_1230,59.6035080448,verb_norming_L1-swe_no_translation,001,802,
TRUMMA,Arm,arm,0,91,91,94,0,0,0,0,5,3.093,,,2018_Sep_10_1230,59.6035080448,verb_norming_L1-swe_no_translation,001,802,
TRUMMA,Ben,ben,0,91,91,94,0,1,1,1,1,1.704,,,2018_Sep_10_1230,59.6035080448,verb_norming_L1-swe_no_translation,001,802,
TRUMMA,,,0,91,91,94,,,,,,,,,2018_Sep_10_1230,59.6035080448,verb_norming_L1-swe_no_translation,001,802,
HAFFA,Arm,arm,0,92,92,21,0,0,0,0,2,6.298,,,2018_Sep_10_1230,59.6035080448,verb_norming_L1-swe_no_translation,001,802,
HAFFA,Ben,ben,0,92,92,21,0,1,1,1,1,1.857,,,2018_Sep_10_1230,59.6035080448,verb_norming_L1-swe_no_translation,001,802,
HAFFA,,,0,92,92,21,,,,,,,,,2018_Sep_10_1230,59.6035080448,verb_norming_L1-swe_no_translation,001,802,
PILLA,Arm,arm,0,93,93,51,0,0,0,0,4,5.712,,,2018_Sep_10_1230,59.6035080448,verb_norming_L1-swe_no_translation,001,802,
PILLA,Ben,ben,0,93,93,51,0,1,1,1,1,1.134,,,2018_Sep_10_1230,59.6035080448,verb_norming_L1-swe_no_translation,001,802,
PILLA,,,0,93,93,51,,,,,,,,,2018_Sep_10_1230,59.6035080448,verb_norming_L1-swe_no_translation,001,802,
TVINNA,Arm,arm,0,94,94,97,0,0,0,0,3,5.04,,,2018_Sep_10_1230,59.6035080448,verb_norming_L1-swe_no_translation,001,802,
TVINNA,Ben,ben,0,94,94,97,0,1,1,1,1,1.437,,,2018_Sep_10_1230,59.6035080448,verb_norming_L1-swe_no_translation,001,802,
TVINNA,,,0,94,94,97,,,,,,,,,2018_Sep_10_1230,59.6035080448,verb_norming_L1-swe_no_translation,001,802,
LÖPA,Arm,arm,0,95,95,125,0,0,0,0,2,5.159,,,2018_Sep_10_1230,59.6035080448,verb_norming_L1-swe_no_translation,001,802,
LÖPA,Ben,ben,0,95,95,125,0,1,1,1,7,3.685,,,2018_Sep_10_1230,59.6035080448,verb_norming_L1-swe_no_translation,001,802,
LÖPA,,,0,95,95,125,,,,,,,,,2018_Sep_10_1230,59.6035080448,verb_norming_L1-swe_no_translation,001,802,
FILA,Arm,arm,0,96,96,10,0,0,0,0,3,5.226,,,2018_Sep_10_1230,59.6035080448,verb_norming_L1-swe_no_translation,001,802,
FILA,Ben,ben,0,96,96,10,0,1,1,1,1,1.421,,,2018_Sep_10_1230,59.6035080448,verb_norming_L1-swe_no_translation,001,802,
FILA,,,0,96,96,10,,,,,,,,,2018_Sep_10_1230,59.6035080448,verb_norming_L1-swe_no_translation,001,802,
SKYNDA,Arm,arm,0,97,97,138,0,0,0,0,1,4.502,,,2018_Sep_10_1230,59.6035080448,verb_norming_L1-swe_no_translation,001,802,
SKYNDA,Ben,ben,0,97,97,138,0,1,1,1,6,1.267,,,2018_Sep_10_1230,59.6035080448,verb_norming_L1-swe_no_translation,001,802,
SKYNDA,,,0,97,97,138,,,,,,,,,2018_Sep_10_1230,59.6035080448,verb_norming_L1-swe_no_translation,001,802,
SPRINGA,Arm,arm,0,98,98,145,0,0,0,0,2,5.358,,,2018_Sep_10_1230,59.6035080448,verb_norming_L1-swe_no_translation,001,802,
SPRINGA,Ben,ben,0,98,98,145,0,1,1,1,7,2.107,,,2018_Sep_10_1230,59.6035080448,verb_norming_L1-swe_no_translation,001,802,
SPRINGA,,,0,98,98,145,,,,,,,,,2018_Sep_10_1230,59.6035080448,verb_norming_L1-swe_no_translation,001,802,
KLIA,Arm,arm,0,99,99,32,0,0,0,0,6,4.773,,,2018_Sep_10_1230,59.6035080448,verb_norming_L1-swe_no_translation,001,802,
KLIA,Ben,ben,0,99,99,32,0,1,1,1,3,2.712,,,2018_Sep_10_1230,59.6035080448,verb_norming_L1-swe_no_translation,001,802,
KLIA,,,0,99,99,32,,,,,,,,,2018_Sep_10_1230,59.6035080448,verb_norming_L1-swe_no_translation,001,802,
SLUNGA,Arm,arm,0,100,100,83,0,0,0,0,5,8.964,,,2018_Sep_10_1230,59.6035080448,verb_norming_L1-swe_no_translation,001,802,
SLUNGA,Ben,ben,0,100,100,83,0,1,1,1,1,1.403,,,2018_Sep_10_1230,59.6035080448,verb_norming_L1-swe_no_translation,001,802,
SLUNGA,,,0,100,100,83,,,,,,,,,2018_Sep_10_1230,59.6035080448,verb_norming_L1-swe_no_translation,001,802,
BORSTA,Arm,arm,0,101,101,3,0,0,0,0,5,4.872,,,2018_Sep_10_1230,59.6035080448,verb_norming_L1-swe_no_translation,001,802,
BORSTA,Ben,ben,0,101,101,3,0,1,1,1,1,1.302,,,2018_Sep_10_1230,59.6035080448,verb_norming_L1-swe_no_translation,001,802,
BORSTA,,,0,101,101,3,,,,,,,,,2018_Sep_10_1230,59.6035080448,verb_norming_L1-swe_no_translation,001,802,
SKJUTA,Arm,arm,0,102,102,72,0,0,0,0,5,3.715,,,2018_Sep_10_1230,59.6035080448,verb_norming_L1-swe_no_translation,001,802,
SKJUTA,Ben,ben,0,102,102,72,0,1,1,1,4,6.653,,,2018_Sep_10_1230,59.6035080448,verb_norming_L1-swe_no_translation,001,802,
SKJUTA,,,0,102,102,72,,,,,,,,,2018_Sep_10_1230,59.6035080448,verb_norming_L1-swe_no_translation,001,802,
FÖSA,Arm,arm,0,103,103,12,0,0,0,0,6,3.028,,,2018_Sep_10_1230,59.6035080448,verb_norming_L1-swe_no_translation,001,802,
FÖSA,Ben,ben,0,103,103,12,0,1,1,1,2,3.081,,,2018_Sep_10_1230,59.6035080448,verb_norming_L1-swe_no_translation,001,802,
FÖSA,,,0,103,103,12,,,,,,,,,2018_Sep_10_1230,59.6035080448,verb_norming_L1-swe_no_translation,001,802,
KLIPPA,Arm,arm,0,104,104,34,0,0,0,0,5,3.698,,,2018_Sep_10_1230,59.6035080448,verb_norming_L1-swe_no_translation,001,802,
KLIPPA,Ben,ben,0,104,104,34,0,1,1,1,1,1.185,,,2018_Sep_10_1230,59.6035080448,verb_norming_L1-swe_no_translation,001,802,
KLIPPA,,,0,104,104,34,,,,,,,,,2018_Sep_10_1230,59.6035080448,verb_norming_L1-swe_no_translation,001,802,
VANKA,Arm,arm,0,105,105,167,0,0,0,0,1,10.424,,,2018_Sep_10_1230,59.6035080448,verb_norming_L1-swe_no_translation,001,802,
VANKA,Ben,ben,0,105,105,167,0,1,1,1,4,1.419,,,2018_Sep_10_1230,59.6035080448,verb_norming_L1-swe_no_translation,001,802,
VANKA,,,0,105,105,167,,,,,,,,,2018_Sep_10_1230,59.6035080448,verb_norming_L1-swe_no_translation,001,802,
HALTA,Arm,arm,0,106,106,110,0,0,0,0,1,3.783,,,2018_Sep_10_1230,59.6035080448,verb_norming_L1-swe_no_translation,001,802,
HALTA,Ben,ben,0,106,106,110,0,1,1,1,6,2.444,,,2018_Sep_10_1230,59.6035080448,verb_norming_L1-swe_no_translation,001,802,
HALTA,,,0,106,106,110,,,,,,,,,2018_Sep_10_1230,59.6035080448,verb_norming_L1-swe_no_translation,001,802,
DANSA,Arm,arm,0,107,107,102,0,0,0,0,3,5.862,,,2018_Sep_10_1230,59.6035080448,verb_norming_L1-swe_no_translation,001,802,
DANSA,Ben,ben,0,107,107,102,0,1,1,1,6,1.404,,,2018_Sep_10_1230,59.6035080448,verb_norming_L1-swe_no_translation,001,802,
DANSA,,,0,107,107,102,,,,,,,,,2018_Sep_10_1230,59.6035080448,verb_norming_L1-swe_no_translation,001,802,
SKÄRA,Arm,arm,0,108,108,71,0,0,0,0,6,2.76,,,2018_Sep_10_1230,59.6035080448,verb_norming_L1-swe_no_translation,001,802,
SKÄRA,Ben,ben,0,108,108,71,0,1,1,1,1,2.494,,,2018_Sep_10_1230,59.6035080448,verb_norming_L1-swe_no_translation,001,802,
SKÄRA,,,0,108,108,71,,,,,,,,,2018_Sep_10_1230,59.6035080448,verb_norming_L1-swe_no_translation,001,802,
SVASSA,Arm,arm,0,109,109,157,0,0,0,0,3,3.128,,,2018_Sep_10_1230,59.6035080448,verb_norming_L1-swe_no_translation,001,802,
SVASSA,Ben,ben,0,109,109,157,0,1,1,1,6,0.849,,,2018_Sep_10_1230,59.6035080448,verb_norming_L1-swe_no_translation,001,802,
SVASSA,,,0,109,109,157,,,,,,,,,2018_Sep_10_1230,59.6035080448,verb_norming_L1-swe_no_translation,001,802,
PETA,Arm,arm,0,110,110,50,0,0,0,0,5,3.664,,,2018_Sep_10_1230,59.6035080448,verb_norming_L1-swe_no_translation,001,802,
PETA,Ben,ben,0,110,110,50,0,1,1,1,1,6.183,,,2018_Sep_10_1230,59.6035080448,verb_norming_L1-swe_no_translation,001,802,
PETA,,,0,110,110,50,,,,,,,,,2018_Sep_10_1230,59.6035080448,verb_norming_L1-swe_no_translation,001,802,
RULTA,Arm,arm,0,111,111,133,0,0,0,0,2,7.17,,,2018_Sep_10_1230,59.6035080448,verb_norming_L1-swe_no_translation,001,802,
RULTA,Ben,ben,0,111,111,133,0,1,1,1,6,4.104,,,2018_Sep_10_1230,59.6035080448,verb_norming_L1-swe_no_translation,001,802,
RULTA,,,0,111,111,133,,,,,,,,,2018_Sep_10_1230,59.6035080448,verb_norming_L1-swe_no_translation,001,802,
NYPA,Arm,arm,0,112,112,47,0,0,0,0,4,3.78,,,2018_Sep_10_1230,59.6035080448,verb_norming_L1-swe_no_translation,001,802,
NYPA,Ben,ben,0,112,112,47,0,1,1,1,1,1.973,,,2018_Sep_10_1230,59.6035080448,verb_norming_L1-swe_no_translation,001,802,
NYPA,,,0,112,112,47,,,,,,,,,2018_Sep_10_1230,59.6035080448,verb_norming_L1-swe_no_translation,001,802,
KNÄA,Arm,arm,0,113,113,118,0,0,0,0,1,4.185,,,2018_Sep_10_1230,59.6035080448,verb_norming_L1-swe_no_translation,001,802,
KNÄA,Ben,ben,0,113,113,118,0,1,1,1,7,2.779,,,2018_Sep_10_1230,59.6035080448,verb_norming_L1-swe_no_translation,001,802,
KNÄA,,,0,113,113,118,,,,,,,,,2018_Sep_10_1230,59.6035080448,verb_norming_L1-swe_no_translation,001,802,
KRAVLA,Arm,arm,0,114,114,122,0,0,0,0,5,6.415,,,2018_Sep_10_1230,59.6035080448,verb_norming_L1-swe_no_translation,001,802,
KRAVLA,Ben,ben,0,114,114,122,0,1,1,1,4,5.462,,,2018_Sep_10_1230,59.6035080448,verb_norming_L1-swe_no_translation,001,802,
KRAVLA,,,0,114,114,122,,,,,,,,,2018_Sep_10_1230,59.6035080448,verb_norming_L1-swe_no_translation,001,802,
STIGA,Arm,arm,0,115,115,151,0,0,0,0,1,5.829,,,2018_Sep_10_1230,59.6035080448,verb_norming_L1-swe_no_translation,001,802,
STIGA,Ben,ben,0,115,115,151,0,1,1,1,4,2.092,,,2018_Sep_10_1230,59.6035080448,verb_norming_L1-swe_no_translation,001,802,
STIGA,,,0,115,115,151,,,,,,,,,2018_Sep_10_1230,59.6035080448,verb_norming_L1-swe_no_translation,001,802,
HISSA,Arm,arm,0,116,116,23,0,0,0,0,3,7.825,,,2018_Sep_10_1230,59.6035080448,verb_norming_L1-swe_no_translation,001,802,
HISSA,Ben,ben,0,116,116,23,0,1,1,1,1,2.176,,,2018_Sep_10_1230,59.6035080448,verb_norming_L1-swe_no_translation,001,802,
HISSA,,,0,116,116,23,,,,,,,,,2018_Sep_10_1230,59.6035080448,verb_norming_L1-swe_no_translation,001,802,
ÅLA,Arm,arm,0,117,117,100,0,0,0,0,3,4.971,,,2018_Sep_10_1230,59.6035080448,verb_norming_L1-swe_no_translation,001,802,
ÅLA,Ben,ben,0,117,117,100,0,1,1,1,4,3.567,,,2018_Sep_10_1230,59.6035080448,verb_norming_L1-swe_no_translation,001,802,
ÅLA,,,0,117,117,100,,,,,,,,,2018_Sep_10_1230,59.6035080448,verb_norming_L1-swe_no_translation,001,802,
PISKA,Arm,arm,0,118,118,52,0,0,0,0,4,3.498,,,2018_Sep_10_1230,59.6035080448,verb_norming_L1-swe_no_translation,001,802,
PISKA,Ben,ben,0,118,118,52,0,1,1,1,1,1.622,,,2018_Sep_10_1230,59.6035080448,verb_norming_L1-swe_no_translation,001,802,
PISKA,,,0,118,118,52,,,,,,,,,2018_Sep_10_1230,59.6035080448,verb_norming_L1-swe_no_translation,001,802,
RÖRA,Arm,arm,0,119,119,65,0,0,0,0,4,8.781,,,2018_Sep_10_1230,59.6035080448,verb_norming_L1-swe_no_translation,001,802,
RÖRA,Ben,ben,0,119,119,65,0,1,1,1,1,2.931,,,2018_Sep_10_1230,59.6035080448,verb_norming_L1-swe_no_translation,001,802,
RÖRA,,,0,119,119,65,,,,,,,,,2018_Sep_10_1230,59.6035080448,verb_norming_L1-swe_no_translation,001,802,
LUNKA,Arm,arm,0,120,120,126,0,0,0,0,1,3.347,,,2018_Sep_10_1230,59.6035080448,verb_norming_L1-swe_no_translation,001,802,
LUNKA,Ben,ben,0,120,120,126,0,1,1,1,6,1.002,,,2018_Sep_10_1230,59.6035080448,verb_norming_L1-swe_no_translation,001,802,
LUNKA,,,0,120,120,126,,,,,,,,,2018_Sep_10_1230,59.6035080448,verb_norming_L1-swe_no_translation,001,802,
VACKLA,Arm,arm,0,121,121,164,0,0,0,0,1,3.43,,,2018_Sep_10_1230,59.6035080448,verb_norming_L1-swe_no_translation,001,802,
VACKLA,Ben,ben,0,121,121,164,0,1,1,1,6,1.236,,,2018_Sep_10_1230,59.6035080448,verb_norming_L1-swe_no_translation,001,802,
VACKLA,,,0,121,121,164,,,,,,,,,2018_Sep_10_1230,59.6035080448,verb_norming_L1-swe_no_translation,001,802,
KELA,Arm,arm,0,122,122,28,0,0,0,0,5,5.492,,,2018_Sep_10_1230,59.6035080448,verb_norming_L1-swe_no_translation,001,802,
KELA,Ben,ben,0,122,122,28,0,1,1,1,3,3.432,,,2018_Sep_10_1230,59.6035080448,verb_norming_L1-swe_no_translation,001,802,
KELA,,,0,122,122,28,,,,,,,,,2018_Sep_10_1230,59.6035080448,verb_norming_L1-swe_no_translation,001,802,
HÖJA,Arm,arm,0,123,123,25,0,0,0,0,2,9.838,,,2018_Sep_10_1230,59.6035080448,verb_norming_L1-swe_no_translation,001,802,
HÖJA,Ben,ben,0,123,123,25,0,1,1,1,1,1.253,,,2018_Sep_10_1230,59.6035080448,verb_norming_L1-swe_no_translation,001,802,
HÖJA,,,0,123,123,25,,,,,,,,,2018_Sep_10_1230,59.6035080448,verb_norming_L1-swe_no_translation,001,802,
PUTTA,Arm,arm,0,124,124,57,0,0,0,0,6,2.458,,,2018_Sep_10_1230,59.6035080448,verb_norming_L1-swe_no_translation,001,802,
PUTTA,Ben,ben,0,124,124,57,0,1,1,1,1,3.031,,,2018_Sep_10_1230,59.6035080448,verb_norming_L1-swe_no_translation,001,802,
PUTTA,,,0,124,124,57,,,,,,,,,2018_Sep_10_1230,59.6035080448,verb_norming_L1-swe_no_translation,001,802,
KARVA,Arm,arm,0,125,125,26,0,0,0,0,6,5.175,,,2018_Sep_10_1230,59.6035080448,verb_norming_L1-swe_no_translation,001,802,
KARVA,Ben,ben,0,125,125,26,0,1,1,1,1,2.511,,,2018_Sep_10_1230,59.6035080448,verb_norming_L1-swe_no_translation,001,802,
KARVA,,,0,125,125,26,,,,,,,,,2018_Sep_10_1230,59.6035080448,verb_norming_L1-swe_no_translation,001,802,
MARSCHERA,Arm,arm,0,126,126,127,0,0,0,0,2,3.997,,,2018_Sep_10_1230,59.6035080448,verb_norming_L1-swe_no_translation,001,802,
MARSCHERA,Ben,ben,0,126,126,127,0,1,1,1,7,1.349,,,2018_Sep_10_1230,59.6035080448,verb_norming_L1-swe_no_translation,001,802,
MARSCHERA,,,0,126,126,127,,,,,,,,,2018_Sep_10_1230,59.6035080448,verb_norming_L1-swe_no_translation,001,802,
RAGLA,Arm,arm,0,127,127,130,0,0,0,0,1,3.699,,,2018_Sep_10_1230,59.6035080448,verb_norming_L1-swe_no_translation,001,802,
RAGLA,Ben,ben,0,127,127,130,0,1,1,1,6,0.934,,,2018_Sep_10_1230,59.6035080448,verb_norming_L1-swe_no_translation,001,802,
RAGLA,,,0,127,127,130,,,,,,,,,2018_Sep_10_1230,59.6035080448,verb_norming_L1-swe_no_translation,001,802,
SLIPA,Arm,arm,0,128,128,81,0,0,0,0,4,4.94,,,2018_Sep_10_1230,59.6035080448,verb_norming_L1-swe_no_translation,001,802,
SLIPA,Ben,ben,0,128,128,81,0,1,1,1,1,1.169,,,2018_Sep_10_1230,59.6035080448,verb_norming_L1-swe_no_translation,001,802,
SLIPA,,,0,128,128,81,,,,,,,,,2018_Sep_10_1230,59.6035080448,verb_norming_L1-swe_no_translation,001,802,
STAPPLA,Arm,arm,0,129,129,149,0,0,0,0,1,4.553,,,2018_Sep_10_1230,59.6035080448,verb_norming_L1-swe_no_translation,001,802,
STAPPLA,Ben,ben,0,129,129,149,0,1,1,1,6,1.956,,,2018_Sep_10_1230,59.6035080448,verb_norming_L1-swe_no_translation,001,802,
STAPPLA,,,0,129,129,149,,,,,,,,,2018_Sep_10_1230,59.6035080448,verb_norming_L1-swe_no_translation,001,802,
PLOCKA,Arm,arm,0,130,130,53,0,0,0,0,6,4.906,,,2018_Sep_10_1230,59.6035080448,verb_norming_L1-swe_no_translation,001,802,
PLOCKA,Ben,ben,0,130,130,53,0,1,1,1,1,1.672,,,2018_Sep_10_1230,59.6035080448,verb_norming_L1-swe_no_translation,001,802,
PLOCKA,,,0,130,130,53,,,,,,,,,2018_Sep_10_1230,59.6035080448,verb_norming_L1-swe_no_translation,001,802,
FLÄTA,Arm,arm,0,131,131,11,0,0,0,0,5,3.749,,,2018_Sep_10_1230,59.6035080448,verb_norming_L1-swe_no_translation,001,802,
FLÄTA,Ben,ben,0,131,131,11,0,1,1,1,1,2.326,,,2018_Sep_10_1230,59.6035080448,verb_norming_L1-swe_no_translation,001,802,
FLÄTA,,,0,131,131,11,,,,,,,,,2018_Sep_10_1230,59.6035080448,verb_norming_L1-swe_no_translation,001,802,
KNALLA,Arm,arm,0,132,132,119,0,0,0,0,1,4.353,,,2018_Sep_10_1230,59.6035080448,verb_norming_L1-swe_no_translation,001,802,
KNALLA,Ben,ben,0,132,132,119,0,1,1,1,5,0.968,,,2018_Sep_10_1230,59.6035080448,verb_norming_L1-swe_no_translation,001,802,
KNALLA,,,0,132,132,119,,,,,,,,,2018_Sep_10_1230,59.6035080448,verb_norming_L1-swe_no_translation,001,802,
BINDA,Arm,arm,0,133,133,2,0,0,0,0,4,3.196,,,2018_Sep_10_1230,59.6035080448,verb_norming_L1-swe_no_translation,001,802,
BINDA,Ben,ben,0,133,133,2,0,1,1,1,1,3.215,,,2018_Sep_10_1230,59.6035080448,verb_norming_L1-swe_no_translation,001,802,
BINDA,,,0,133,133,2,,,,,,,,,2018_Sep_10_1230,59.6035080448,verb_norming_L1-swe_no_translation,001,802,
PUTSA,Arm,arm,0,134,134,56,0,0,0,0,4,3.179,,,2018_Sep_10_1230,59.6035080448,verb_norming_L1-swe_no_translation,001,802,
PUTSA,Ben,ben,0,134,134,56,0,1,1,1,1,1.404,,,2018_Sep_10_1230,59.6035080448,verb_norming_L1-swe_no_translation,001,802,
PUTSA,,,0,134,134,56,,,,,,,,,2018_Sep_10_1230,59.6035080448,verb_norming_L1-swe_no_translation,001,802,
TRYCKA,Arm,arm,0,135,135,95,0,0,0,0,5,4.284,,,2018_Sep_10_1230,59.6035080448,verb_norming_L1-swe_no_translation,001,802,
TRYCKA,Ben,ben,0,135,135,95,0,1,1,1,2,1.335,,,2018_Sep_10_1230,59.6035080448,verb_norming_L1-swe_no_translation,001,802,
TRYCKA,,,0,135,135,95,,,,,,,,,2018_Sep_10_1230,59.6035080448,verb_norming_L1-swe_no_translation,001,802,
FATTA,Arm,arm,0,136,136,9,0,0,0,0,3,7.64,,,2018_Sep_10_1230,59.6035080448,verb_norming_L1-swe_no_translation,001,802,
FATTA,Ben,ben,0,136,136,9,0,1,1,1,1,1.035,,,2018_Sep_10_1230,59.6035080448,verb_norming_L1-swe_no_translation,001,802,
FATTA,,,0,136,136,9,,,,,,,,,2018_Sep_10_1230,59.6035080448,verb_norming_L1-swe_no_translation,001,802,
HALKA,Arm,arm,0,137,137,109,0,0,0,0,2,9.803,,,2018_Sep_10_1230,59.6035080448,verb_norming_L1-swe_no_translation,001,802,
HALKA,Ben,ben,0,137,137,109,0,1,1,1,5,1.387,,,2018_Sep_10_1230,59.6035080448,verb_norming_L1-swe_no_translation,001,802,
HALKA,,,0,137,137,109,,,,,,,,,2018_Sep_10_1230,59.6035080448,verb_norming_L1-swe_no_translation,001,802,
KRYPA,Arm,arm,0,138,138,123,0,0,0,0,3,11.11,,,2018_Sep_10_1230,59.6035080448,verb_norming_L1-swe_no_translation,001,802,
KRYPA,Ben,ben,0,138,138,123,0,1,1,1,5,2.61,,,2018_Sep_10_1230,59.6035080448,verb_norming_L1-swe_no_translation,001,802,
KRYPA,,,0,138,138,123,,,,,,,,,2018_Sep_10_1230,59.6035080448,verb_norming_L1-swe_no_translation,001,802,
LINKA,Arm,arm,0,139,139,124,0,0,0,0,1,3.195,,,2018_Sep_10_1230,59.6035080448,verb_norming_L1-swe_no_translation,001,802,
LINKA,Ben,ben,0,139,139,124,0,1,1,1,6,0.699,,,2018_Sep_10_1230,59.6035080448,verb_norming_L1-swe_no_translation,001,802,
LINKA,,,0,139,139,124,,,,,,,,,2018_Sep_10_1230,59.6035080448,verb_norming_L1-swe_no_translation,001,802,
STEGA,Arm,arm,0,140,140,150,0,0,0,0,1,5.456,,,2018_Sep_10_1230,59.6035080448,verb_norming_L1-swe_no_translation,001,802,
STEGA,Ben,ben,0,140,140,150,0,1,1,1,7,2.241,,,2018_Sep_10_1230,59.6035080448,verb_norming_L1-swe_no_translation,001,802,
STEGA,,,0,140,140,150,,,,,,,,,2018_Sep_10_1230,59.6035080448,verb_norming_L1-swe_no_translation,001,802,
SMYGA,Arm,arm,0,141,141,141,0,0,0,0,1,4.922,,,2018_Sep_10_1230,59.6035080448,verb_norming_L1-swe_no_translation,001,802,
SMYGA,Ben,ben,0,141,141,141,0,1,1,1,6,0.832,,,2018_Sep_10_1230,59.6035080448,verb_norming_L1-swe_no_translation,001,802,
SMYGA,,,0,141,141,141,,,,,,,,,2018_Sep_10_1230,59.6035080448,verb_norming_L1-swe_no_translation,001,802,
STÄDA,Arm,arm,0,142,142,88,0,0,0,0,5,4.018,,,2018_Sep_10_1230,59.6035080448,verb_norming_L1-swe_no_translation,001,802,
STÄDA,Ben,ben,0,142,142,88,0,1,1,1,1,2.41,,,2018_Sep_10_1230,59.6035080448,verb_norming_L1-swe_no_translation,001,802,
STÄDA,,,0,142,142,88,,,,,,,,,2018_Sep_10_1230,59.6035080448,verb_norming_L1-swe_no_translation,001,802,
GRIPA,Arm,arm,0,143,143,19,0,0,0,0,5,3.464,,,2018_Sep_10_1230,59.6035080448,verb_norming_L1-swe_no_translation,001,802,
GRIPA,Ben,ben,0,143,143,19,0,1,1,1,1,1.37,,,2018_Sep_10_1230,59.6035080448,verb_norming_L1-swe_no_translation,001,802,
GRIPA,,,0,143,143,19,,,,,,,,,2018_Sep_10_1230,59.6035080448,verb_norming_L1-swe_no_translation,001,802,
KASTA,Arm,arm,0,144,144,27,0,0,0,0,7,3.951,,,2018_Sep_10_1230,59.6035080448,verb_norming_L1-swe_no_translation,001,802,
KASTA,Ben,ben,0,144,144,27,0,1,1,1,1,1.638,,,2018_Sep_10_1230,59.6035080448,verb_norming_L1-swe_no_translation,001,802,
KASTA,,,0,144,144,27,,,,,,,,,2018_Sep_10_1230,59.6035080448,verb_norming_L1-swe_no_translation,001,802,
TRAMPA,Arm,arm,0,145,145,161,0,0,0,0,1,6.196,,,2018_Sep_10_1230,59.6035080448,verb_norming_L1-swe_no_translation,001,802,
TRAMPA,Ben,ben,0,145,145,161,0,1,1,1,6,1.653,,,2018_Sep_10_1230,59.6035080448,verb_norming_L1-swe_no_translation,001,802,
TRAMPA,,,0,145,145,161,,,,,,,,,2018_Sep_10_1230,59.6035080448,verb_norming_L1-swe_no_translation,001,802,
VIRA,Arm,arm,0,146,146,99,0,0,0,0,3,9.284,,,2018_Sep_10_1230,59.6035080448,verb_norming_L1-swe_no_translation,001,802,
VIRA,Ben,ben,0,146,146,99,0,1,1,1,1,0.884,,,2018_Sep_10_1230,59.6035080448,verb_norming_L1-swe_no_translation,001,802,
VIRA,,,0,146,146,99,,,,,,,,,2018_Sep_10_1230,59.6035080448,verb_norming_L1-swe_no_translation,001,802,
SMEKA,Arm,arm,0,147,147,85,0,0,0,0,6,3.16,,,2018_Sep_10_1230,59.6035080448,verb_norming_L1-swe_no_translation,001,802,
SMEKA,Ben,ben,0,147,147,85,0,1,1,1,3,2.19,,,2018_Sep_10_1230,59.6035080448,verb_norming_L1-swe_no_translation,001,802,
SMEKA,,,0,147,147,85,,,,,,,,,2018_Sep_10_1230,59.6035080448,verb_norming_L1-swe_no_translation,001,802,
SIGNERA,Arm,arm,0,148,148,68,0,0,0,0,4,8.325,,,2018_Sep_10_1230,59.6035080448,verb_norming_L1-swe_no_translation,001,802,
SIGNERA,Ben,ben,0,148,148,68,0,1,1,1,1,1.62,,,2018_Sep_10_1230,59.6035080448,verb_norming_L1-swe_no_translation,001,802,
SIGNERA,,,0,148,148,68,,,,,,,,,2018_Sep_10_1230,59.6035080448,verb_norming_L1-swe_no_translation,001,802,
DUNKA,Arm,arm,0,149,149,7,0,0,0,0,6,4.353,,,2018_Sep_10_1230,59.6035080448,verb_norming_L1-swe_no_translation,001,802,
DUNKA,Ben,ben,0,149,149,7,0,1,1,1,1,1.303,,,2018_Sep_10_1230,59.6035080448,verb_norming_L1-swe_no_translation,001,802,
DUNKA,,,0,149,149,7,,,,,,,,,2018_Sep_10_1230,59.6035080448,verb_norming_L1-swe_no_translation,001,802,
VANDRA,Arm,arm,0,150,150,166,0,0,0,0,1,3.749,,,2018_Sep_10_1230,59.6035080448,verb_norming_L1-swe_no_translation,001,802,
VANDRA,Ben,ben,0,150,150,166,0,1,1,1,7,1.034,,,2018_Sep_10_1230,59.6035080448,verb_norming_L1-swe_no_translation,001,802,
VANDRA,,,0,150,150,166,,,,,,,,,2018_Sep_10_1230,59.6035080448,verb_norming_L1-swe_no_translation,001,802,
SKAKA,Arm,arm,0,151,151,69,0,0,0,0,4,3.664,,,2018_Sep_10_1230,59.6035080448,verb_norming_L1-swe_no_translation,001,802,
SKAKA,Ben,ben,0,151,151,69,0,1,1,1,1,1.521,,,2018_Sep_10_1230,59.6035080448,verb_norming_L1-swe_no_translation,001,802,
SKAKA,,,0,151,151,69,,,,,,,,,2018_Sep_10_1230,59.6035080448,verb_norming_L1-swe_no_translation,001,802,
RIVA,Arm,arm,0,152,152,63,0,0,0,0,5,6.433,,,2018_Sep_10_1230,59.6035080448,verb_norming_L1-swe_no_translation,001,802,
RIVA,Ben,ben,0,152,152,63,0,1,1,1,1,1.069,,,2018_Sep_10_1230,59.6035080448,verb_norming_L1-swe_no_translation,001,802,
RIVA,,,0,152,152,63,,,,,,,,,2018_Sep_10_1230,59.6035080448,verb_norming_L1-swe_no_translation,001,802,
GNUGGA,Arm,arm,0,153,153,15,0,0,0,0,4,3.111,,,2018_Sep_10_1230,59.6035080448,verb_norming_L1-swe_no_translation,001,802,
GNUGGA,Ben,ben,0,153,153,15,0,1,1,1,1,1.404,,,2018_Sep_10_1230,59.6035080448,verb_norming_L1-swe_no_translation,001,802,
GNUGGA,,,0,153,153,15,,,,,,,,,2018_Sep_10_1230,59.6035080448,verb_norming_L1-swe_no_translation,001,802,
TORKA,Arm,arm,0,154,154,93,0,0,0,0,4,3.296,,,2018_Sep_10_1230,59.6035080448,verb_norming_L1-swe_no_translation,001,802,
TORKA,Ben,ben,0,154,154,93,0,1,1,1,1,1.873,,,2018_Sep_10_1230,59.6035080448,verb_norming_L1-swe_no_translation,001,802,
TORKA,,,0,154,154,93,,,,,,,,,2018_Sep_10_1230,59.6035080448,verb_norming_L1-swe_no_translation,001,802,
KNOGA,Arm,arm,0,155,155,121,0,0,0,0,4,5.61,,,2018_Sep_10_1230,59.6035080448,verb_norming_L1-swe_no_translation,001,802,
KNOGA,Ben,ben,0,155,155,121,0,1,1,1,1,1.152,,,2018_Sep_10_1230,59.6035080448,verb_norming_L1-swe_no_translation,001,802,
KNOGA,,,0,155,155,121,,,,,,,,,2018_Sep_10_1230,59.6035080448,verb_norming_L1-swe_no_translation,001,802,
DRA,Arm,arm,0,156,156,6,0,0,0,0,6,8.664,,,2018_Sep_10_1230,59.6035080448,verb_norming_L1-swe_no_translation,001,802,
DRA,Ben,ben,0,156,156,6,0,1,1,1,1,1.271,,,2018_Sep_10_1230,59.6035080448,verb_norming_L1-swe_no_translation,001,802,
DRA,,,0,156,156,6,,,,,,,,,2018_Sep_10_1230,59.6035080448,verb_norming_L1-swe_no_translation,001,802,
SPARKA,Arm,arm,0,157,157,144,0,0,0,0,1,3.078,,,2018_Sep_10_1230,59.6035080448,verb_norming_L1-swe_no_translation,001,802,
SPARKA,Ben,ben,0,157,157,144,0,1,1,1,7,1.068,,,2018_Sep_10_1230,59.6035080448,verb_norming_L1-swe_no_translation,001,802,
SPARKA,,,0,157,157,144,,,,,,,,,2018_Sep_10_1230,59.6035080448,verb_norming_L1-swe_no_translation,001,802,
RUSA,Arm,arm,0,158,158,134,0,0,0,0,1,2.894,,,2018_Sep_10_1230,59.6035080448,verb_norming_L1-swe_no_translation,001,802,
RUSA,Ben,ben,0,158,158,134,0,1,1,1,6,0.884,,,2018_Sep_10_1230,59.6035080448,verb_norming_L1-swe_no_translation,001,802,
RUSA,,,0,158,158,134,,,,,,,,,2018_Sep_10_1230,59.6035080448,verb_norming_L1-swe_no_translation,001,802,
SVABBA,Arm,arm,0,159,159,90,0,0,0,0,4,4.671,,,2018_Sep_10_1230,59.6035080448,verb_norming_L1-swe_no_translation,001,802,
SVABBA,Ben,ben,0,159,159,90,0,1,1,1,1,1.253,,,2018_Sep_10_1230,59.6035080448,verb_norming_L1-swe_no_translation,001,802,
SVABBA,,,0,159,159,90,,,,,,,,,2018_Sep_10_1230,59.6035080448,verb_norming_L1-swe_no_translation,001,802,
RULLA,Arm,arm,0,160,160,132,0,0,0,0,3,5.325,,,2018_Sep_10_1230,59.6035080448,verb_norming_L1-swe_no_translation,001,802,
RULLA,Ben,ben,0,160,160,132,0,1,1,1,1,0.565,,,2018_Sep_10_1230,59.6035080448,verb_norming_L1-swe_no_translation,001,802,
RULLA,,,0,160,160,132,,,,,,,,,2018_Sep_10_1230,59.6035080448,verb_norming_L1-swe_no_translation,001,802,
TÅGA,Arm,arm,0,161,161,158,0,0,0,0,1,5.122,,,2018_Sep_10_1230,59.6035080448,verb_norming_L1-swe_no_translation,001,802,
TÅGA,Ben,ben,0,161,161,158,0,1,1,1,4,0.916,,,2018_Sep_10_1230,59.6035080448,verb_norming_L1-swe_no_translation,001,802,
TÅGA,,,0,161,161,158,,,,,,,,,2018_Sep_10_1230,59.6035080448,verb_norming_L1-swe_no_translation,001,802,
KRATSA,Arm,arm,0,162,162,42,0,0,0,0,1,4.336,,,2018_Sep_10_1230,59.6035080448,verb_norming_L1-swe_no_translation,001,802,
KRATSA,Ben,ben,0,162,162,42,0,1,1,1,1,1.152,,,2018_Sep_10_1230,59.6035080448,verb_norming_L1-swe_no_translation,001,802,
KRATSA,,,0,162,162,42,,,,,,,,,2018_Sep_10_1230,59.6035080448,verb_norming_L1-swe_no_translation,001,802,
KOPPLA,Arm,arm,0,163,163,40,0,0,0,0,3,3.967,,,2018_Sep_10_1230,59.6035080448,verb_norming_L1-swe_no_translation,001,802,
KOPPLA,Ben,ben,0,163,163,40,0,1,1,1,1,1.437,,,2018_Sep_10_1230,59.6035080448,verb_norming_L1-swe_no_translation,001,802,
KOPPLA,,,0,163,163,40,,,,,,,,,2018_Sep_10_1230,59.6035080448,verb_norming_L1-swe_no_translation,001,802,
POLERA,Arm,arm,0,164,164,54,0,0,0,0,5,4.955,,,2018_Sep_10_1230,59.6035080448,verb_norming_L1-swe_no_translation,001,802,
POLERA,Ben,ben,0,164,164,54,0,1,1,1,1,0.999,,,2018_Sep_10_1230,59.6035080448,verb_norming_L1-swe_no_translation,001,802,
POLERA,,,0,164,164,54,,,,,,,,,2018_Sep_10_1230,59.6035080448,verb_norming_L1-swe_no_translation,001,802,
FLACKA,Arm,arm,0,165,165,103,0,0,0,0,4,3.648,,,2018_Sep_10_1230,59.6035080448,verb_norming_L1-swe_no_translation,001,802,
FLACKA,Ben,ben,0,165,165,103,0,1,1,1,1,0.833,,,2018_Sep_10_1230,59.6035080448,verb_norming_L1-swe_no_translation,001,802,
FLACKA,,,0,165,165,103,,,,,,,,,2018_Sep_10_1230,59.6035080448,verb_norming_L1-swe_no_translation,001,802,
KLÄMMA,Arm,arm,0,166,166,30,0,0,0,0,5,6.928,,,2018_Sep_10_1230,59.6035080448,verb_norming_L1-swe_no_translation,001,802,
KLÄMMA,Ben,ben,0,166,166,30,0,1,1,1,1,1.217,,,2018_Sep_10_1230,59.6035080448,verb_norming_L1-swe_no_translation,001,802,
KLÄMMA,,,0,166,166,30,,,,,,,,,2018_Sep_10_1230,59.6035080448,verb_norming_L1-swe_no_translation,001,802,
KLAPPA,Arm,arm,0,167,167,31,0,0,0,0,6,2.709,,,2018_Sep_10_1230,59.6035080448,verb_norming_L1-swe_no_translation,001,802,
KLAPPA,Ben,ben,0,167,167,31,0,1,1,1,1,1.017,,,2018_Sep_10_1230,59.6035080448,verb_norming_L1-swe_no_translation,001,802,
KLAPPA,,,0,167,167,31,,,,,,,,,2018_Sep_10_1230,59.6035080448,verb_norming_L1-swe_no_translation,001,802,
KLIVA,Arm,arm,0,168,168,117,0,0,0,0,1,4.906,,,2018_Sep_10_1230,59.6035080448,verb_norming_L1-swe_no_translation,001,802,
KLIVA,Ben,ben,0,168,168,117,0,1,1,1,6,1.37,,,2018_Sep_10_1230,59.6035080448,verb_norming_L1-swe_no_translation,001,802,
KLIVA,,,0,168,168,117,,,,,,,,,2018_Sep_10_1230,59.6035080448,verb_norming_L1-swe_no_translation,001,802,
,,,,,,,,,,,,,space,24.6204946999,2018_Sep_10_1230,59.6035080448,verb_norming_L1-swe_no_translation,001,802,
