word,category,category_lowercase,trials.thisRepN,trials.thisTrialN,trials.thisN,trials.thisIndex,armleg_loop.thisRepN,armleg_loop.thisTrialN,armleg_loop.thisN,armleg_loop.thisIndex,rating.response,rating.rt,key_resp_7.keys,key_resp_7.rt,date,frameRate,expName,session,participant,
WADE,Arm,arm,0,0,0,124,0,0,0,0,1,14.853,,,2018_Sep_10_1303,59.6137566511,verb_norming_L2-eng_oral_translation,001,802,
WADE,Leg,leg,0,0,0,124,0,1,1,1,5,3.233,,,2018_Sep_10_1303,59.6137566511,verb_norming_L2-eng_oral_translation,001,802,
WADE,,,0,0,0,124,,,,,,,return,5.63551895209,2018_Sep_10_1303,59.6137566511,verb_norming_L2-eng_oral_translation,001,802,
BRAID,Arm,arm,0,1,1,2,0,0,0,0,6,5.963,,,2018_Sep_10_1303,59.6137566511,verb_norming_L2-eng_oral_translation,001,802,
BRAID,Leg,leg,0,1,1,2,0,1,1,1,1,1.958,,,2018_Sep_10_1303,59.6137566511,verb_norming_L2-eng_oral_translation,001,802,
BRAID,,,0,1,1,2,,,,,,,return,1.56018077307,2018_Sep_10_1303,59.6137566511,verb_norming_L2-eng_oral_translation,001,802,
TUG,Arm,arm,0,2,2,54,0,0,0,0,5,14.078,,,2018_Sep_10_1303,59.6137566511,verb_norming_L2-eng_oral_translation,001,802,
TUG,Leg,leg,0,2,2,54,0,1,1,1,1,1.674,,,2018_Sep_10_1303,59.6137566511,verb_norming_L2-eng_oral_translation,001,802,
TUG,,,0,2,2,54,,,,,,,return,2.88507523782,2018_Sep_10_1303,59.6137566511,verb_norming_L2-eng_oral_translation,001,802,
LEAP,Arm,arm,0,3,3,77,0,0,0,0,1,5.511,,,2018_Sep_10_1303,59.6137566511,verb_norming_L2-eng_oral_translation,001,802,
LEAP,Leg,leg,0,3,3,77,0,1,1,1,6,2.294,,,2018_Sep_10_1303,59.6137566511,verb_norming_L2-eng_oral_translation,001,802,
LEAP,,,0,3,3,77,,,,,,,return,3.08611533884,2018_Sep_10_1303,59.6137566511,verb_norming_L2-eng_oral_translation,001,802,
SCRUB,Arm,arm,0,4,4,41,0,0,0,0,5,5.125,,,2018_Sep_10_1303,59.6137566511,verb_norming_L2-eng_oral_translation,001,802,
SCRUB,Leg,leg,0,4,4,41,0,1,1,1,1,2.679,,,2018_Sep_10_1303,59.6137566511,verb_norming_L2-eng_oral_translation,001,802,
SCRUB,,,0,4,4,41,,,,,,,return,1.17425050614,2018_Sep_10_1303,59.6137566511,verb_norming_L2-eng_oral_translation,001,802,
CLICK,Arm,arm,0,5,5,10,0,0,0,0,6,5.477,,,2018_Sep_10_1303,59.6137566511,verb_norming_L2-eng_oral_translation,001,802,
CLICK,Leg,leg,0,5,5,10,0,1,1,1,1,3.3,,,2018_Sep_10_1303,59.6137566511,verb_norming_L2-eng_oral_translation,001,802,
CLICK,,,0,5,5,10,,,,,,,return,1.76142317303,2018_Sep_10_1303,59.6137566511,verb_norming_L2-eng_oral_translation,001,802,
BASH,Arm,arm,0,6,6,0,0,0,0,0,5,5.327,,,2018_Sep_10_1303,59.6137566511,verb_norming_L2-eng_oral_translation,001,802,
BASH,Leg,leg,0,6,6,0,0,1,1,1,1,2.477,,,2018_Sep_10_1303,59.6137566511,verb_norming_L2-eng_oral_translation,001,802,
BASH,,,0,6,6,0,,,,,,,return,1.54310903439,2018_Sep_10_1303,59.6137566511,verb_norming_L2-eng_oral_translation,001,802,
SKATE,Arm,arm,0,7,7,92,0,0,0,0,1,4.119,,,2018_Sep_10_1303,59.6137566511,verb_norming_L2-eng_oral_translation,001,802,
SKATE,Leg,leg,0,7,7,92,0,1,1,1,5,2.813,,,2018_Sep_10_1303,59.6137566511,verb_norming_L2-eng_oral_translation,001,802,
SKATE,,,0,7,7,92,,,,,,,return,2.04650504878,2018_Sep_10_1303,59.6137566511,verb_norming_L2-eng_oral_translation,001,802,
TOTTER,Arm,arm,0,8,8,114,0,0,0,0,1,20.486,,,2018_Sep_10_1303,59.6137566511,verb_norming_L2-eng_oral_translation,001,802,
TOTTER,Leg,leg,0,8,8,114,0,1,1,1,4,4.121,,,2018_Sep_10_1303,59.6137566511,verb_norming_L2-eng_oral_translation,001,802,
TOTTER,,,0,8,8,114,,,,,,,return,3.74027147569,2018_Sep_10_1303,59.6137566511,verb_norming_L2-eng_oral_translation,001,802,
GROVEL,Arm,arm,0,9,9,68,0,0,0,0,1,10.608,,,2018_Sep_10_1303,59.6137566511,verb_norming_L2-eng_oral_translation,001,802,
GROVEL,Leg,leg,0,9,9,68,0,1,1,1,1,1.706,,,2018_Sep_10_1303,59.6137566511,verb_norming_L2-eng_oral_translation,001,802,
GROVEL,,,0,9,9,68,,,,,,,return,1.84528714596,2018_Sep_10_1303,59.6137566511,verb_norming_L2-eng_oral_translation,001,802,
FLEE,Arm,arm,0,10,10,66,0,0,0,0,1,3.583,,,2018_Sep_10_1303,59.6137566511,verb_norming_L2-eng_oral_translation,001,802,
FLEE,Leg,leg,0,10,10,66,0,1,1,1,6,1.422,,,2018_Sep_10_1303,59.6137566511,verb_norming_L2-eng_oral_translation,001,802,
FLEE,,,0,10,10,66,,,,,,,return,1.34212701528,2018_Sep_10_1303,59.6137566511,verb_norming_L2-eng_oral_translation,001,802,
PLOD,Arm,arm,0,11,11,84,0,0,0,0,1,12.773,,,2018_Sep_10_1303,59.6137566511,verb_norming_L2-eng_oral_translation,001,802,
PLOD,Leg,leg,0,11,11,84,0,1,1,1,4,2.981,,,2018_Sep_10_1303,59.6137566511,verb_norming_L2-eng_oral_translation,001,802,
PLOD,,,0,11,11,84,,,,,,,return,1.30855684995,2018_Sep_10_1303,59.6137566511,verb_norming_L2-eng_oral_translation,001,802,
WANDER,Arm,arm,0,12,12,126,0,0,0,0,1,7.018,,,2018_Sep_10_1303,59.6137566511,verb_norming_L2-eng_oral_translation,001,802,
WANDER,Leg,leg,0,12,12,126,0,1,1,1,6,2.729,,,2018_Sep_10_1303,59.6137566511,verb_norming_L2-eng_oral_translation,001,802,
WANDER,,,0,12,12,126,,,,,,,return,2.7843196987,2018_Sep_10_1303,59.6137566511,verb_norming_L2-eng_oral_translation,001,802,
STROLL,Arm,arm,0,13,13,108,0,0,0,0,1,3.799,,,2018_Sep_10_1303,59.6137566511,verb_norming_L2-eng_oral_translation,001,802,
STROLL,Leg,leg,0,13,13,108,0,1,1,1,6,1.974,,,2018_Sep_10_1303,59.6137566511,verb_norming_L2-eng_oral_translation,001,802,
STROLL,,,0,13,13,108,,,,,,,return,1.71093852483,2018_Sep_10_1303,59.6137566511,verb_norming_L2-eng_oral_translation,001,802,
SNEAK,Arm,arm,0,14,14,97,0,0,0,0,1,4.303,,,2018_Sep_10_1303,59.6137566511,verb_norming_L2-eng_oral_translation,001,802,
SNEAK,Leg,leg,0,14,14,97,0,1,1,1,5,2.495,,,2018_Sep_10_1303,59.6137566511,verb_norming_L2-eng_oral_translation,001,802,
SNEAK,,,0,14,14,97,,,,,,,return,1.5937378996,2018_Sep_10_1303,59.6137566511,verb_norming_L2-eng_oral_translation,001,802,
MOUNT,Arm,arm,0,15,15,81,0,0,0,0,1,4.718,,,2018_Sep_10_1303,59.6137566511,verb_norming_L2-eng_oral_translation,001,802,
MOUNT,Leg,leg,0,15,15,81,0,1,1,1,6,4.874,,,2018_Sep_10_1303,59.6137566511,verb_norming_L2-eng_oral_translation,001,802,
MOUNT,,,0,15,15,81,,,,,,,return,1.8618270597,2018_Sep_10_1303,59.6137566511,verb_norming_L2-eng_oral_translation,001,802,
CHOP,Arm,arm,0,16,16,6,0,0,0,0,6,3.901,,,2018_Sep_10_1303,59.6137566511,verb_norming_L2-eng_oral_translation,001,802,
CHOP,Leg,leg,0,16,16,6,0,1,1,1,1,2.025,,,2018_Sep_10_1303,59.6137566511,verb_norming_L2-eng_oral_translation,001,802,
CHOP,,,0,16,16,6,,,,,,,return,1.62723378329,2018_Sep_10_1303,59.6137566511,verb_norming_L2-eng_oral_translation,001,802,
RAMBLE,Arm,arm,0,17,17,86,0,0,0,0,1,14.682,,,2018_Sep_10_1303,59.6137566511,verb_norming_L2-eng_oral_translation,001,802,
RAMBLE,Leg,leg,0,17,17,86,0,1,1,1,5,3.884,,,2018_Sep_10_1303,59.6137566511,verb_norming_L2-eng_oral_translation,001,802,
RAMBLE,,,0,17,17,86,,,,,,,return,2.28112637836,2018_Sep_10_1303,59.6137566511,verb_norming_L2-eng_oral_translation,001,802,
STRADDLE,Arm,arm,0,18,18,105,0,0,0,0,1,10.305,,,2018_Sep_10_1303,59.6137566511,verb_norming_L2-eng_oral_translation,001,802,
STRADDLE,Leg,leg,0,18,18,105,0,1,1,1,6,1.218,,,2018_Sep_10_1303,59.6137566511,verb_norming_L2-eng_oral_translation,001,802,
STRADDLE,,,0,18,18,105,,,,,,,return,1.7446430293,2018_Sep_10_1303,59.6137566511,verb_norming_L2-eng_oral_translation,001,802,
STRIDE,Arm,arm,0,19,19,107,0,0,0,0,1,5.728,,,2018_Sep_10_1303,59.6137566511,verb_norming_L2-eng_oral_translation,001,802,
STRIDE,Leg,leg,0,19,19,107,0,1,1,1,5,2.544,,,2018_Sep_10_1303,59.6137566511,verb_norming_L2-eng_oral_translation,001,802,
STRIDE,,,0,19,19,107,,,,,,,return,1.59376002605,2018_Sep_10_1303,59.6137566511,verb_norming_L2-eng_oral_translation,001,802,
GRASP,Arm,arm,0,20,20,19,0,0,0,0,6,5.745,,,2018_Sep_10_1303,59.6137566511,verb_norming_L2-eng_oral_translation,001,802,
GRASP,Leg,leg,0,20,20,19,0,1,1,1,1,6.285,,,2018_Sep_10_1303,59.6137566511,verb_norming_L2-eng_oral_translation,001,802,
GRASP,,,0,20,20,19,,,,,,,return,2.51609619947,2018_Sep_10_1303,59.6137566511,verb_norming_L2-eng_oral_translation,001,802,
LIFT,Arm,arm,0,21,21,25,0,0,0,0,5,3.733,,,2018_Sep_10_1303,59.6137566511,verb_norming_L2-eng_oral_translation,001,802,
LIFT,Leg,leg,0,21,21,25,0,1,1,1,1,2.243,,,2018_Sep_10_1303,59.6137566511,verb_norming_L2-eng_oral_translation,001,802,
LIFT,,,0,21,21,25,,,,,,,return,1.45951334462,2018_Sep_10_1303,59.6137566511,verb_norming_L2-eng_oral_translation,001,802,
JOG,Arm,arm,0,22,22,73,0,0,0,0,2,6.515,,,2018_Sep_10_1303,59.6137566511,verb_norming_L2-eng_oral_translation,001,802,
JOG,Leg,leg,0,22,22,73,0,1,1,1,7,1.941,,,2018_Sep_10_1303,59.6137566511,verb_norming_L2-eng_oral_translation,001,802,
JOG,,,0,22,22,73,,,,,,,return,1.52666592385,2018_Sep_10_1303,59.6137566511,verb_norming_L2-eng_oral_translation,001,802,
FILE,Arm,arm,0,23,23,15,0,0,0,0,5,6.232,,,2018_Sep_10_1303,59.6137566511,verb_norming_L2-eng_oral_translation,001,802,
FILE,Leg,leg,0,23,23,15,0,1,1,1,1,1.237,,,2018_Sep_10_1303,59.6137566511,verb_norming_L2-eng_oral_translation,001,802,
FILE,,,0,23,23,15,,,,,,,return,2.71723744996,2018_Sep_10_1303,59.6137566511,verb_norming_L2-eng_oral_translation,001,802,
CREEP,Arm,arm,0,24,24,61,0,0,0,0,3,6.886,,,2018_Sep_10_1303,59.6137566511,verb_norming_L2-eng_oral_translation,001,802,
CREEP,Leg,leg,0,24,24,61,0,1,1,1,4,2.191,,,2018_Sep_10_1303,59.6137566511,verb_norming_L2-eng_oral_translation,001,802,
CREEP,,,0,24,24,61,,,,,,,return,2.01299415072,2018_Sep_10_1303,59.6137566511,verb_norming_L2-eng_oral_translation,001,802,
CLEAN,Arm,arm,0,25,25,9,0,0,0,0,5,4.216,,,2018_Sep_10_1303,59.6137566511,verb_norming_L2-eng_oral_translation,001,802,
CLEAN,Leg,leg,0,25,25,9,0,1,1,1,1,3.199,,,2018_Sep_10_1303,59.6137566511,verb_norming_L2-eng_oral_translation,001,802,
CLEAN,,,0,25,25,9,,,,,,,return,1.50978028439,2018_Sep_10_1303,59.6137566511,verb_norming_L2-eng_oral_translation,001,802,
SKIP,Arm,arm,0,26,26,93,0,0,0,0,1,11.23,,,2018_Sep_10_1303,59.6137566511,verb_norming_L2-eng_oral_translation,001,802,
SKIP,Leg,leg,0,26,26,93,0,1,1,1,6,7.66,,,2018_Sep_10_1303,59.6137566511,verb_norming_L2-eng_oral_translation,001,802,
SKIP,,,0,26,26,93,,,,,,,return,2.71733504339,2018_Sep_10_1303,59.6137566511,verb_norming_L2-eng_oral_translation,001,802,
PUNCH,Arm,arm,0,27,27,34,0,0,0,0,7,3.632,,,2018_Sep_10_1303,59.6137566511,verb_norming_L2-eng_oral_translation,001,802,
PUNCH,Leg,leg,0,27,27,34,0,1,1,1,1,5.647,,,2018_Sep_10_1303,59.6137566511,verb_norming_L2-eng_oral_translation,001,802,
PUNCH,,,0,27,27,34,,,,,,,return,1.10731603045,2018_Sep_10_1303,59.6137566511,verb_norming_L2-eng_oral_translation,001,802,
BIND,Arm,arm,0,28,28,1,0,0,0,0,6,4.203,,,2018_Sep_10_1303,59.6137566511,verb_norming_L2-eng_oral_translation,001,802,
BIND,Leg,leg,0,28,28,1,0,1,1,1,1,1.824,,,2018_Sep_10_1303,59.6137566511,verb_norming_L2-eng_oral_translation,001,802,
BIND,,,0,28,28,1,,,,,,,return,1.61035169986,2018_Sep_10_1303,59.6137566511,verb_norming_L2-eng_oral_translation,001,802,
CATCH,Arm,arm,0,29,29,5,0,0,0,0,7,3.682,,,2018_Sep_10_1303,59.6137566511,verb_norming_L2-eng_oral_translation,001,802,
CATCH,Leg,leg,0,29,29,5,0,1,1,1,1,3.432,,,2018_Sep_10_1303,59.6137566511,verb_norming_L2-eng_oral_translation,001,802,
CATCH,,,0,29,29,5,,,,,,,return,1.49290807884,2018_Sep_10_1303,59.6137566511,verb_norming_L2-eng_oral_translation,001,802,
TRAMP,Arm,arm,0,30,30,116,0,0,0,0,1,9.702,,,2018_Sep_10_1303,59.6137566511,verb_norming_L2-eng_oral_translation,001,802,
TRAMP,Leg,leg,0,30,30,116,0,1,1,1,6,7.155,,,2018_Sep_10_1303,59.6137566511,verb_norming_L2-eng_oral_translation,001,802,
TRAMP,,,0,30,30,116,,,,,,,return,1.811731995,2018_Sep_10_1303,59.6137566511,verb_norming_L2-eng_oral_translation,001,802,
WALK,Arm,arm,0,31,31,125,0,0,0,0,1,3.33,,,2018_Sep_10_1303,59.6137566511,verb_norming_L2-eng_oral_translation,001,802,
WALK,Leg,leg,0,31,31,125,0,1,1,1,7,1.657,,,2018_Sep_10_1303,59.6137566511,verb_norming_L2-eng_oral_translation,001,802,
WALK,,,0,31,31,125,,,,,,,return,1.45939164916,2018_Sep_10_1303,59.6137566511,verb_norming_L2-eng_oral_translation,001,802,
DIG,Arm,arm,0,32,32,13,0,0,0,0,6,3.18,,,2018_Sep_10_1303,59.6137566511,verb_norming_L2-eng_oral_translation,001,802,
DIG,Leg,leg,0,32,32,13,0,1,1,1,1,1.64,,,2018_Sep_10_1303,59.6137566511,verb_norming_L2-eng_oral_translation,001,802,
DIG,,,0,32,32,13,,,,,,,return,1.52656595973,2018_Sep_10_1303,59.6137566511,verb_norming_L2-eng_oral_translation,001,802,
RUSH,Arm,arm,0,33,33,89,0,0,0,0,1,4.572,,,2018_Sep_10_1303,59.6137566511,verb_norming_L2-eng_oral_translation,001,802,
RUSH,Leg,leg,0,33,33,89,0,1,1,1,6,3.115,,,2018_Sep_10_1303,59.6137566511,verb_norming_L2-eng_oral_translation,001,802,
RUSH,,,0,33,33,89,,,,,,,return,2.29802505662,2018_Sep_10_1303,59.6137566511,verb_norming_L2-eng_oral_translation,001,802,
PAT,Arm,arm,0,34,34,27,0,0,0,0,7,6.954,,,2018_Sep_10_1303,59.6137566511,verb_norming_L2-eng_oral_translation,001,802,
PAT,Leg,leg,0,34,34,27,0,1,1,1,1,1.538,,,2018_Sep_10_1303,59.6137566511,verb_norming_L2-eng_oral_translation,001,802,
PAT,,,0,34,34,27,,,,,,,return,1.71095195874,2018_Sep_10_1303,59.6137566511,verb_norming_L2-eng_oral_translation,001,802,
LUMBER,Arm,arm,0,35,35,79,0,0,0,0,1,9.567,,,2018_Sep_10_1303,59.6137566511,verb_norming_L2-eng_oral_translation,001,802,
LUMBER,Leg,leg,0,35,35,79,0,1,1,1,5,2.71,,,2018_Sep_10_1303,59.6137566511,verb_norming_L2-eng_oral_translation,001,802,
LUMBER,,,0,35,35,79,,,,,,,return,4.19313819388,2018_Sep_10_1303,59.6137566511,verb_norming_L2-eng_oral_translation,001,802,
CARVE,Arm,arm,0,36,36,4,0,0,0,0,6,3.984,,,2018_Sep_10_1303,59.6137566511,verb_norming_L2-eng_oral_translation,001,802,
CARVE,Leg,leg,0,36,36,4,0,1,1,1,1,3.434,,,2018_Sep_10_1303,59.6137566511,verb_norming_L2-eng_oral_translation,001,802,
CARVE,,,0,36,36,4,,,,,,,return,1.62732742557,2018_Sep_10_1303,59.6137566511,verb_norming_L2-eng_oral_translation,001,802,
STIR,Arm,arm,0,37,37,50,0,0,0,0,6,6.248,,,2018_Sep_10_1303,59.6137566511,verb_norming_L2-eng_oral_translation,001,802,
STIR,Leg,leg,0,37,37,50,0,1,1,1,1,3.25,,,2018_Sep_10_1303,59.6137566511,verb_norming_L2-eng_oral_translation,001,802,
STIR,,,0,37,37,50,,,,,,,return,2.19746351902,2018_Sep_10_1303,59.6137566511,verb_norming_L2-eng_oral_translation,001,802,
BOUNCE,Arm,arm,0,38,38,60,0,0,0,0,1,3.43,,,2018_Sep_10_1303,59.6137566511,verb_norming_L2-eng_oral_translation,001,802,
BOUNCE,Leg,leg,0,38,38,60,0,1,1,1,6,1.05,,,2018_Sep_10_1303,59.6137566511,verb_norming_L2-eng_oral_translation,001,802,
BOUNCE,,,0,38,38,60,,,,,,,return,1.67734899886,2018_Sep_10_1303,59.6137566511,verb_norming_L2-eng_oral_translation,001,802,
STAGGER,Arm,arm,0,39,39,100,0,0,0,0,1,6.902,,,2018_Sep_10_1303,59.6137566511,verb_norming_L2-eng_oral_translation,001,802,
STAGGER,Leg,leg,0,39,39,100,0,1,1,1,6,7.122,,,2018_Sep_10_1303,59.6137566511,verb_norming_L2-eng_oral_translation,001,802,
STAGGER,,,0,39,39,100,,,,,,,return,2.0465133462,2018_Sep_10_1303,59.6137566511,verb_norming_L2-eng_oral_translation,001,802,
RUB,Arm,arm,0,40,40,37,0,0,0,0,6,5.612,,,2018_Sep_10_1303,59.6137566511,verb_norming_L2-eng_oral_translation,001,802,
RUB,Leg,leg,0,40,40,37,0,1,1,1,1,5.564,,,2018_Sep_10_1303,59.6137566511,verb_norming_L2-eng_oral_translation,001,802,
RUB,,,0,40,40,37,,,,,,,return,2.66696142254,2018_Sep_10_1303,59.6137566511,verb_norming_L2-eng_oral_translation,001,802,
TOSS,Arm,arm,0,41,41,53,0,0,0,0,7,4.018,,,2018_Sep_10_1303,59.6137566511,verb_norming_L2-eng_oral_translation,001,802,
TOSS,Leg,leg,0,41,41,53,0,1,1,1,1,1.321,,,2018_Sep_10_1303,59.6137566511,verb_norming_L2-eng_oral_translation,001,802,
TOSS,,,0,41,41,53,,,,,,,return,1.77814286414,2018_Sep_10_1303,59.6137566511,verb_norming_L2-eng_oral_translation,001,802,
ROW,Arm,arm,0,42,42,36,0,0,0,0,6,3.767,,,2018_Sep_10_1303,59.6137566511,verb_norming_L2-eng_oral_translation,001,802,
ROW,Leg,leg,0,42,42,36,0,1,1,1,2,3.099,,,2018_Sep_10_1303,59.6137566511,verb_norming_L2-eng_oral_translation,001,802,
ROW,,,0,42,42,36,,,,,,,return,2.04644459617,2018_Sep_10_1303,59.6137566511,verb_norming_L2-eng_oral_translation,001,802,
NIP,Arm,arm,0,43,43,26,0,0,0,0,5,7.507,,,2018_Sep_10_1303,59.6137566511,verb_norming_L2-eng_oral_translation,001,802,
NIP,Leg,leg,0,43,43,26,0,1,1,1,1,3.182,,,2018_Sep_10_1303,59.6137566511,verb_norming_L2-eng_oral_translation,001,802,
NIP,,,0,43,43,26,,,,,,,return,1.49284762623,2018_Sep_10_1303,59.6137566511,verb_norming_L2-eng_oral_translation,001,802,
HOP,Arm,arm,0,44,44,71,0,0,0,0,1,2.525,,,2018_Sep_10_1303,59.6137566511,verb_norming_L2-eng_oral_translation,001,802,
HOP,Leg,leg,0,44,44,71,0,1,1,1,7,1.037,,,2018_Sep_10_1303,59.6137566511,verb_norming_L2-eng_oral_translation,001,802,
HOP,,,0,44,44,71,,,,,,,return,1.57523307841,2018_Sep_10_1303,59.6137566511,verb_norming_L2-eng_oral_translation,001,802,
TRUDGE,Arm,arm,0,45,45,122,0,0,0,0,1,22.766,,,2018_Sep_10_1303,59.6137566511,verb_norming_L2-eng_oral_translation,001,802,
TRUDGE,Leg,leg,0,45,45,122,0,1,1,1,1,1.354,,,2018_Sep_10_1303,59.6137566511,verb_norming_L2-eng_oral_translation,001,802,
TRUDGE,,,0,45,45,122,,,,,,,return,1.44276362475,2018_Sep_10_1303,59.6137566511,verb_norming_L2-eng_oral_translation,001,802,
SQUAT,Arm,arm,0,46,46,99,0,0,0,0,1,5.507,,,2018_Sep_10_1303,59.6137566511,verb_norming_L2-eng_oral_translation,001,802,
SQUAT,Leg,leg,0,46,46,99,0,1,1,1,6,2.023,,,2018_Sep_10_1303,59.6137566511,verb_norming_L2-eng_oral_translation,001,802,
SQUAT,,,0,46,46,99,,,,,,,return,1.79495698777,2018_Sep_10_1303,59.6137566511,verb_norming_L2-eng_oral_translation,001,802,
CLAW,Arm,arm,0,47,47,8,0,0,0,0,6,8.513,,,2018_Sep_10_1303,59.6137566511,verb_norming_L2-eng_oral_translation,001,802,
CLAW,Leg,leg,0,47,47,8,0,1,1,1,1,2.191,,,2018_Sep_10_1303,59.6137566511,verb_norming_L2-eng_oral_translation,001,802,
CLAW,,,0,47,47,8,,,,,,,return,3.1031210933,2018_Sep_10_1303,59.6137566511,verb_norming_L2-eng_oral_translation,001,802,
GRAB,Arm,arm,0,48,48,18,0,0,0,0,7,4.924,,,2018_Sep_10_1303,59.6137566511,verb_norming_L2-eng_oral_translation,001,802,
GRAB,Leg,leg,0,48,48,18,0,1,1,1,1,1.371,,,2018_Sep_10_1303,59.6137566511,verb_norming_L2-eng_oral_translation,001,802,
GRAB,,,0,48,48,18,,,,,,,return,1.89543871211,2018_Sep_10_1303,59.6137566511,verb_norming_L2-eng_oral_translation,001,802,
CYCLE,Arm,arm,0,49,49,63,0,0,0,0,2,6.735,,,2018_Sep_10_1303,59.6137566511,verb_norming_L2-eng_oral_translation,001,802,
CYCLE,Leg,leg,0,49,49,63,0,1,1,1,6,1.455,,,2018_Sep_10_1303,59.6137566511,verb_norming_L2-eng_oral_translation,001,802,
CYCLE,,,0,49,49,63,,,,,,,return,1.8452176057,2018_Sep_10_1303,59.6137566511,verb_norming_L2-eng_oral_translation,001,802,
SAUNTER,Arm,arm,0,50,50,90,0,0,0,0,1,6.146,,,2018_Sep_10_1303,59.6137566511,verb_norming_L2-eng_oral_translation,001,802,
SAUNTER,Leg,leg,0,50,50,90,0,1,1,1,5,1.219,,,2018_Sep_10_1303,59.6137566511,verb_norming_L2-eng_oral_translation,001,802,
SAUNTER,,,0,50,50,90,,,,,,,return,1.81169643464,2018_Sep_10_1303,59.6137566511,verb_norming_L2-eng_oral_translation,001,802,
PRANCE,Arm,arm,0,51,51,85,0,0,0,0,1,5.611,,,2018_Sep_10_1303,59.6137566511,verb_norming_L2-eng_oral_translation,001,802,
PRANCE,Leg,leg,0,51,51,85,0,1,1,1,4,1.705,,,2018_Sep_10_1303,59.6137566511,verb_norming_L2-eng_oral_translation,001,802,
PRANCE,,,0,51,51,85,,,,,,,return,1.47628677139,2018_Sep_10_1303,59.6137566511,verb_norming_L2-eng_oral_translation,001,802,
HACK,Arm,arm,0,52,52,22,0,0,0,0,6,3.867,,,2018_Sep_10_1303,59.6137566511,verb_norming_L2-eng_oral_translation,001,802,
HACK,Leg,leg,0,52,52,22,0,1,1,1,1,2.88,,,2018_Sep_10_1303,59.6137566511,verb_norming_L2-eng_oral_translation,001,802,
HACK,,,0,52,52,22,,,,,,,return,1.94586053701,2018_Sep_10_1303,59.6137566511,verb_norming_L2-eng_oral_translation,001,802,
GRIP,Arm,arm,0,53,53,21,0,0,0,0,6,4.89,,,2018_Sep_10_1303,59.6137566511,verb_norming_L2-eng_oral_translation,001,802,
GRIP,Leg,leg,0,53,53,21,0,1,1,1,1,4.491,,,2018_Sep_10_1303,59.6137566511,verb_norming_L2-eng_oral_translation,001,802,
GRIP,,,0,53,53,21,,,,,,,return,1.6608217288,2018_Sep_10_1303,59.6137566511,verb_norming_L2-eng_oral_translation,001,802,
POLISH,Arm,arm,0,54,54,32,0,0,0,0,6,4.403,,,2018_Sep_10_1303,59.6137566511,verb_norming_L2-eng_oral_translation,001,802,
POLISH,Leg,leg,0,54,54,32,0,1,1,1,1,2.846,,,2018_Sep_10_1303,59.6137566511,verb_norming_L2-eng_oral_translation,001,802,
POLISH,,,0,54,54,32,,,,,,,return,1.52663866091,2018_Sep_10_1303,59.6137566511,verb_norming_L2-eng_oral_translation,001,802,
INCH,Arm,arm,0,55,55,72,0,0,0,0,5,9.033,,,2018_Sep_10_1303,59.6137566511,verb_norming_L2-eng_oral_translation,001,802,
INCH,Leg,leg,0,55,55,72,0,1,1,1,1,1.572,,,2018_Sep_10_1303,59.6137566511,verb_norming_L2-eng_oral_translation,001,802,
INCH,,,0,55,55,72,,,,,,,return,3.20361071995,2018_Sep_10_1303,59.6137566511,verb_norming_L2-eng_oral_translation,001,802,
GLIDE,Arm,arm,0,56,56,67,0,0,0,0,2,4.554,,,2018_Sep_10_1303,59.6137566511,verb_norming_L2-eng_oral_translation,001,802,
GLIDE,Leg,leg,0,56,56,67,0,1,1,1,6,1.958,,,2018_Sep_10_1303,59.6137566511,verb_norming_L2-eng_oral_translation,001,802,
GLIDE,,,0,56,56,67,,,,,,,return,1.47610541355,2018_Sep_10_1303,59.6137566511,verb_norming_L2-eng_oral_translation,001,802,
WHIP,Arm,arm,0,57,57,57,0,0,0,0,4,3.834,,,2018_Sep_10_1303,59.6137566511,verb_norming_L2-eng_oral_translation,001,802,
WHIP,Leg,leg,0,57,57,57,0,1,1,1,1,4.323,,,2018_Sep_10_1303,59.6137566511,verb_norming_L2-eng_oral_translation,001,802,
WHIP,,,0,57,57,57,,,,,,,return,1.76138405663,2018_Sep_10_1303,59.6137566511,verb_norming_L2-eng_oral_translation,001,802,
JUMP,Arm,arm,0,58,58,74,0,0,0,0,1,3.195,,,2018_Sep_10_1303,59.6137566511,verb_norming_L2-eng_oral_translation,001,802,
JUMP,Leg,leg,0,58,58,74,0,1,1,1,7,1.117,,,2018_Sep_10_1303,59.6137566511,verb_norming_L2-eng_oral_translation,001,802,
JUMP,,,0,58,58,74,,,,,,,return,1.79486650641,2018_Sep_10_1303,59.6137566511,verb_norming_L2-eng_oral_translation,001,802,
WADDLE,Arm,arm,0,59,59,123,0,0,0,0,1,5.577,,,2018_Sep_10_1303,59.6137566511,verb_norming_L2-eng_oral_translation,001,802,
WADDLE,Leg,leg,0,59,59,123,0,1,1,1,5,1.303,,,2018_Sep_10_1303,59.6137566511,verb_norming_L2-eng_oral_translation,001,802,
WADDLE,,,0,59,59,123,,,,,,,return,1.17441013265,2018_Sep_10_1303,59.6137566511,verb_norming_L2-eng_oral_translation,001,802,
FOLD,Arm,arm,0,60,60,16,0,0,0,0,6,2.66,,,2018_Sep_10_1303,59.6137566511,verb_norming_L2-eng_oral_translation,001,802,
FOLD,Leg,leg,0,60,60,16,0,1,1,1,1,1.068,,,2018_Sep_10_1303,59.6137566511,verb_norming_L2-eng_oral_translation,001,802,
FOLD,,,0,60,60,16,,,,,,,return,1.20911704416,2018_Sep_10_1303,59.6137566511,verb_norming_L2-eng_oral_translation,001,802,
KICK,Arm,arm,0,61,61,75,0,0,0,0,1,2.744,,,2018_Sep_10_1303,59.6137566511,verb_norming_L2-eng_oral_translation,001,802,
KICK,Leg,leg,0,61,61,75,0,1,1,1,7,0.75,,,2018_Sep_10_1303,59.6137566511,verb_norming_L2-eng_oral_translation,001,802,
KICK,,,0,61,61,75,,,,,,,return,1.49298631163,2018_Sep_10_1303,59.6137566511,verb_norming_L2-eng_oral_translation,001,802,
STAB,Arm,arm,0,62,62,49,0,0,0,0,7,4.991,,,2018_Sep_10_1303,59.6137566511,verb_norming_L2-eng_oral_translation,001,802,
STAB,Leg,leg,0,62,62,49,0,1,1,1,1,1.74,,,2018_Sep_10_1303,59.6137566511,verb_norming_L2-eng_oral_translation,001,802,
STAB,,,0,62,62,49,,,,,,,return,1.54341208768,2018_Sep_10_1303,59.6137566511,verb_norming_L2-eng_oral_translation,001,802,
SWITCH,Arm,arm,0,63,63,51,0,0,0,0,4,5.996,,,2018_Sep_10_1303,59.6137566511,verb_norming_L2-eng_oral_translation,001,802,
SWITCH,Leg,leg,0,63,63,51,0,1,1,1,1,1.974,,,2018_Sep_10_1303,59.6137566511,verb_norming_L2-eng_oral_translation,001,802,
SWITCH,,,0,63,63,51,,,,,,,return,1.69521294334,2018_Sep_10_1303,59.6137566511,verb_norming_L2-eng_oral_translation,001,802,
TIPTOE,Arm,arm,0,64,64,112,0,0,0,0,1,5.023,,,2018_Sep_10_1303,59.6137566511,verb_norming_L2-eng_oral_translation,001,802,
TIPTOE,Leg,leg,0,64,64,112,0,1,1,1,7,2.124,,,2018_Sep_10_1303,59.6137566511,verb_norming_L2-eng_oral_translation,001,802,
TIPTOE,,,0,64,64,112,,,,,,,return,1.44274347388,2018_Sep_10_1303,59.6137566511,verb_norming_L2-eng_oral_translation,001,802,
CROUCH,Arm,arm,0,65,65,62,0,0,0,0,1,7.723,,,2018_Sep_10_1303,59.6137566511,verb_norming_L2-eng_oral_translation,001,802,
CROUCH,Leg,leg,0,65,65,62,0,1,1,1,5,1.269,,,2018_Sep_10_1303,59.6137566511,verb_norming_L2-eng_oral_translation,001,802,
CROUCH,,,0,65,65,62,,,,,,,return,2.38175152949,2018_Sep_10_1303,59.6137566511,verb_norming_L2-eng_oral_translation,001,802,
SQUEEZE,Arm,arm,0,66,66,48,0,0,0,0,4,8.473,,,2018_Sep_10_1303,59.6137566511,verb_norming_L2-eng_oral_translation,001,802,
SQUEEZE,Leg,leg,0,66,66,48,0,1,1,1,1,2.088,,,2018_Sep_10_1303,59.6137566511,verb_norming_L2-eng_oral_translation,001,802,
SQUEEZE,,,0,66,66,48,,,,,,,return,1.45954179291,2018_Sep_10_1303,59.6137566511,verb_norming_L2-eng_oral_translation,001,802,
PEDAL,Arm,arm,0,67,67,83,0,0,0,0,1,9.015,,,2018_Sep_10_1303,59.6137566511,verb_norming_L2-eng_oral_translation,001,802,
PEDAL,Leg,leg,0,67,67,83,0,1,1,1,5,4.977,,,2018_Sep_10_1303,59.6137566511,verb_norming_L2-eng_oral_translation,001,802,
PEDAL,,,0,67,67,83,,,,,,,return,1.67756512682,2018_Sep_10_1303,59.6137566511,verb_norming_L2-eng_oral_translation,001,802,
HIKE,Arm,arm,0,68,68,69,0,0,0,0,2,6.802,,,2018_Sep_10_1303,59.6137566511,verb_norming_L2-eng_oral_translation,001,802,
HIKE,Leg,leg,0,68,68,69,0,1,1,1,6,3.384,,,2018_Sep_10_1303,59.6137566511,verb_norming_L2-eng_oral_translation,001,802,
HIKE,,,0,68,68,69,,,,,,,return,1.96257153559,2018_Sep_10_1303,59.6137566511,verb_norming_L2-eng_oral_translation,001,802,
WASH,Arm,arm,0,69,69,56,0,0,0,0,6,4.32,,,2018_Sep_10_1303,59.6137566511,verb_norming_L2-eng_oral_translation,001,802,
WASH,Leg,leg,0,69,69,56,0,1,1,1,1,1.304,,,2018_Sep_10_1303,59.6137566511,verb_norming_L2-eng_oral_translation,001,802,
WASH,,,0,69,69,56,,,,,,,return,1.74465172183,2018_Sep_10_1303,59.6137566511,verb_norming_L2-eng_oral_translation,001,802,
TREK,Arm,arm,0,70,70,119,0,0,0,0,2,5.914,,,2018_Sep_10_1303,59.6137566511,verb_norming_L2-eng_oral_translation,001,802,
TREK,Leg,leg,0,70,70,119,0,1,1,1,6,2.41,,,2018_Sep_10_1303,59.6137566511,verb_norming_L2-eng_oral_translation,001,802,
TREK,,,0,70,70,119,,,,,,,return,2.29809222619,2018_Sep_10_1303,59.6137566511,verb_norming_L2-eng_oral_translation,001,802,
MARCH,Arm,arm,0,71,71,80,0,0,0,0,1,4.503,,,2018_Sep_10_1303,59.6137566511,verb_norming_L2-eng_oral_translation,001,802,
MARCH,Leg,leg,0,71,71,80,0,1,1,1,6,1.704,,,2018_Sep_10_1303,59.6137566511,verb_norming_L2-eng_oral_translation,001,802,
MARCH,,,0,71,71,80,,,,,,,return,1.61172512,2018_Sep_10_1303,59.6137566511,verb_norming_L2-eng_oral_translation,001,802,
POKE,Arm,arm,0,72,72,31,0,0,0,0,6,2.626,,,2018_Sep_10_1303,59.6137566511,verb_norming_L2-eng_oral_translation,001,802,
POKE,Leg,leg,0,72,72,31,0,1,1,1,1,2.612,,,2018_Sep_10_1303,59.6137566511,verb_norming_L2-eng_oral_translation,001,802,
POKE,,,0,72,72,31,,,,,,,return,1.45950149116,2018_Sep_10_1303,59.6137566511,verb_norming_L2-eng_oral_translation,001,802,
SIGN,Arm,arm,0,73,73,44,0,0,0,0,6,3.884,,,2018_Sep_10_1303,59.6137566511,verb_norming_L2-eng_oral_translation,001,802,
SIGN,Leg,leg,0,73,73,44,0,1,1,1,1,1.136,,,2018_Sep_10_1303,59.6137566511,verb_norming_L2-eng_oral_translation,001,802,
SIGN,,,0,73,73,44,,,,,,,return,1.39250142637,2018_Sep_10_1303,59.6137566511,verb_norming_L2-eng_oral_translation,001,802,
SLAP,Arm,arm,0,74,74,46,0,0,0,0,1,20.974,,,2018_Sep_10_1303,59.6137566511,verb_norming_L2-eng_oral_translation,001,802,
SLAP,Leg,leg,0,74,74,46,0,1,1,1,1,3.199,,,2018_Sep_10_1303,59.6137566511,verb_norming_L2-eng_oral_translation,001,802,
SLAP,,,0,74,74,46,,,,,,,return,16.4194601305,2018_Sep_10_1303,59.6137566511,verb_norming_L2-eng_oral_translation,001,802,
PLUCK,Arm,arm,0,75,75,30,0,0,0,0,5,4.77,,,2018_Sep_10_1303,59.6137566511,verb_norming_L2-eng_oral_translation,001,802,
PLUCK,Leg,leg,0,75,75,30,0,1,1,1,1,4.457,,,2018_Sep_10_1303,59.6137566511,verb_norming_L2-eng_oral_translation,001,802,
PLUCK,,,0,75,75,30,,,,,,,return,2.4155275498,2018_Sep_10_1303,59.6137566511,verb_norming_L2-eng_oral_translation,001,802,
PULL,Arm,arm,0,76,76,33,0,0,0,0,6,3.297,,,2018_Sep_10_1303,59.6137566511,verb_norming_L2-eng_oral_translation,001,802,
PULL,Leg,leg,0,76,76,33,0,1,1,1,1,10.376,,,2018_Sep_10_1303,59.6137566511,verb_norming_L2-eng_oral_translation,001,802,
PULL,,,0,76,76,33,,,,,,,return,1.04013342247,2018_Sep_10_1303,59.6137566511,verb_norming_L2-eng_oral_translation,001,802,
TREAD,Arm,arm,0,77,77,118,0,0,0,0,1,30.801,,,2018_Sep_10_1303,59.6137566511,verb_norming_L2-eng_oral_translation,001,802,
TREAD,Leg,leg,0,77,77,118,0,1,1,1,6,2.93,,,2018_Sep_10_1303,59.6137566511,verb_norming_L2-eng_oral_translation,001,802,
TREAD,,,0,77,77,118,,,,,,,return,2.60005144399,2018_Sep_10_1303,59.6137566511,verb_norming_L2-eng_oral_translation,001,802,
SLITHER,Arm,arm,0,78,78,96,0,0,0,0,6,7.991,,,2018_Sep_10_1303,59.6137566511,verb_norming_L2-eng_oral_translation,001,802,
SLITHER,Leg,leg,0,78,78,96,0,1,1,1,1,3.818,,,2018_Sep_10_1303,59.6137566511,verb_norming_L2-eng_oral_translation,001,802,
SLITHER,,,0,78,78,96,,,,,,,return,1.30854815742,2018_Sep_10_1303,59.6137566511,verb_norming_L2-eng_oral_translation,001,802,
TROT,Arm,arm,0,79,79,121,0,0,0,0,1,6.953,,,2018_Sep_10_1303,59.6137566511,verb_norming_L2-eng_oral_translation,001,802,
TROT,Leg,leg,0,79,79,121,0,1,1,1,4,1.791,,,2018_Sep_10_1303,59.6137566511,verb_norming_L2-eng_oral_translation,001,802,
TROT,,,0,79,79,121,,,,,,,return,1.8285322896,2018_Sep_10_1303,59.6137566511,verb_norming_L2-eng_oral_translation,001,802,
BRUSH,Arm,arm,0,80,80,3,0,0,0,0,6,4.386,,,2018_Sep_10_1303,59.6137566511,verb_norming_L2-eng_oral_translation,001,802,
BRUSH,Leg,leg,0,80,80,3,0,1,1,1,1,1.32,,,2018_Sep_10_1303,59.6137566511,verb_norming_L2-eng_oral_translation,001,802,
BRUSH,,,0,80,80,3,,,,,,,return,1.76117464562,2018_Sep_10_1303,59.6137566511,verb_norming_L2-eng_oral_translation,001,802,
TRAIPSE,Arm,arm,0,81,81,115,0,0,0,0,1,4.989,,,2018_Sep_10_1303,59.6137566511,verb_norming_L2-eng_oral_translation,001,802,
TRAIPSE,Leg,leg,0,81,81,115,0,1,1,1,1,1.269,,,2018_Sep_10_1303,59.6137566511,verb_norming_L2-eng_oral_translation,001,802,
TRAIPSE,,,0,81,81,115,,,,,,,return,1.56019223141,2018_Sep_10_1303,59.6137566511,verb_norming_L2-eng_oral_translation,001,802,
SHAMBLE,Arm,arm,0,82,82,91,0,0,0,0,1,6.112,,,2018_Sep_10_1303,59.6137566511,verb_norming_L2-eng_oral_translation,001,802,
SHAMBLE,Leg,leg,0,82,82,91,0,1,1,1,4,0.865,,,2018_Sep_10_1303,59.6137566511,verb_norming_L2-eng_oral_translation,001,802,
SHAMBLE,,,0,82,82,91,,,,,,,return,2.08007165808,2018_Sep_10_1303,59.6137566511,verb_norming_L2-eng_oral_translation,001,802,
SNATCH,Arm,arm,0,83,83,47,0,0,0,0,5,7.136,,,2018_Sep_10_1303,59.6137566511,verb_norming_L2-eng_oral_translation,001,802,
SNATCH,Leg,leg,0,83,83,47,0,1,1,1,1,1.454,,,2018_Sep_10_1303,59.6137566511,verb_norming_L2-eng_oral_translation,001,802,
SNATCH,,,0,83,83,47,,,,,,,return,2.6510801657,2018_Sep_10_1303,59.6137566511,verb_norming_L2-eng_oral_translation,001,802,
KNEEL,Arm,arm,0,84,84,76,0,0,0,0,1,5.039,,,2018_Sep_10_1303,59.6137566511,verb_norming_L2-eng_oral_translation,001,802,
KNEEL,Leg,leg,0,84,84,76,0,1,1,1,7,1.572,,,2018_Sep_10_1303,59.6137566511,verb_norming_L2-eng_oral_translation,001,802,
KNEEL,,,0,84,84,76,,,,,,,return,1.52644821542,2018_Sep_10_1303,59.6137566511,verb_norming_L2-eng_oral_translation,001,802,
ROAM,Arm,arm,0,85,85,87,0,0,0,0,1,10.49,,,2018_Sep_10_1303,59.6137566511,verb_norming_L2-eng_oral_translation,001,802,
ROAM,Leg,leg,0,85,85,87,0,1,1,1,5,10.006,,,2018_Sep_10_1303,59.6137566511,verb_norming_L2-eng_oral_translation,001,802,
ROAM,,,0,85,85,87,,,,,,,return,12.2266534382,2018_Sep_10_1303,59.6137566511,verb_norming_L2-eng_oral_translation,001,802,
PUSH,Arm,arm,0,86,86,35,0,0,0,0,6,4.588,,,2018_Sep_10_1303,59.6137566511,verb_norming_L2-eng_oral_translation,001,802,
PUSH,Leg,leg,0,86,86,35,0,1,1,1,1,2.511,,,2018_Sep_10_1303,59.6137566511,verb_norming_L2-eng_oral_translation,001,802,
PUSH,,,0,86,86,35,,,,,,,return,2.28121172322,2018_Sep_10_1303,59.6137566511,verb_norming_L2-eng_oral_translation,001,802,
THROW,Arm,arm,0,87,87,52,0,0,0,0,7,3.162,,,2018_Sep_10_1303,59.6137566511,verb_norming_L2-eng_oral_translation,001,802,
THROW,Leg,leg,0,87,87,52,0,1,1,1,1,1.035,,,2018_Sep_10_1303,59.6137566511,verb_norming_L2-eng_oral_translation,001,802,
THROW,,,0,87,87,52,,,,,,,return,1.44264311464,2018_Sep_10_1303,59.6137566511,verb_norming_L2-eng_oral_translation,001,802,
STUMBLE,Arm,arm,0,88,88,110,0,0,0,0,1,4.266,,,2018_Sep_10_1303,59.6137566511,verb_norming_L2-eng_oral_translation,001,802,
STUMBLE,Leg,leg,0,88,88,110,0,1,1,1,6,0.881,,,2018_Sep_10_1303,59.6137566511,verb_norming_L2-eng_oral_translation,001,802,
STUMBLE,,,0,88,88,110,,,,,,,return,1.37552056416,2018_Sep_10_1303,59.6137566511,verb_norming_L2-eng_oral_translation,001,802,
GRATE,Arm,arm,0,89,89,20,0,0,0,0,5,6.014,,,2018_Sep_10_1303,59.6137566511,verb_norming_L2-eng_oral_translation,001,802,
GRATE,Leg,leg,0,89,89,20,0,1,1,1,1,1.253,,,2018_Sep_10_1303,59.6137566511,verb_norming_L2-eng_oral_translation,001,802,
GRATE,,,0,89,89,20,,,,,,,return,1.24150344461,2018_Sep_10_1303,59.6137566511,verb_norming_L2-eng_oral_translation,001,802,
GESTURE,Arm,arm,0,90,90,17,0,0,0,0,5,5.777,,,2018_Sep_10_1303,59.6137566511,verb_norming_L2-eng_oral_translation,001,802,
GESTURE,Leg,leg,0,90,90,17,0,1,1,1,1,2.074,,,2018_Sep_10_1303,59.6137566511,verb_norming_L2-eng_oral_translation,001,802,
GESTURE,,,0,90,90,17,,,,,,,return,1.7109428711,2018_Sep_10_1303,59.6137566511,verb_norming_L2-eng_oral_translation,001,802,
SKIM,Arm,arm,0,91,91,45,0,0,0,0,4,8.378,,,2018_Sep_10_1303,59.6137566511,verb_norming_L2-eng_oral_translation,001,802,
SKIM,Leg,leg,0,91,91,45,0,1,1,1,1,0.967,,,2018_Sep_10_1303,59.6137566511,verb_norming_L2-eng_oral_translation,001,802,
SKIM,,,0,91,91,45,,,,,,,return,1.77817447335,2018_Sep_10_1303,59.6137566511,verb_norming_L2-eng_oral_translation,001,802,
LIMP,Arm,arm,0,92,92,78,0,0,0,0,1,5.559,,,2018_Sep_10_1303,59.6137566511,verb_norming_L2-eng_oral_translation,001,802,
LIMP,Leg,leg,0,92,92,78,0,1,1,1,6,0.833,,,2018_Sep_10_1303,59.6137566511,verb_norming_L2-eng_oral_translation,001,802,
LIMP,,,0,92,92,78,,,,,,,return,1.47467272615,2018_Sep_10_1303,59.6137566511,verb_norming_L2-eng_oral_translation,001,802,
WIPE,Arm,arm,0,93,93,58,0,0,0,0,6,4.069,,,2018_Sep_10_1303,59.6137566511,verb_norming_L2-eng_oral_translation,001,802,
WIPE,Leg,leg,0,93,93,58,0,1,1,1,1,1.018,,,2018_Sep_10_1303,59.6137566511,verb_norming_L2-eng_oral_translation,001,802,
WIPE,,,0,93,93,58,,,,,,,return,1.79482936559,2018_Sep_10_1303,59.6137566511,verb_norming_L2-eng_oral_translation,001,802,
CLUTCH,Arm,arm,0,94,94,11,0,0,0,0,5,5.56,,,2018_Sep_10_1303,59.6137566511,verb_norming_L2-eng_oral_translation,001,802,
CLUTCH,Leg,leg,0,94,94,11,0,1,1,1,1,3.047,,,2018_Sep_10_1303,59.6137566511,verb_norming_L2-eng_oral_translation,001,802,
CLUTCH,,,0,94,94,11,,,,,,,return,1.40925430715,2018_Sep_10_1303,59.6137566511,verb_norming_L2-eng_oral_translation,001,802,
DASH,Arm,arm,0,95,95,65,0,0,0,0,4,12.823,,,2018_Sep_10_1303,59.6137566511,verb_norming_L2-eng_oral_translation,001,802,
DASH,Leg,leg,0,95,95,65,0,1,1,1,1,1.186,,,2018_Sep_10_1303,59.6137566511,verb_norming_L2-eng_oral_translation,001,802,
DASH,,,0,95,95,65,,,,,,,return,2.31456418013,2018_Sep_10_1303,59.6137566511,verb_norming_L2-eng_oral_translation,001,802,
SCRAPE,Arm,arm,0,96,96,39,0,0,0,0,5,2.927,,,2018_Sep_10_1303,59.6137566511,verb_norming_L2-eng_oral_translation,001,802,
SCRAPE,Leg,leg,0,96,96,39,0,1,1,1,1,1.236,,,2018_Sep_10_1303,59.6137566511,verb_norming_L2-eng_oral_translation,001,802,
SCRAPE,,,0,96,96,39,,,,,,,return,1.77803341726,2018_Sep_10_1303,59.6137566511,verb_norming_L2-eng_oral_translation,001,802,
STEP,Arm,arm,0,97,97,103,0,0,0,0,1,4.303,,,2018_Sep_10_1303,59.6137566511,verb_norming_L2-eng_oral_translation,001,802,
STEP,Leg,leg,0,97,97,103,0,1,1,1,6,5.463,,,2018_Sep_10_1303,59.6137566511,verb_norming_L2-eng_oral_translation,001,802,
STEP,,,0,97,97,103,,,,,,,return,3.30435519584,2018_Sep_10_1303,59.6137566511,verb_norming_L2-eng_oral_translation,001,802,
HOBBLE,Arm,arm,0,98,98,70,0,0,0,0,1,5.527,,,2018_Sep_10_1303,59.6137566511,verb_norming_L2-eng_oral_translation,001,802,
HOBBLE,Leg,leg,0,98,98,70,0,1,1,1,4,1.035,,,2018_Sep_10_1303,59.6137566511,verb_norming_L2-eng_oral_translation,001,802,
HOBBLE,,,0,98,98,70,,,,,,,return,1.72776055076,2018_Sep_10_1303,59.6137566511,verb_norming_L2-eng_oral_translation,001,802,
RUN,Arm,arm,0,99,99,88,0,0,0,0,1,4.287,,,2018_Sep_10_1303,59.6137566511,verb_norming_L2-eng_oral_translation,001,802,
RUN,Leg,leg,0,99,99,88,0,1,1,1,7,0.768,,,2018_Sep_10_1303,59.6137566511,verb_norming_L2-eng_oral_translation,001,802,
RUN,,,0,99,99,88,,,,,,,return,1.34189389737,2018_Sep_10_1303,59.6137566511,verb_norming_L2-eng_oral_translation,001,802,
PEEL,Arm,arm,0,100,100,28,0,0,0,0,6,3.28,,,2018_Sep_10_1303,59.6137566511,verb_norming_L2-eng_oral_translation,001,802,
PEEL,Leg,leg,0,100,100,28,0,1,1,1,1,1.287,,,2018_Sep_10_1303,59.6137566511,verb_norming_L2-eng_oral_translation,001,802,
PEEL,,,0,100,100,28,,,,,,,return,1.52660626147,2018_Sep_10_1303,59.6137566511,verb_norming_L2-eng_oral_translation,001,802,
TRAMPLE,Arm,arm,0,101,101,117,0,0,0,0,1,5.273,,,2018_Sep_10_1303,59.6137566511,verb_norming_L2-eng_oral_translation,001,802,
TRAMPLE,Leg,leg,0,101,101,117,0,1,1,1,7,1.704,,,2018_Sep_10_1303,59.6137566511,verb_norming_L2-eng_oral_translation,001,802,
TRAMPLE,,,0,101,101,117,,,,,,,return,1.49307718811,2018_Sep_10_1303,59.6137566511,verb_norming_L2-eng_oral_translation,001,802,
STRUT,Arm,arm,0,102,102,109,0,0,0,0,1,7.103,,,2018_Sep_10_1303,59.6137566511,verb_norming_L2-eng_oral_translation,001,802,
STRUT,Leg,leg,0,102,102,109,0,1,1,1,6,6.033,,,2018_Sep_10_1303,59.6137566511,verb_norming_L2-eng_oral_translation,001,802,
STRUT,,,0,102,102,109,,,,,,,return,4.00857952956,2018_Sep_10_1303,59.6137566511,verb_norming_L2-eng_oral_translation,001,802,
PACE,Arm,arm,0,103,103,82,0,0,0,0,1,9.987,,,2018_Sep_10_1303,59.6137566511,verb_norming_L2-eng_oral_translation,001,802,
PACE,Leg,leg,0,103,103,82,0,1,1,1,6,2.427,,,2018_Sep_10_1303,59.6137566511,verb_norming_L2-eng_oral_translation,001,802,
PACE,,,0,103,103,82,,,,,,,return,1.45931776264,2018_Sep_10_1303,59.6137566511,verb_norming_L2-eng_oral_translation,001,802,
HUG,Arm,arm,0,104,104,23,0,0,0,0,7,4.404,,,2018_Sep_10_1303,59.6137566511,verb_norming_L2-eng_oral_translation,001,802,
HUG,Leg,leg,0,104,104,23,0,1,1,1,1,1.422,,,2018_Sep_10_1303,59.6137566511,verb_norming_L2-eng_oral_translation,001,802,
HUG,,,0,104,104,23,,,,,,,return,1.62711880479,2018_Sep_10_1303,59.6137566511,verb_norming_L2-eng_oral_translation,001,802,
PINCH,Arm,arm,0,105,105,29,0,0,0,0,6,6.566,,,2018_Sep_10_1303,59.6137566511,verb_norming_L2-eng_oral_translation,001,802,
PINCH,Leg,leg,0,105,105,29,0,1,1,1,1,1.354,,,2018_Sep_10_1303,59.6137566511,verb_norming_L2-eng_oral_translation,001,802,
PINCH,,,0,105,105,29,,,,,,,return,1.4930874611,2018_Sep_10_1303,59.6137566511,verb_norming_L2-eng_oral_translation,001,802,
TRIP,Arm,arm,0,106,106,120,0,0,0,0,1,4.505,,,2018_Sep_10_1303,59.6137566511,verb_norming_L2-eng_oral_translation,001,802,
TRIP,Leg,leg,0,106,106,120,0,1,1,1,6,0.868,,,2018_Sep_10_1303,59.6137566511,verb_norming_L2-eng_oral_translation,001,802,
TRIP,,,0,106,106,120,,,,,,,return,1.32527021923,2018_Sep_10_1303,59.6137566511,verb_norming_L2-eng_oral_translation,001,802,
SWAY,Arm,arm,0,107,107,111,0,0,0,0,1,3.616,,,2018_Sep_10_1303,59.6137566511,verb_norming_L2-eng_oral_translation,001,802,
SWAY,Leg,leg,0,107,107,111,0,1,1,1,5,1.035,,,2018_Sep_10_1303,59.6137566511,verb_norming_L2-eng_oral_translation,001,802,
SWAY,,,0,107,107,111,,,,,,,return,1.32538914887,2018_Sep_10_1303,59.6137566511,verb_norming_L2-eng_oral_translation,001,802,
STOMP,Arm,arm,0,108,108,104,0,0,0,0,1,2.691,,,2018_Sep_10_1303,59.6137566511,verb_norming_L2-eng_oral_translation,001,802,
STOMP,Leg,leg,0,108,108,104,0,1,1,1,6,1.034,,,2018_Sep_10_1303,59.6137566511,verb_norming_L2-eng_oral_translation,001,802,
STOMP,,,0,108,108,104,,,,,,,return,1.34183146918,2018_Sep_10_1303,59.6137566511,verb_norming_L2-eng_oral_translation,001,802,
CLAP,Arm,arm,0,109,109,7,0,0,0,0,7,2.408,,,2018_Sep_10_1303,59.6137566511,verb_norming_L2-eng_oral_translation,001,802,
CLAP,Leg,leg,0,109,109,7,0,1,1,1,1,1.237,,,2018_Sep_10_1303,59.6137566511,verb_norming_L2-eng_oral_translation,001,802,
CLAP,,,0,109,109,7,,,,,,,return,0.771926122958,2018_Sep_10_1303,59.6137566511,verb_norming_L2-eng_oral_translation,001,802,
SEIZE,Arm,arm,0,110,110,42,0,0,0,0,6,5.475,,,2018_Sep_10_1303,59.6137566511,verb_norming_L2-eng_oral_translation,001,802,
SEIZE,Leg,leg,0,110,110,42,0,1,1,1,1,2.594,,,2018_Sep_10_1303,59.6137566511,verb_norming_L2-eng_oral_translation,001,802,
SEIZE,,,0,110,110,42,,,,,,,return,1.42573850966,2018_Sep_10_1303,59.6137566511,verb_norming_L2-eng_oral_translation,001,802,
SLIP,Arm,arm,0,111,111,95,0,0,0,0,1,5.176,,,2018_Sep_10_1303,59.6137566511,verb_norming_L2-eng_oral_translation,001,802,
SLIP,Leg,leg,0,111,111,95,0,1,1,1,6,3.535,,,2018_Sep_10_1303,59.6137566511,verb_norming_L2-eng_oral_translation,001,802,
SLIP,,,0,111,111,95,,,,,,,return,1.17439985966,2018_Sep_10_1303,59.6137566511,verb_norming_L2-eng_oral_translation,001,802,
SPRINT,Arm,arm,0,112,112,98,0,0,0,0,1,6.047,,,2018_Sep_10_1303,59.6137566511,verb_norming_L2-eng_oral_translation,001,802,
SPRINT,Leg,leg,0,112,112,98,0,1,1,1,7,3.181,,,2018_Sep_10_1303,59.6137566511,verb_norming_L2-eng_oral_translation,001,802,
SPRINT,,,0,112,112,98,,,,,,,return,1.5263431148,2018_Sep_10_1303,59.6137566511,verb_norming_L2-eng_oral_translation,001,802,
KNOCK,Arm,arm,0,113,113,24,0,0,0,0,7,4.135,,,2018_Sep_10_1303,59.6137566511,verb_norming_L2-eng_oral_translation,001,802,
KNOCK,Leg,leg,0,113,113,24,0,1,1,1,1,1.287,,,2018_Sep_10_1303,59.6137566511,verb_norming_L2-eng_oral_translation,001,802,
KNOCK,,,0,113,113,24,,,,,,,return,1.62711011226,2018_Sep_10_1303,59.6137566511,verb_norming_L2-eng_oral_translation,001,802,
TWINE,Arm,arm,0,114,114,55,0,0,0,0,4,6.08,,,2018_Sep_10_1303,59.6137566511,verb_norming_L2-eng_oral_translation,001,802,
TWINE,Leg,leg,0,114,114,55,0,1,1,1,1,1.454,,,2018_Sep_10_1303,59.6137566511,verb_norming_L2-eng_oral_translation,001,802,
TWINE,,,0,114,114,55,,,,,,,return,1.61054530627,2018_Sep_10_1303,59.6137566511,verb_norming_L2-eng_oral_translation,001,802,
SCRATCH,Arm,arm,0,115,115,40,0,0,0,0,6,7.538,,,2018_Sep_10_1303,59.6137566511,verb_norming_L2-eng_oral_translation,001,802,
SCRATCH,Leg,leg,0,115,115,40,0,1,1,1,1,3.13,,,2018_Sep_10_1303,59.6137566511,verb_norming_L2-eng_oral_translation,001,802,
SCRATCH,,,0,115,115,40,,,,,,,return,1.30839682833,2018_Sep_10_1303,59.6137566511,verb_norming_L2-eng_oral_translation,001,802,
STRAY,Arm,arm,0,116,116,106,0,0,0,0,1,7.909,,,2018_Sep_10_1303,59.6137566511,verb_norming_L2-eng_oral_translation,001,802,
STRAY,Leg,leg,0,116,116,106,0,1,1,1,6,3.802,,,2018_Sep_10_1303,59.6137566511,verb_norming_L2-eng_oral_translation,001,802,
STRAY,,,0,116,116,106,,,,,,,return,11.8913085738,2018_Sep_10_1303,59.6137566511,verb_norming_L2-eng_oral_translation,001,802,
SCOOP,Arm,arm,0,117,117,38,0,0,0,0,6,4.487,,,2018_Sep_10_1303,59.6137566511,verb_norming_L2-eng_oral_translation,001,802,
SCOOP,Leg,leg,0,117,117,38,0,1,1,1,1,1.421,,,2018_Sep_10_1303,59.6137566511,verb_norming_L2-eng_oral_translation,001,802,
SCOOP,,,0,117,117,38,,,,,,,return,2.13020979032,2018_Sep_10_1303,59.6137566511,verb_norming_L2-eng_oral_translation,001,802,
SLIDE,Arm,arm,0,118,118,94,0,0,0,0,1,5.141,,,2018_Sep_10_1303,59.6137566511,verb_norming_L2-eng_oral_translation,001,802,
SLIDE,Leg,leg,0,118,118,94,0,1,1,1,5,0.884,,,2018_Sep_10_1303,59.6137566511,verb_norming_L2-eng_oral_translation,001,802,
SLIDE,,,0,118,118,94,,,,,,,return,1.99612945235,2018_Sep_10_1303,59.6137566511,verb_norming_L2-eng_oral_translation,001,802,
SHAKE,Arm,arm,0,119,119,43,0,0,0,0,6,2.76,,,2018_Sep_10_1303,59.6137566511,verb_norming_L2-eng_oral_translation,001,802,
SHAKE,Leg,leg,0,119,119,43,0,1,1,1,1,1.555,,,2018_Sep_10_1303,59.6137566511,verb_norming_L2-eng_oral_translation,001,802,
SHAKE,,,0,119,119,43,,,,,,,return,1.79471359686,2018_Sep_10_1303,59.6137566511,verb_norming_L2-eng_oral_translation,001,802,
WRAP,Arm,arm,0,120,120,59,0,0,0,0,5,3.983,,,2018_Sep_10_1303,59.6137566511,verb_norming_L2-eng_oral_translation,001,802,
WRAP,Leg,leg,0,120,120,59,0,1,1,1,1,1.338,,,2018_Sep_10_1303,59.6137566511,verb_norming_L2-eng_oral_translation,001,802,
WRAP,,,0,120,120,59,,,,,,,return,2.11353514233,2018_Sep_10_1303,59.6137566511,verb_norming_L2-eng_oral_translation,001,802,
TODDLE,Arm,arm,0,121,121,113,0,0,0,0,1,5.778,,,2018_Sep_10_1303,59.6137566511,verb_norming_L2-eng_oral_translation,001,802,
TODDLE,Leg,leg,0,121,121,113,0,1,1,1,1,1.503,,,2018_Sep_10_1303,59.6137566511,verb_norming_L2-eng_oral_translation,001,802,
TODDLE,,,0,121,121,113,,,,,,,return,0.838949499546,2018_Sep_10_1303,59.6137566511,verb_norming_L2-eng_oral_translation,001,802,
STAMP,Arm,arm,0,122,122,101,0,0,0,0,1,25.835,,,2018_Sep_10_1303,59.6137566511,verb_norming_L2-eng_oral_translation,001,802,
STAMP,Leg,leg,0,122,122,101,0,1,1,1,5,1.402,,,2018_Sep_10_1303,59.6137566511,verb_norming_L2-eng_oral_translation,001,802,
STAMP,,,0,122,122,101,,,,,,,return,2.09671193105,2018_Sep_10_1303,59.6137566511,verb_norming_L2-eng_oral_translation,001,802,
DUNK,Arm,arm,0,123,123,14,0,0,0,0,6,6.248,,,2018_Sep_10_1303,59.6137566511,verb_norming_L2-eng_oral_translation,001,802,
DUNK,Leg,leg,0,123,123,14,0,1,1,1,1,3.266,,,2018_Sep_10_1303,59.6137566511,verb_norming_L2-eng_oral_translation,001,802,
DUNK,,,0,123,123,14,,,,,,,return,1.62723694421,2018_Sep_10_1303,59.6137566511,verb_norming_L2-eng_oral_translation,001,802,
CUT,Arm,arm,0,124,124,12,0,0,0,0,6,2.475,,,2018_Sep_10_1303,59.6137566511,verb_norming_L2-eng_oral_translation,001,802,
CUT,Leg,leg,0,124,124,12,0,1,1,1,1,1.489,,,2018_Sep_10_1303,59.6137566511,verb_norming_L2-eng_oral_translation,001,802,
CUT,,,0,124,124,12,,,,,,,return,1.49305782747,2018_Sep_10_1303,59.6137566511,verb_norming_L2-eng_oral_translation,001,802,
DANCE,Arm,arm,0,125,125,64,0,0,0,0,3,4.722,,,2018_Sep_10_1303,59.6137566511,verb_norming_L2-eng_oral_translation,001,802,
DANCE,Leg,leg,0,125,125,64,0,1,1,1,6,1.219,,,2018_Sep_10_1303,59.6137566511,verb_norming_L2-eng_oral_translation,001,802,
DANCE,,,0,125,125,64,,,,,,,return,1.45953428572,2018_Sep_10_1303,59.6137566511,verb_norming_L2-eng_oral_translation,001,802,
WOBBLE,Arm,arm,0,126,126,127,0,0,0,0,1,4.872,,,2018_Sep_10_1303,59.6137566511,verb_norming_L2-eng_oral_translation,001,802,
WOBBLE,Leg,leg,0,126,126,127,0,1,1,1,6,3.383,,,2018_Sep_10_1303,59.6137566511,verb_norming_L2-eng_oral_translation,001,802,
WOBBLE,,,0,126,126,127,,,,,,,return,1.81153404233,2018_Sep_10_1303,59.6137566511,verb_norming_L2-eng_oral_translation,001,802,
STAND,Arm,arm,0,127,127,102,0,0,0,0,2,2.944,,,2018_Sep_10_1303,59.6137566511,verb_norming_L2-eng_oral_translation,001,802,
STAND,Leg,leg,0,127,127,102,0,1,1,1,7,1.069,,,2018_Sep_10_1303,59.6137566511,verb_norming_L2-eng_oral_translation,001,802,
STAND,,,0,127,127,102,,,,,,,return,1.42597913476,2018_Sep_10_1303,59.6137566511,verb_norming_L2-eng_oral_translation,001,802,
