item_number_,item,correct_ans,trials.thisRepN,trials.thisTrialN,trials.thisN,trials.thisIndex,key_resp_8.keys,key_resp_8.corr,key_resp_8.rt,date,frameRate,expName,session,participant,
0,platery,n,0,0,0,0,n,1,16.9725327827,2018_Sep_10_1457,59.6249920492,lextale,001,803,
0,denial,y,0,1,1,1,y,1,20.5450308743,2018_Sep_10_1457,59.6249920492,lextale,001,803,
0,generic,y,0,2,2,2,n,0,9.67724626893,2018_Sep_10_1457,59.6249920492,lextale,001,803,
1,mensible,n,0,3,3,3,n,1,5.35033869267,2018_Sep_10_1457,59.6249920492,lextale,001,803,
2,scornful,y,0,4,4,4,n,0,3.47189901806,2018_Sep_10_1457,59.6249920492,lextale,001,803,
3,stoutly,y,0,5,5,5,y,1,3.0358883057,2018_Sep_10_1457,59.6249920492,lextale,001,803,
4,ablaze,y,0,6,6,6,y,1,2.91843638726,2018_Sep_10_1457,59.6249920492,lextale,001,803,
5,kermshaw,n,0,7,7,7,n,1,3.77377881772,2018_Sep_10_1457,59.6249920492,lextale,001,803,
6,moonlit,y,0,8,8,8,y,1,3.17011957764,2018_Sep_10_1457,59.6249920492,lextale,001,803,
7,lofty,y,0,9,9,9,y,1,1.61035802171,2018_Sep_10_1457,59.6249920492,lextale,001,803,
8,hurricane,y,0,10,10,10,y,1,1.17431135387,2018_Sep_10_1457,59.6249920492,lextale,001,803,
9,flaw,y,0,11,11,11,y,1,1.00656049133,2018_Sep_10_1457,59.6249920492,lextale,001,803,
10,alberation,n,0,12,12,12,y,0,1.94582655711,2018_Sep_10_1457,59.6249920492,lextale,001,803,
11,unkempt,y,0,13,13,13,y,1,1.61028650587,2018_Sep_10_1457,59.6249920492,lextale,001,803,
12,breeding,y,0,14,14,14,y,1,0.889210512591,2018_Sep_10_1457,59.6249920492,lextale,001,803,
13,festivity,y,0,15,15,15,y,1,7.74804892157,2018_Sep_10_1457,59.6249920492,lextale,001,803,
14,screech,y,0,16,16,16,y,1,0.905990261203,2018_Sep_10_1457,59.6249920492,lextale,001,803,
15,savoury,y,0,17,17,17,n,0,8.10090252194,2018_Sep_10_1457,59.6249920492,lextale,001,803,
16,plaudate,n,0,18,18,18,n,1,2.0798918807,2018_Sep_10_1457,59.6249920492,lextale,001,803,
17,shin,y,0,19,19,19,y,1,2.65018206904,2018_Sep_10_1457,59.6249920492,lextale,001,803,
18,fluid,y,0,20,20,20,y,1,0.805132782385,2018_Sep_10_1457,59.6249920492,lextale,001,803,
19,spaunch,n,0,21,21,21,y,0,1.71086661388,2018_Sep_10_1457,59.6249920492,lextale,001,803,
20,allied,y,0,22,22,22,y,1,1.35880087305,2018_Sep_10_1457,59.6249920492,lextale,001,803,
21,slain,y,0,23,23,23,n,0,3.67325797698,2018_Sep_10_1457,59.6249920492,lextale,001,803,
22,recipient,y,0,24,24,24,y,1,3.84101002486,2018_Sep_10_1457,59.6249920492,lextale,001,803,
23,exprate,n,0,25,25,25,n,1,5.31672704026,2018_Sep_10_1457,59.6249920492,lextale,001,803,
24,eloquence,y,0,26,26,26,y,1,3.94143643309,2018_Sep_10_1457,59.6249920492,lextale,001,803,
25,cleanliness,y,0,27,27,27,n,0,3.55583095079,2018_Sep_10_1457,59.6249920492,lextale,001,803,
26,dispatch,y,0,28,28,28,y,1,1.77810611844,2018_Sep_10_1457,59.6249920492,lextale,001,803,
27,rebondicate,n,0,29,29,29,y,0,5.33363085501,2018_Sep_10_1457,59.6249920492,lextale,001,803,
28,ingenious,y,0,30,30,30,n,0,6.7423161964,2018_Sep_10_1457,59.6249920492,lextale,001,803,
29,bewitch,y,0,31,31,31,y,1,1.96256521375,2018_Sep_10_1457,59.6249920492,lextale,001,803,
30,skave,n,0,32,32,32,y,0,1.24139913422,2018_Sep_10_1457,59.6249920492,lextale,001,803,
31,plaintively,y,0,33,33,33,y,1,1.76129001923,2018_Sep_10_1457,59.6249920492,lextale,001,803,
32,kilp,n,0,34,34,34,n,1,1.99610693079,2018_Sep_10_1457,59.6249920492,lextale,001,803,
33,interfate,n,0,35,35,35,y,0,4.76339598279,2018_Sep_10_1457,59.6249920492,lextale,001,803,
34,hasty,y,0,36,36,36,y,1,1.15755570728,2018_Sep_10_1457,59.6249920492,lextale,001,803,
35,lengthy,y,0,37,37,37,n,0,5.70252889477,2018_Sep_10_1457,59.6249920492,lextale,001,803,
36,fray,y,0,38,38,38,y,1,1.20785623183,2018_Sep_10_1457,59.6249920492,lextale,001,803,
37,crumper,n,0,39,39,39,y,0,0.939292143374,2018_Sep_10_1457,59.6249920492,lextale,001,803,
38,upkeep,y,0,40,40,40,y,1,1.24138135404,2018_Sep_10_1457,59.6249920492,lextale,001,803,
39,majestic,y,0,41,41,41,y,1,1.37541151239,2018_Sep_10_1457,59.6249920492,lextale,001,803,
40,magrity,n,0,42,42,42,n,1,2.23043073869,2018_Sep_10_1457,59.6249920492,lextale,001,803,
41,nourishment,y,0,43,43,43,y,1,1.66063128332,2018_Sep_10_1457,59.6249920492,lextale,001,803,
42,abergy,n,0,44,44,44,n,1,2.95343647418,2018_Sep_10_1457,59.6249920492,lextale,001,803,
43,proom,n,0,45,45,45,y,0,1.34200373937,2018_Sep_10_1457,59.6249920492,lextale,001,803,
44,turmoil,y,0,46,46,46,n,0,5.50138764428,2018_Sep_10_1457,59.6249920492,lextale,001,803,
45,carbohydrate,y,0,47,47,47,y,1,1.34207881124,2018_Sep_10_1457,59.6249920492,lextale,001,803,
46,scholar,y,0,48,48,48,y,1,1.91225402109,2018_Sep_10_1457,59.6249920492,lextale,001,803,
47,turtle,y,0,49,49,49,y,1,0.80537735864,2018_Sep_10_1457,59.6249920492,lextale,001,803,
48,fellick,n,0,50,50,50,y,0,1.79482383398,2018_Sep_10_1457,59.6249920492,lextale,001,803,
49,destription,n,0,51,51,51,n,1,5.31675785923,2018_Sep_10_1457,59.6249920492,lextale,001,803,
50,cylinder,y,0,52,52,52,y,1,0.755041273726,2018_Sep_10_1457,59.6249920492,lextale,001,803,
51,censorship,y,0,53,53,53,y,1,2.13031528605,2018_Sep_10_1457,59.6249920492,lextale,001,803,
52,celestial,y,0,54,54,54,y,1,1.44267116782,2018_Sep_10_1457,59.6249920492,lextale,001,803,
53,rascal,y,0,55,55,55,y,1,1.59361936507,2018_Sep_10_1457,59.6249920492,lextale,001,803,
54,purrage,n,0,56,56,56,y,0,0.721421323889,2018_Sep_10_1457,59.6249920492,lextale,001,803,
55,pulsh,n,0,57,57,57,n,1,2.71768195446,2018_Sep_10_1457,59.6249920492,lextale,001,803,
56,muddy,y,0,58,58,58,y,1,0.755038507919,2018_Sep_10_1457,59.6249920492,lextale,001,803,
57,quirty,n,0,59,59,59,y,0,1.6942263409,2018_Sep_10_1457,59.6249920492,lextale,001,803,
58,pudour,n,0,60,60,60,n,1,1.79484319462,2018_Sep_10_1457,59.6249920492,lextale,001,803,
59,listless,y,0,61,61,61,n,0,2.28122081087,2018_Sep_10_1457,59.6249920492,lextale,001,803,
60,wrought,y,0,62,62,62,y,1,1.37536251812,2018_Sep_10_1457,59.6249920492,lextale,001,803,
