word,category,category_lowercase,trials.thisRepN,trials.thisTrialN,trials.thisN,trials.thisIndex,armleg_loop.thisRepN,armleg_loop.thisTrialN,armleg_loop.thisN,armleg_loop.thisIndex,rating.response,rating.rt,key_resp_8.keys,key_resp_8.rt,date,frameRate,expName,session,participant,
PETA,Ben/fötter,ben/fötter,0,0,0,50,0,0,0,0,2,27.557,,,2018_Sep_10_1352,59.6362316826,verb_norming_L1-swe_no_translation,001,803,
PETA,Armar/händer,armar/händer,0,0,0,50,0,1,1,1,7,6.476,,,2018_Sep_10_1352,59.6362316826,verb_norming_L1-swe_no_translation,001,803,
PETA,,,0,0,0,50,,,,,,,,,2018_Sep_10_1352,59.6362316826,verb_norming_L1-swe_no_translation,001,803,
NORPA,Ben/fötter,ben/fötter,0,1,1,46,0,0,0,0,1,6.693,,,2018_Sep_10_1352,59.6362316826,verb_norming_L1-swe_no_translation,001,803,
NORPA,Armar/händer,armar/händer,0,1,1,46,0,1,1,1,7,3.91,,,2018_Sep_10_1352,59.6362316826,verb_norming_L1-swe_no_translation,001,803,
NORPA,,,0,1,1,46,,,,,,,,,2018_Sep_10_1352,59.6362316826,verb_norming_L1-swe_no_translation,001,803,
STEGA,Ben/fötter,ben/fötter,0,2,2,150,0,0,0,0,7,13.786,,,2018_Sep_10_1352,59.6362316826,verb_norming_L1-swe_no_translation,001,803,
STEGA,Armar/händer,armar/händer,0,2,2,150,0,1,1,1,1,6.409,,,2018_Sep_10_1352,59.6362316826,verb_norming_L1-swe_no_translation,001,803,
STEGA,,,0,2,2,150,,,,,,,,,2018_Sep_10_1352,59.6362316826,verb_norming_L1-swe_no_translation,001,803,
FLÄTA,Ben/fötter,ben/fötter,0,3,3,11,0,0,0,0,1,12.042,,,2018_Sep_10_1352,59.6362316826,verb_norming_L1-swe_no_translation,001,803,
FLÄTA,Armar/händer,armar/händer,0,3,3,11,0,1,1,1,7,2.719,,,2018_Sep_10_1352,59.6362316826,verb_norming_L1-swe_no_translation,001,803,
FLÄTA,,,0,3,3,11,,,,,,,,,2018_Sep_10_1352,59.6362316826,verb_norming_L1-swe_no_translation,001,803,
STUDSA,Ben/fötter,ben/fötter,0,4,4,155,0,0,0,0,4,18.666,,,2018_Sep_10_1352,59.6362316826,verb_norming_L1-swe_no_translation,001,803,
STUDSA,Armar/händer,armar/händer,0,4,4,155,0,1,1,1,7,6.14,,,2018_Sep_10_1352,59.6362316826,verb_norming_L1-swe_no_translation,001,803,
STUDSA,,,0,4,4,155,,,,,,,,,2018_Sep_10_1352,59.6362316826,verb_norming_L1-swe_no_translation,001,803,
SKAKA,Ben/fötter,ben/fötter,0,5,5,69,0,0,0,0,4,12.295,,,2018_Sep_10_1352,59.6362316826,verb_norming_L1-swe_no_translation,001,803,
SKAKA,Armar/händer,armar/händer,0,5,5,69,0,1,1,1,6,4.278,,,2018_Sep_10_1352,59.6362316826,verb_norming_L1-swe_no_translation,001,803,
SKAKA,,,0,5,5,69,,,,,,,,,2018_Sep_10_1352,59.6362316826,verb_norming_L1-swe_no_translation,001,803,
KLÄTTRA,Ben/fötter,ben/fötter,0,6,6,116,0,0,0,0,3,9.978,,,2018_Sep_10_1352,59.6362316826,verb_norming_L1-swe_no_translation,001,803,
KLÄTTRA,Armar/händer,armar/händer,0,6,6,116,0,1,1,1,6,8.253,,,2018_Sep_10_1352,59.6362316826,verb_norming_L1-swe_no_translation,001,803,
KLÄTTRA,,,0,6,6,116,,,,,,,,,2018_Sep_10_1352,59.6362316826,verb_norming_L1-swe_no_translation,001,803,
FLANERA,Ben/fötter,ben/fötter,0,7,7,104,0,0,0,0,1,21.046,,,2018_Sep_10_1352,59.6362316826,verb_norming_L1-swe_no_translation,001,803,
FLANERA,Armar/händer,armar/händer,0,7,7,104,0,1,1,1,7,5.468,,,2018_Sep_10_1352,59.6362316826,verb_norming_L1-swe_no_translation,001,803,
FLANERA,,,0,7,7,104,,,,,,,,,2018_Sep_10_1352,59.6362316826,verb_norming_L1-swe_no_translation,001,803,
SKUTTA,Ben/fötter,ben/fötter,0,8,8,137,0,0,0,0,7,5.15,,,2018_Sep_10_1352,59.6362316826,verb_norming_L1-swe_no_translation,001,803,
SKUTTA,Armar/händer,armar/händer,0,8,8,137,0,1,1,1,1,2.098,,,2018_Sep_10_1352,59.6362316826,verb_norming_L1-swe_no_translation,001,803,
SKUTTA,,,0,8,8,137,,,,,,,,,2018_Sep_10_1352,59.6362316826,verb_norming_L1-swe_no_translation,001,803,
GUPPA,Ben/fötter,ben/fötter,0,9,9,108,0,0,0,0,4,9.93,,,2018_Sep_10_1352,59.6362316826,verb_norming_L1-swe_no_translation,001,803,
GUPPA,Armar/händer,armar/händer,0,9,9,108,0,1,1,1,4,1.663,,,2018_Sep_10_1352,59.6362316826,verb_norming_L1-swe_no_translation,001,803,
GUPPA,,,0,9,9,108,,,,,,,,,2018_Sep_10_1352,59.6362316826,verb_norming_L1-swe_no_translation,001,803,
TRUMMA,Ben/fötter,ben/fötter,0,10,10,94,0,0,0,0,2,7.111,,,2018_Sep_10_1352,59.6362316826,verb_norming_L1-swe_no_translation,001,803,
TRUMMA,Armar/händer,armar/händer,0,10,10,94,0,1,1,1,7,2.031,,,2018_Sep_10_1352,59.6362316826,verb_norming_L1-swe_no_translation,001,803,
TRUMMA,,,0,10,10,94,,,,,,,,,2018_Sep_10_1352,59.6362316826,verb_norming_L1-swe_no_translation,001,803,
KLIVA,Ben/fötter,ben/fötter,0,11,11,117,0,0,0,0,7,4.513,,,2018_Sep_10_1352,59.6362316826,verb_norming_L1-swe_no_translation,001,803,
KLIVA,Armar/händer,armar/händer,0,11,11,117,0,1,1,1,1,1.243,,,2018_Sep_10_1352,59.6362316826,verb_norming_L1-swe_no_translation,001,803,
KLIVA,,,0,11,11,117,,,,,,,,,2018_Sep_10_1352,59.6362316826,verb_norming_L1-swe_no_translation,001,803,
VACKLA,Ben/fötter,ben/fötter,0,12,12,164,0,0,0,0,7,8.754,,,2018_Sep_10_1352,59.6362316826,verb_norming_L1-swe_no_translation,001,803,
VACKLA,Armar/händer,armar/händer,0,12,12,164,0,1,1,1,1,4.261,,,2018_Sep_10_1352,59.6362316826,verb_norming_L1-swe_no_translation,001,803,
VACKLA,,,0,12,12,164,,,,,,,,,2018_Sep_10_1352,59.6362316826,verb_norming_L1-swe_no_translation,001,803,
SKUMMA,Ben/fötter,ben/fötter,0,13,13,76,0,0,0,0,1,6.592,,,2018_Sep_10_1352,59.6362316826,verb_norming_L1-swe_no_translation,001,803,
SKUMMA,Armar/händer,armar/händer,0,13,13,76,0,1,1,1,7,1.578,,,2018_Sep_10_1352,59.6362316826,verb_norming_L1-swe_no_translation,001,803,
SKUMMA,,,0,13,13,76,,,,,,,,,2018_Sep_10_1352,59.6362316826,verb_norming_L1-swe_no_translation,001,803,
TORKA,Ben/fötter,ben/fötter,0,14,14,93,0,0,0,0,2,13.737,,,2018_Sep_10_1352,59.6362316826,verb_norming_L1-swe_no_translation,001,803,
TORKA,Armar/händer,armar/händer,0,14,14,93,0,1,1,1,7,3.424,,,2018_Sep_10_1352,59.6362316826,verb_norming_L1-swe_no_translation,001,803,
TORKA,,,0,14,14,93,,,,,,,,,2018_Sep_10_1352,59.6362316826,verb_norming_L1-swe_no_translation,001,803,
HISSA,Ben/fötter,ben/fötter,0,15,15,23,0,0,0,0,1,4.933,,,2018_Sep_10_1352,59.6362316826,verb_norming_L1-swe_no_translation,001,803,
HISSA,Armar/händer,armar/händer,0,15,15,23,0,1,1,1,7,1.025,,,2018_Sep_10_1352,59.6362316826,verb_norming_L1-swe_no_translation,001,803,
HISSA,,,0,15,15,23,,,,,,,,,2018_Sep_10_1352,59.6362316826,verb_norming_L1-swe_no_translation,001,803,
PUTSA,Ben/fötter,ben/fötter,0,16,16,56,0,0,0,0,1,11.44,,,2018_Sep_10_1352,59.6362316826,verb_norming_L1-swe_no_translation,001,803,
PUTSA,Armar/händer,armar/händer,0,16,16,56,0,1,1,1,7,2.383,,,2018_Sep_10_1352,59.6362316826,verb_norming_L1-swe_no_translation,001,803,
PUTSA,,,0,16,16,56,,,,,,,,,2018_Sep_10_1352,59.6362316826,verb_norming_L1-swe_no_translation,001,803,
SKURA,Ben/fötter,ben/fötter,0,17,17,77,0,0,0,0,3,14.022,,,2018_Sep_10_1352,59.6362316826,verb_norming_L1-swe_no_translation,001,803,
SKURA,Armar/händer,armar/händer,0,17,17,77,0,1,1,1,7,2.853,,,2018_Sep_10_1352,59.6362316826,verb_norming_L1-swe_no_translation,001,803,
SKURA,,,0,17,17,77,,,,,,,,,2018_Sep_10_1352,59.6362316826,verb_norming_L1-swe_no_translation,001,803,
KNOGA,Ben/fötter,ben/fötter,0,18,18,121,0,0,0,0,1,14.023,,,2018_Sep_10_1352,59.6362316826,verb_norming_L1-swe_no_translation,001,803,
KNOGA,Armar/händer,armar/händer,0,18,18,121,0,1,1,1,4,4.547,,,2018_Sep_10_1352,59.6362316826,verb_norming_L1-swe_no_translation,001,803,
KNOGA,,,0,18,18,121,,,,,,,,,2018_Sep_10_1352,59.6362316826,verb_norming_L1-swe_no_translation,001,803,
KRAMA,Ben/fötter,ben/fötter,0,19,19,41,0,0,0,0,1,6.625,,,2018_Sep_10_1352,59.6362316826,verb_norming_L1-swe_no_translation,001,803,
KRAMA,Armar/händer,armar/händer,0,19,19,41,0,1,1,1,7,2.451,,,2018_Sep_10_1352,59.6362316826,verb_norming_L1-swe_no_translation,001,803,
KRAMA,,,0,19,19,41,,,,,,,,,2018_Sep_10_1352,59.6362316826,verb_norming_L1-swe_no_translation,001,803,
KNYCKA,Ben/fötter,ben/fötter,0,20,20,39,0,0,0,0,1,5.917,,,2018_Sep_10_1352,59.6362316826,verb_norming_L1-swe_no_translation,001,803,
KNYCKA,Armar/händer,armar/händer,0,20,20,39,0,1,1,1,7,2.985,,,2018_Sep_10_1352,59.6362316826,verb_norming_L1-swe_no_translation,001,803,
KNYCKA,,,0,20,20,39,,,,,,,,,2018_Sep_10_1352,59.6362316826,verb_norming_L1-swe_no_translation,001,803,
SMEKA,Ben/fötter,ben/fötter,0,21,21,85,0,0,0,0,1,6.777,,,2018_Sep_10_1352,59.6362316826,verb_norming_L1-swe_no_translation,001,803,
SMEKA,Armar/händer,armar/händer,0,21,21,85,0,1,1,1,7,1.159,,,2018_Sep_10_1352,59.6362316826,verb_norming_L1-swe_no_translation,001,803,
SMEKA,,,0,21,21,85,,,,,,,,,2018_Sep_10_1352,59.6362316826,verb_norming_L1-swe_no_translation,001,803,
HALKA,Ben/fötter,ben/fötter,0,22,22,109,0,0,0,0,7,4.631,,,2018_Sep_10_1352,59.6362316826,verb_norming_L1-swe_no_translation,001,803,
HALKA,Armar/händer,armar/händer,0,22,22,109,0,1,1,1,1,1.779,,,2018_Sep_10_1352,59.6362316826,verb_norming_L1-swe_no_translation,001,803,
HALKA,,,0,22,22,109,,,,,,,,,2018_Sep_10_1352,59.6362316826,verb_norming_L1-swe_no_translation,001,803,
PILLA,Ben/fötter,ben/fötter,0,23,23,51,0,0,0,0,1,5.016,,,2018_Sep_10_1352,59.6362316826,verb_norming_L1-swe_no_translation,001,803,
PILLA,Armar/händer,armar/händer,0,23,23,51,0,1,1,1,7,0.706,,,2018_Sep_10_1352,59.6362316826,verb_norming_L1-swe_no_translation,001,803,
PILLA,,,0,23,23,51,,,,,,,,,2018_Sep_10_1352,59.6362316826,verb_norming_L1-swe_no_translation,001,803,
SMYGA,Ben/fötter,ben/fötter,0,24,24,141,0,0,0,0,7,4.712,,,2018_Sep_10_1352,59.6362316826,verb_norming_L1-swe_no_translation,001,803,
SMYGA,Armar/händer,armar/händer,0,24,24,141,0,1,1,1,1,1.845,,,2018_Sep_10_1352,59.6362316826,verb_norming_L1-swe_no_translation,001,803,
SMYGA,,,0,24,24,141,,,,,,,,,2018_Sep_10_1352,59.6362316826,verb_norming_L1-swe_no_translation,001,803,
LUNKA,Ben/fötter,ben/fötter,0,25,25,126,0,0,0,0,7,4.245,,,2018_Sep_10_1352,59.6362316826,verb_norming_L1-swe_no_translation,001,803,
LUNKA,Armar/händer,armar/händer,0,25,25,126,0,1,1,1,1,1.26,,,2018_Sep_10_1352,59.6362316826,verb_norming_L1-swe_no_translation,001,803,
LUNKA,,,0,25,25,126,,,,,,,,,2018_Sep_10_1352,59.6362316826,verb_norming_L1-swe_no_translation,001,803,
TVÄTTA,Ben/fötter,ben/fötter,0,26,26,96,0,0,0,0,1,6.776,,,2018_Sep_10_1352,59.6362316826,verb_norming_L1-swe_no_translation,001,803,
TVÄTTA,Armar/händer,armar/händer,0,26,26,96,0,1,1,1,7,1.327,,,2018_Sep_10_1352,59.6362316826,verb_norming_L1-swe_no_translation,001,803,
TVÄTTA,,,0,26,26,96,,,,,,,,,2018_Sep_10_1352,59.6362316826,verb_norming_L1-swe_no_translation,001,803,
LYFTA,Ben/fötter,ben/fötter,0,27,27,44,0,0,0,0,5,8.972,,,2018_Sep_10_1352,59.6362316826,verb_norming_L1-swe_no_translation,001,803,
LYFTA,Armar/händer,armar/händer,0,27,27,44,0,1,1,1,7,6.155,,,2018_Sep_10_1352,59.6362316826,verb_norming_L1-swe_no_translation,001,803,
LYFTA,,,0,27,27,44,,,,,,,,,2018_Sep_10_1352,59.6362316826,verb_norming_L1-swe_no_translation,001,803,
RULLA,Ben/fötter,ben/fötter,0,28,28,132,0,0,0,0,3,9.025,,,2018_Sep_10_1352,59.6362316826,verb_norming_L1-swe_no_translation,001,803,
RULLA,Armar/händer,armar/händer,0,28,28,132,0,1,1,1,5,8.002,,,2018_Sep_10_1352,59.6362316826,verb_norming_L1-swe_no_translation,001,803,
RULLA,,,0,28,28,132,,,,,,,,,2018_Sep_10_1352,59.6362316826,verb_norming_L1-swe_no_translation,001,803,
SIGNERA,Ben/fötter,ben/fötter,0,29,29,68,0,0,0,0,1,6.992,,,2018_Sep_10_1352,59.6362316826,verb_norming_L1-swe_no_translation,001,803,
SIGNERA,Armar/händer,armar/händer,0,29,29,68,0,1,1,1,7,1.829,,,2018_Sep_10_1352,59.6362316826,verb_norming_L1-swe_no_translation,001,803,
SIGNERA,,,0,29,29,68,,,,,,,,,2018_Sep_10_1352,59.6362316826,verb_norming_L1-swe_no_translation,001,803,
GRABBA,Ben/fötter,ben/fötter,0,30,30,16,0,0,0,0,1,4.208,,,2018_Sep_10_1352,59.6362316826,verb_norming_L1-swe_no_translation,001,803,
GRABBA,Armar/händer,armar/händer,0,30,30,16,0,1,1,1,7,0.773,,,2018_Sep_10_1352,59.6362316826,verb_norming_L1-swe_no_translation,001,803,
GRABBA,,,0,30,30,16,,,,,,,,,2018_Sep_10_1352,59.6362316826,verb_norming_L1-swe_no_translation,001,803,
RYCKA,Ben/fötter,ben/fötter,0,31,31,67,0,0,0,0,1,4.377,,,2018_Sep_10_1352,59.6362316826,verb_norming_L1-swe_no_translation,001,803,
RYCKA,Armar/händer,armar/händer,0,31,31,67,0,1,1,1,7,1.845,,,2018_Sep_10_1352,59.6362316826,verb_norming_L1-swe_no_translation,001,803,
RYCKA,,,0,31,31,67,,,,,,,,,2018_Sep_10_1352,59.6362316826,verb_norming_L1-swe_no_translation,001,803,
JOGGA,Ben/fötter,ben/fötter,0,32,32,114,0,0,0,0,7,7.361,,,2018_Sep_10_1352,59.6362316826,verb_norming_L1-swe_no_translation,001,803,
JOGGA,Armar/händer,armar/händer,0,32,32,114,0,1,1,1,4,2.852,,,2018_Sep_10_1352,59.6362316826,verb_norming_L1-swe_no_translation,001,803,
JOGGA,,,0,32,32,114,,,,,,,,,2018_Sep_10_1352,59.6362316826,verb_norming_L1-swe_no_translation,001,803,
RISTA,Ben/fötter,ben/fötter,0,33,33,62,0,0,0,0,1,9.93,,,2018_Sep_10_1352,59.6362316826,verb_norming_L1-swe_no_translation,001,803,
RISTA,Armar/händer,armar/händer,0,33,33,62,0,1,1,1,7,24.354,,,2018_Sep_10_1352,59.6362316826,verb_norming_L1-swe_no_translation,001,803,
RISTA,,,0,33,33,62,,,,,,,,,2018_Sep_10_1352,59.6362316826,verb_norming_L1-swe_no_translation,001,803,
TA,Ben/fötter,ben/fötter,0,34,34,92,0,0,0,0,1,7.332,,,2018_Sep_10_1352,59.6362316826,verb_norming_L1-swe_no_translation,001,803,
TA,Armar/händer,armar/händer,0,34,34,92,0,1,1,1,7,1.279,,,2018_Sep_10_1352,59.6362316826,verb_norming_L1-swe_no_translation,001,803,
TA,,,0,34,34,92,,,,,,,,,2018_Sep_10_1352,59.6362316826,verb_norming_L1-swe_no_translation,001,803,
STAMPA,Ben/fötter,ben/fötter,0,35,35,148,0,0,0,0,7,4.228,,,2018_Sep_10_1352,59.6362316826,verb_norming_L1-swe_no_translation,001,803,
STAMPA,Armar/händer,armar/händer,0,35,35,148,0,1,1,1,1,1.813,,,2018_Sep_10_1352,59.6362316826,verb_norming_L1-swe_no_translation,001,803,
STAMPA,,,0,35,35,148,,,,,,,,,2018_Sep_10_1352,59.6362316826,verb_norming_L1-swe_no_translation,001,803,
ROTA,Ben/fötter,ben/fötter,0,36,36,66,0,0,0,0,1,5.185,,,2018_Sep_10_1352,59.6362316826,verb_norming_L1-swe_no_translation,001,803,
ROTA,Armar/händer,armar/händer,0,36,36,66,0,1,1,1,7,0.841,,,2018_Sep_10_1352,59.6362316826,verb_norming_L1-swe_no_translation,001,803,
ROTA,,,0,36,36,66,,,,,,,,,2018_Sep_10_1352,59.6362316826,verb_norming_L1-swe_no_translation,001,803,
KNIVHUGGA,Ben/fötter,ben/fötter,0,37,37,38,0,0,0,0,1,9.089,,,2018_Sep_10_1352,59.6362316826,verb_norming_L1-swe_no_translation,001,803,
KNIVHUGGA,Armar/händer,armar/händer,0,37,37,38,0,1,1,1,7,2.08,,,2018_Sep_10_1352,59.6362316826,verb_norming_L1-swe_no_translation,001,803,
KNIVHUGGA,,,0,37,37,38,,,,,,,,,2018_Sep_10_1352,59.6362316826,verb_norming_L1-swe_no_translation,001,803,
GNIDA,Ben/fötter,ben/fötter,0,38,38,14,0,0,0,0,1,4.932,,,2018_Sep_10_1352,59.6362316826,verb_norming_L1-swe_no_translation,001,803,
GNIDA,Armar/händer,armar/händer,0,38,38,14,0,1,1,1,7,1.025,,,2018_Sep_10_1352,59.6362316826,verb_norming_L1-swe_no_translation,001,803,
GNIDA,,,0,38,38,14,,,,,,,,,2018_Sep_10_1352,59.6362316826,verb_norming_L1-swe_no_translation,001,803,
KNALLA,Ben/fötter,ben/fötter,0,39,39,119,0,0,0,0,7,6.273,,,2018_Sep_10_1352,59.6362316826,verb_norming_L1-swe_no_translation,001,803,
KNALLA,Armar/händer,armar/händer,0,39,39,119,0,1,1,1,1,1.427,,,2018_Sep_10_1352,59.6362316826,verb_norming_L1-swe_no_translation,001,803,
KNALLA,,,0,39,39,119,,,,,,,,,2018_Sep_10_1352,59.6362316826,verb_norming_L1-swe_no_translation,001,803,
DASKA,Ben/fötter,ben/fötter,0,40,40,5,0,0,0,0,1,4.765,,,2018_Sep_10_1352,59.6362316826,verb_norming_L1-swe_no_translation,001,803,
DASKA,Armar/händer,armar/händer,0,40,40,5,0,1,1,1,7,0.555,,,2018_Sep_10_1352,59.6362316826,verb_norming_L1-swe_no_translation,001,803,
DASKA,,,0,40,40,5,,,,,,,,,2018_Sep_10_1352,59.6362316826,verb_norming_L1-swe_no_translation,001,803,
HÅVA,Ben/fötter,ben/fötter,0,41,41,22,0,0,0,0,1,4.443,,,2018_Sep_10_1352,59.6362316826,verb_norming_L1-swe_no_translation,001,803,
HÅVA,Armar/händer,armar/händer,0,41,41,22,0,1,1,1,7,0.823,,,2018_Sep_10_1352,59.6362316826,verb_norming_L1-swe_no_translation,001,803,
HÅVA,,,0,41,41,22,,,,,,,,,2018_Sep_10_1352,59.6362316826,verb_norming_L1-swe_no_translation,001,803,
SLÅ,Ben/fötter,ben/fötter,0,42,42,79,0,0,0,0,1,3.556,,,2018_Sep_10_1352,59.6362316826,verb_norming_L1-swe_no_translation,001,803,
SLÅ,Armar/händer,armar/händer,0,42,42,79,0,1,1,1,7,0.621,,,2018_Sep_10_1352,59.6362316826,verb_norming_L1-swe_no_translation,001,803,
SLÅ,,,0,42,42,79,,,,,,,,,2018_Sep_10_1352,59.6362316826,verb_norming_L1-swe_no_translation,001,803,
SKRUBBA,Ben/fötter,ben/fötter,0,43,43,75,0,0,0,0,1,6.273,,,2018_Sep_10_1352,59.6362316826,verb_norming_L1-swe_no_translation,001,803,
SKRUBBA,Armar/händer,armar/händer,0,43,43,75,0,1,1,1,7,0.454,,,2018_Sep_10_1352,59.6362316826,verb_norming_L1-swe_no_translation,001,803,
SKRUBBA,,,0,43,43,75,,,,,,,,,2018_Sep_10_1352,59.6362316826,verb_norming_L1-swe_no_translation,001,803,
KRYPA,Ben/fötter,ben/fötter,0,44,44,123,0,0,0,0,6,12.075,,,2018_Sep_10_1352,59.6362316826,verb_norming_L1-swe_no_translation,001,803,
KRYPA,Armar/händer,armar/händer,0,44,44,123,0,1,1,1,6,7.715,,,2018_Sep_10_1352,59.6362316826,verb_norming_L1-swe_no_translation,001,803,
KRYPA,,,0,44,44,123,,,,,,,,,2018_Sep_10_1352,59.6362316826,verb_norming_L1-swe_no_translation,001,803,
SNAVA,Ben/fötter,ben/fötter,0,45,45,142,0,0,0,0,7,4.176,,,2018_Sep_10_1352,59.6362316826,verb_norming_L1-swe_no_translation,001,803,
SNAVA,Armar/händer,armar/händer,0,45,45,142,0,1,1,1,1,1.462,,,2018_Sep_10_1352,59.6362316826,verb_norming_L1-swe_no_translation,001,803,
SNAVA,,,0,45,45,142,,,,,,,,,2018_Sep_10_1352,59.6362316826,verb_norming_L1-swe_no_translation,001,803,
GREPPA,Ben/fötter,ben/fötter,0,46,46,18,0,0,0,0,1,3.673,,,2018_Sep_10_1352,59.6362316826,verb_norming_L1-swe_no_translation,001,803,
GREPPA,Armar/händer,armar/händer,0,46,46,18,0,1,1,1,7,1.795,,,2018_Sep_10_1352,59.6362316826,verb_norming_L1-swe_no_translation,001,803,
GREPPA,,,0,46,46,18,,,,,,,,,2018_Sep_10_1352,59.6362316826,verb_norming_L1-swe_no_translation,001,803,
HIVA,Ben/fötter,ben/fötter,0,47,47,24,0,0,0,0,1,3.893,,,2018_Sep_10_1352,59.6362316826,verb_norming_L1-swe_no_translation,001,803,
HIVA,Armar/händer,armar/händer,0,47,47,24,0,1,1,1,7,2.283,,,2018_Sep_10_1352,59.6362316826,verb_norming_L1-swe_no_translation,001,803,
HIVA,,,0,47,47,24,,,,,,,,,2018_Sep_10_1352,59.6362316826,verb_norming_L1-swe_no_translation,001,803,
VIKA,Ben/fötter,ben/fötter,0,48,48,98,0,0,0,0,1,3.91,,,2018_Sep_10_1352,59.6362316826,verb_norming_L1-swe_no_translation,001,803,
VIKA,Armar/händer,armar/händer,0,48,48,98,0,1,1,1,7,2.149,,,2018_Sep_10_1352,59.6362316826,verb_norming_L1-swe_no_translation,001,803,
VIKA,,,0,48,48,98,,,,,,,,,2018_Sep_10_1352,59.6362316826,verb_norming_L1-swe_no_translation,001,803,
SKEJTA,Ben/fötter,ben/fötter,0,49,49,135,0,0,0,0,7,6.239,,,2018_Sep_10_1352,59.6362316826,verb_norming_L1-swe_no_translation,001,803,
SKEJTA,Armar/händer,armar/händer,0,49,49,135,0,1,1,1,1,1.878,,,2018_Sep_10_1352,59.6362316826,verb_norming_L1-swe_no_translation,001,803,
SKEJTA,,,0,49,49,135,,,,,,,,,2018_Sep_10_1352,59.6362316826,verb_norming_L1-swe_no_translation,001,803,
BANKA,Ben/fötter,ben/fötter,0,50,50,1,0,0,0,0,3,9.26,,,2018_Sep_10_1352,59.6362316826,verb_norming_L1-swe_no_translation,001,803,
BANKA,Armar/händer,armar/händer,0,50,50,1,0,1,1,1,7,2.769,,,2018_Sep_10_1352,59.6362316826,verb_norming_L1-swe_no_translation,001,803,
BANKA,,,0,50,50,1,,,,,,,,,2018_Sep_10_1352,59.6362316826,verb_norming_L1-swe_no_translation,001,803,
SLEVA,Ben/fötter,ben/fötter,0,51,51,80,0,0,0,0,1,4.211,,,2018_Sep_10_1352,59.6362316826,verb_norming_L1-swe_no_translation,001,803,
SLEVA,Armar/händer,armar/händer,0,51,51,80,0,1,1,1,7,1.646,,,2018_Sep_10_1352,59.6362316826,verb_norming_L1-swe_no_translation,001,803,
SLEVA,,,0,51,51,80,,,,,,,,,2018_Sep_10_1352,59.6362316826,verb_norming_L1-swe_no_translation,001,803,
BULTA,Ben/fötter,ben/fötter,0,52,52,4,0,0,0,0,1,10.668,,,2018_Sep_10_1352,59.6362316826,verb_norming_L1-swe_no_translation,001,803,
BULTA,Armar/händer,armar/händer,0,52,52,4,0,1,1,1,7,3.003,,,2018_Sep_10_1352,59.6362316826,verb_norming_L1-swe_no_translation,001,803,
BULTA,,,0,52,52,4,,,,,,,,,2018_Sep_10_1352,59.6362316826,verb_norming_L1-swe_no_translation,001,803,
GNUGGA,Ben/fötter,ben/fötter,0,53,53,15,0,0,0,0,1,4.546,,,2018_Sep_10_1352,59.6362316826,verb_norming_L1-swe_no_translation,001,803,
GNUGGA,Armar/händer,armar/händer,0,53,53,15,0,1,1,1,4,4.529,,,2018_Sep_10_1352,59.6362316826,verb_norming_L1-swe_no_translation,001,803,
GNUGGA,,,0,53,53,15,,,,,,,,,2018_Sep_10_1352,59.6362316826,verb_norming_L1-swe_no_translation,001,803,
KLICKA,Ben/fötter,ben/fötter,0,54,54,33,0,0,0,0,1,3.539,,,2018_Sep_10_1352,59.6362316826,verb_norming_L1-swe_no_translation,001,803,
KLICKA,Armar/händer,armar/händer,0,54,54,33,0,1,1,1,7,0.806,,,2018_Sep_10_1352,59.6362316826,verb_norming_L1-swe_no_translation,001,803,
KLICKA,,,0,54,54,33,,,,,,,,,2018_Sep_10_1352,59.6362316826,verb_norming_L1-swe_no_translation,001,803,
TÅGA,Ben/fötter,ben/fötter,0,55,55,158,0,0,0,0,5,8.402,,,2018_Sep_10_1352,59.6362316826,verb_norming_L1-swe_no_translation,001,803,
TÅGA,Armar/händer,armar/händer,0,55,55,158,0,1,1,1,1,2.716,,,2018_Sep_10_1352,59.6362316826,verb_norming_L1-swe_no_translation,001,803,
TÅGA,,,0,55,55,158,,,,,,,,,2018_Sep_10_1352,59.6362316826,verb_norming_L1-swe_no_translation,001,803,
STIGA,Ben/fötter,ben/fötter,0,56,56,151,0,0,0,0,6,6.358,,,2018_Sep_10_1352,59.6362316826,verb_norming_L1-swe_no_translation,001,803,
STIGA,Armar/händer,armar/händer,0,56,56,151,0,1,1,1,1,0.924,,,2018_Sep_10_1352,59.6362316826,verb_norming_L1-swe_no_translation,001,803,
STIGA,,,0,56,56,151,,,,,,,,,2018_Sep_10_1352,59.6362316826,verb_norming_L1-swe_no_translation,001,803,
SKRAPA,Ben/fötter,ben/fötter,0,57,57,74,0,0,0,0,1,5.033,,,2018_Sep_10_1352,59.6362316826,verb_norming_L1-swe_no_translation,001,803,
SKRAPA,Armar/händer,armar/händer,0,57,57,74,0,1,1,1,6,3.758,,,2018_Sep_10_1352,59.6362316826,verb_norming_L1-swe_no_translation,001,803,
SKRAPA,,,0,57,57,74,,,,,,,,,2018_Sep_10_1352,59.6362316826,verb_norming_L1-swe_no_translation,001,803,
LINDA,Ben/fötter,ben/fötter,0,58,58,43,0,0,0,0,1,6.308,,,2018_Sep_10_1352,59.6362316826,verb_norming_L1-swe_no_translation,001,803,
LINDA,Armar/händer,armar/händer,0,58,58,43,0,1,1,1,6,8.739,,,2018_Sep_10_1352,59.6362316826,verb_norming_L1-swe_no_translation,001,803,
LINDA,,,0,58,58,43,,,,,,,,,2018_Sep_10_1352,59.6362316826,verb_norming_L1-swe_no_translation,001,803,
STÄDA,Ben/fötter,ben/fötter,0,59,59,88,0,0,0,0,2,7.33,,,2018_Sep_10_1352,59.6362316826,verb_norming_L1-swe_no_translation,001,803,
STÄDA,Armar/händer,armar/händer,0,59,59,88,0,1,1,1,7,3.222,,,2018_Sep_10_1352,59.6362316826,verb_norming_L1-swe_no_translation,001,803,
STÄDA,,,0,59,59,88,,,,,,,,,2018_Sep_10_1352,59.6362316826,verb_norming_L1-swe_no_translation,001,803,
HACKA,Ben/fötter,ben/fötter,0,60,60,20,0,0,0,0,1,3.692,,,2018_Sep_10_1352,59.6362316826,verb_norming_L1-swe_no_translation,001,803,
HACKA,Armar/händer,armar/händer,0,60,60,20,0,1,1,1,7,0.991,,,2018_Sep_10_1352,59.6362316826,verb_norming_L1-swe_no_translation,001,803,
HACKA,,,0,60,60,20,,,,,,,,,2018_Sep_10_1352,59.6362316826,verb_norming_L1-swe_no_translation,001,803,
TRÄDA,Ben/fötter,ben/fötter,0,61,61,160,0,0,0,0,4,4.58,,,2018_Sep_10_1352,59.6362316826,verb_norming_L1-swe_no_translation,001,803,
TRÄDA,Armar/händer,armar/händer,0,61,61,160,0,1,1,1,4,0.74,,,2018_Sep_10_1352,59.6362316826,verb_norming_L1-swe_no_translation,001,803,
TRÄDA,,,0,61,61,160,,,,,,,,,2018_Sep_10_1352,59.6362316826,verb_norming_L1-swe_no_translation,001,803,
HALTA,Ben/fötter,ben/fötter,0,62,62,110,0,0,0,0,7,4.429,,,2018_Sep_10_1352,59.6362316826,verb_norming_L1-swe_no_translation,001,803,
HALTA,Armar/händer,armar/händer,0,62,62,110,0,1,1,1,1,1.26,,,2018_Sep_10_1352,59.6362316826,verb_norming_L1-swe_no_translation,001,803,
HALTA,,,0,62,62,110,,,,,,,,,2018_Sep_10_1352,59.6362316826,verb_norming_L1-swe_no_translation,001,803,
SLITA,Ben/fötter,ben/fötter,0,63,63,82,0,0,0,0,1,4.295,,,2018_Sep_10_1352,59.6362316826,verb_norming_L1-swe_no_translation,001,803,
SLITA,Armar/händer,armar/händer,0,63,63,82,0,1,1,1,7,1.545,,,2018_Sep_10_1352,59.6362316826,verb_norming_L1-swe_no_translation,001,803,
SLITA,,,0,63,63,82,,,,,,,,,2018_Sep_10_1352,59.6362316826,verb_norming_L1-swe_no_translation,001,803,
RULTA,Ben/fötter,ben/fötter,0,64,64,133,0,0,0,0,4,6.525,,,2018_Sep_10_1352,59.6362316826,verb_norming_L1-swe_no_translation,001,803,
RULTA,Armar/händer,armar/händer,0,64,64,133,0,1,1,1,1,2.149,,,2018_Sep_10_1352,59.6362316826,verb_norming_L1-swe_no_translation,001,803,
RULTA,,,0,64,64,133,,,,,,,,,2018_Sep_10_1352,59.6362316826,verb_norming_L1-swe_no_translation,001,803,
GESTIKULERA,Ben/fötter,ben/fötter,0,65,65,13,0,0,0,0,1,4.979,,,2018_Sep_10_1352,59.6362316826,verb_norming_L1-swe_no_translation,001,803,
GESTIKULERA,Armar/händer,armar/händer,0,65,65,13,0,1,1,1,7,1.19,,,2018_Sep_10_1352,59.6362316826,verb_norming_L1-swe_no_translation,001,803,
GESTIKULERA,,,0,65,65,13,,,,,,,,,2018_Sep_10_1352,59.6362316826,verb_norming_L1-swe_no_translation,001,803,
SKÄRA,Ben/fötter,ben/fötter,0,66,66,71,0,0,0,0,1,3.153,,,2018_Sep_10_1352,59.6362316826,verb_norming_L1-swe_no_translation,001,803,
SKÄRA,Armar/händer,armar/händer,0,66,66,71,0,1,1,1,7,0.672,,,2018_Sep_10_1352,59.6362316826,verb_norming_L1-swe_no_translation,001,803,
SKÄRA,,,0,66,66,71,,,,,,,,,2018_Sep_10_1352,59.6362316826,verb_norming_L1-swe_no_translation,001,803,
VANDRA,Ben/fötter,ben/fötter,0,67,67,166,0,0,0,0,7,3.775,,,2018_Sep_10_1352,59.6362316826,verb_norming_L1-swe_no_translation,001,803,
VANDRA,Armar/händer,armar/händer,0,67,67,166,0,1,1,1,1,1.326,,,2018_Sep_10_1352,59.6362316826,verb_norming_L1-swe_no_translation,001,803,
VANDRA,,,0,67,67,166,,,,,,,,,2018_Sep_10_1352,59.6362316826,verb_norming_L1-swe_no_translation,001,803,
SKOPA,Ben/fötter,ben/fötter,0,68,68,73,0,0,0,0,1,4.949,,,2018_Sep_10_1352,59.6362316826,verb_norming_L1-swe_no_translation,001,803,
SKOPA,Armar/händer,armar/händer,0,68,68,73,0,1,1,1,7,0.89,,,2018_Sep_10_1352,59.6362316826,verb_norming_L1-swe_no_translation,001,803,
SKOPA,,,0,68,68,73,,,,,,,,,2018_Sep_10_1352,59.6362316826,verb_norming_L1-swe_no_translation,001,803,
PROMENERA,Ben/fötter,ben/fötter,0,69,69,129,0,0,0,0,7,4.41,,,2018_Sep_10_1352,59.6362316826,verb_norming_L1-swe_no_translation,001,803,
PROMENERA,Armar/händer,armar/händer,0,69,69,129,0,1,1,1,1,4.175,,,2018_Sep_10_1352,59.6362316826,verb_norming_L1-swe_no_translation,001,803,
PROMENERA,,,0,69,69,129,,,,,,,,,2018_Sep_10_1352,59.6362316826,verb_norming_L1-swe_no_translation,001,803,
BADDA,Ben/fötter,ben/fötter,0,70,70,0,0,0,0,0,1,4.278,,,2018_Sep_10_1352,59.6362316826,verb_norming_L1-swe_no_translation,001,803,
BADDA,Armar/händer,armar/händer,0,70,70,0,0,1,1,1,7,0.639,,,2018_Sep_10_1352,59.6362316826,verb_norming_L1-swe_no_translation,001,803,
BADDA,,,0,70,70,0,,,,,,,,,2018_Sep_10_1352,59.6362316826,verb_norming_L1-swe_no_translation,001,803,
PINNA,Ben/fötter,ben/fötter,0,71,71,128,0,0,0,0,5,16.119,,,2018_Sep_10_1352,59.6362316826,verb_norming_L1-swe_no_translation,001,803,
PINNA,Armar/händer,armar/händer,0,71,71,128,0,1,1,1,1,1.863,,,2018_Sep_10_1352,59.6362316826,verb_norming_L1-swe_no_translation,001,803,
PINNA,,,0,71,71,128,,,,,,,,,2018_Sep_10_1352,59.6362316826,verb_norming_L1-swe_no_translation,001,803,
STAPPLA,Ben/fötter,ben/fötter,0,72,72,149,0,0,0,0,7,6.541,,,2018_Sep_10_1352,59.6362316826,verb_norming_L1-swe_no_translation,001,803,
STAPPLA,Armar/händer,armar/händer,0,72,72,149,0,1,1,1,1,1.728,,,2018_Sep_10_1352,59.6362316826,verb_norming_L1-swe_no_translation,001,803,
STAPPLA,,,0,72,72,149,,,,,,,,,2018_Sep_10_1352,59.6362316826,verb_norming_L1-swe_no_translation,001,803,
KNIPA,Ben/fötter,ben/fötter,0,73,73,37,0,0,0,0,4,5.82,,,2018_Sep_10_1352,59.6362316826,verb_norming_L1-swe_no_translation,001,803,
KNIPA,Armar/händer,armar/händer,0,73,73,37,0,1,1,1,6,6.375,,,2018_Sep_10_1352,59.6362316826,verb_norming_L1-swe_no_translation,001,803,
KNIPA,,,0,73,73,37,,,,,,,,,2018_Sep_10_1352,59.6362316826,verb_norming_L1-swe_no_translation,001,803,
STÖTA,Ben/fötter,ben/fötter,0,74,74,89,0,0,0,0,2,71.008,,,2018_Sep_10_1352,59.6362316826,verb_norming_L1-swe_no_translation,001,803,
STÖTA,Armar/händer,armar/händer,0,74,74,89,0,1,1,1,6,1.056,,,2018_Sep_10_1352,59.6362316826,verb_norming_L1-swe_no_translation,001,803,
STÖTA,,,0,74,74,89,,,,,,,,,2018_Sep_10_1352,59.6362316826,verb_norming_L1-swe_no_translation,001,803,
RAGLA,Ben/fötter,ben/fötter,0,75,75,130,0,0,0,0,7,2.635,,,2018_Sep_10_1352,59.6362316826,verb_norming_L1-swe_no_translation,001,803,
RAGLA,Armar/händer,armar/händer,0,75,75,130,0,1,1,1,1,4.664,,,2018_Sep_10_1352,59.6362316826,verb_norming_L1-swe_no_translation,001,803,
RAGLA,,,0,75,75,130,,,,,,,,,2018_Sep_10_1352,59.6362316826,verb_norming_L1-swe_no_translation,001,803,
REPA,Ben/fötter,ben/fötter,0,76,76,61,0,0,0,0,1,4.212,,,2018_Sep_10_1352,59.6362316826,verb_norming_L1-swe_no_translation,001,803,
REPA,Armar/händer,armar/händer,0,76,76,61,0,1,1,1,5,2.417,,,2018_Sep_10_1352,59.6362316826,verb_norming_L1-swe_no_translation,001,803,
REPA,,,0,76,76,61,,,,,,,,,2018_Sep_10_1352,59.6362316826,verb_norming_L1-swe_no_translation,001,803,
SNUBBLA,Ben/fötter,ben/fötter,0,77,77,143,0,0,0,0,7,3.068,,,2018_Sep_10_1352,59.6362316826,verb_norming_L1-swe_no_translation,001,803,
SNUBBLA,Armar/händer,armar/händer,0,77,77,143,0,1,1,1,1,1.192,,,2018_Sep_10_1352,59.6362316826,verb_norming_L1-swe_no_translation,001,803,
SNUBBLA,,,0,77,77,143,,,,,,,,,2018_Sep_10_1352,59.6362316826,verb_norming_L1-swe_no_translation,001,803,
HAFFA,Ben/fötter,ben/fötter,0,78,78,21,0,0,0,0,1,4.496,,,2018_Sep_10_1352,59.6362316826,verb_norming_L1-swe_no_translation,001,803,
HAFFA,Armar/händer,armar/händer,0,78,78,21,0,1,1,1,7,4.061,,,2018_Sep_10_1352,59.6362316826,verb_norming_L1-swe_no_translation,001,803,
HAFFA,,,0,78,78,21,,,,,,,,,2018_Sep_10_1352,59.6362316826,verb_norming_L1-swe_no_translation,001,803,
KASTA,Ben/fötter,ben/fötter,0,79,79,27,0,0,0,0,1,3.874,,,2018_Sep_10_1352,59.6362316826,verb_norming_L1-swe_no_translation,001,803,
KASTA,Armar/händer,armar/händer,0,79,79,27,0,1,1,1,7,0.521,,,2018_Sep_10_1352,59.6362316826,verb_norming_L1-swe_no_translation,001,803,
KASTA,,,0,79,79,27,,,,,,,,,2018_Sep_10_1352,59.6362316826,verb_norming_L1-swe_no_translation,001,803,
PADDLA,Ben/fötter,ben/fötter,0,80,80,49,0,0,0,0,1,3.339,,,2018_Sep_10_1352,59.6362316826,verb_norming_L1-swe_no_translation,001,803,
PADDLA,Armar/händer,armar/händer,0,80,80,49,0,1,1,1,7,2.249,,,2018_Sep_10_1352,59.6362316826,verb_norming_L1-swe_no_translation,001,803,
PADDLA,,,0,80,80,49,,,,,,,,,2018_Sep_10_1352,59.6362316826,verb_norming_L1-swe_no_translation,001,803,
IRRA,Ben/fötter,ben/fötter,0,81,81,113,0,0,0,0,3,6.526,,,2018_Sep_10_1352,59.6362316826,verb_norming_L1-swe_no_translation,001,803,
IRRA,Armar/händer,armar/händer,0,81,81,113,0,1,1,1,3,1.714,,,2018_Sep_10_1352,59.6362316826,verb_norming_L1-swe_no_translation,001,803,
IRRA,,,0,81,81,113,,,,,,,,,2018_Sep_10_1352,59.6362316826,verb_norming_L1-swe_no_translation,001,803,
KLÅ,Ben/fötter,ben/fötter,0,82,82,29,0,0,0,0,1,5.284,,,2018_Sep_10_1352,59.6362316826,verb_norming_L1-swe_no_translation,001,803,
KLÅ,Armar/händer,armar/händer,0,82,82,29,0,1,1,1,7,1.242,,,2018_Sep_10_1352,59.6362316826,verb_norming_L1-swe_no_translation,001,803,
KLÅ,,,0,82,82,29,,,,,,,,,2018_Sep_10_1352,59.6362316826,verb_norming_L1-swe_no_translation,001,803,
KLIA,Ben/fötter,ben/fötter,0,83,83,32,0,0,0,0,1,3.809,,,2018_Sep_10_1352,59.6362316826,verb_norming_L1-swe_no_translation,001,803,
KLIA,Armar/händer,armar/händer,0,83,83,32,0,1,1,1,7,0.572,,,2018_Sep_10_1352,59.6362316826,verb_norming_L1-swe_no_translation,001,803,
KLIA,,,0,83,83,32,,,,,,,,,2018_Sep_10_1352,59.6362316826,verb_norming_L1-swe_no_translation,001,803,
SKALA,Ben/fötter,ben/fötter,0,84,84,70,0,0,0,0,1,2.584,,,2018_Sep_10_1352,59.6362316826,verb_norming_L1-swe_no_translation,001,803,
SKALA,Armar/händer,armar/händer,0,84,84,70,0,1,1,1,7,2.736,,,2018_Sep_10_1352,59.6362316826,verb_norming_L1-swe_no_translation,001,803,
SKALA,,,0,84,84,70,,,,,,,,,2018_Sep_10_1352,59.6362316826,verb_norming_L1-swe_no_translation,001,803,
PRESSA,Ben/fötter,ben/fötter,0,85,85,55,0,0,0,0,3,5.955,,,2018_Sep_10_1352,59.6362316826,verb_norming_L1-swe_no_translation,001,803,
PRESSA,Armar/händer,armar/händer,0,85,85,55,0,1,1,1,6,3.993,,,2018_Sep_10_1352,59.6362316826,verb_norming_L1-swe_no_translation,001,803,
PRESSA,,,0,85,85,55,,,,,,,,,2018_Sep_10_1352,59.6362316826,verb_norming_L1-swe_no_translation,001,803,
STRÖVA,Ben/fötter,ben/fötter,0,86,86,153,0,0,0,0,7,9.912,,,2018_Sep_10_1352,59.6362316826,verb_norming_L1-swe_no_translation,001,803,
STRÖVA,Armar/händer,armar/händer,0,86,86,153,0,1,1,1,1,1.677,,,2018_Sep_10_1352,59.6362316826,verb_norming_L1-swe_no_translation,001,803,
STRÖVA,,,0,86,86,153,,,,,,,,,2018_Sep_10_1352,59.6362316826,verb_norming_L1-swe_no_translation,001,803,
KOPPLA,Ben/fötter,ben/fötter,0,87,87,40,0,0,0,0,1,5.669,,,2018_Sep_10_1352,59.6362316826,verb_norming_L1-swe_no_translation,001,803,
KOPPLA,Armar/händer,armar/händer,0,87,87,40,0,1,1,1,7,0.774,,,2018_Sep_10_1352,59.6362316826,verb_norming_L1-swe_no_translation,001,803,
KOPPLA,,,0,87,87,40,,,,,,,,,2018_Sep_10_1352,59.6362316826,verb_norming_L1-swe_no_translation,001,803,
FLY,Ben/fötter,ben/fötter,0,88,88,105,0,0,0,0,7,6.657,,,2018_Sep_10_1352,59.6362316826,verb_norming_L1-swe_no_translation,001,803,
FLY,Armar/händer,armar/händer,0,88,88,105,0,1,1,1,3,7.8,,,2018_Sep_10_1352,59.6362316826,verb_norming_L1-swe_no_translation,001,803,
FLY,,,0,88,88,105,,,,,,,,,2018_Sep_10_1352,59.6362316826,verb_norming_L1-swe_no_translation,001,803,
SKYFFLA,Ben/fötter,ben/fötter,0,89,89,78,0,0,0,0,2,10.733,,,2018_Sep_10_1352,59.6362316826,verb_norming_L1-swe_no_translation,001,803,
SKYFFLA,Armar/händer,armar/händer,0,89,89,78,0,1,1,1,7,4.679,,,2018_Sep_10_1352,59.6362316826,verb_norming_L1-swe_no_translation,001,803,
SKYFFLA,,,0,89,89,78,,,,,,,,,2018_Sep_10_1352,59.6362316826,verb_norming_L1-swe_no_translation,001,803,
TRASKA,Ben/fötter,ben/fötter,0,90,90,162,0,0,0,0,7,4.546,,,2018_Sep_10_1352,59.6362316826,verb_norming_L1-swe_no_translation,001,803,
TRASKA,Armar/händer,armar/händer,0,90,90,162,0,1,1,1,1,1.444,,,2018_Sep_10_1352,59.6362316826,verb_norming_L1-swe_no_translation,001,803,
TRASKA,,,0,90,90,162,,,,,,,,,2018_Sep_10_1352,59.6362316826,verb_norming_L1-swe_no_translation,001,803,
GRÄVA,Ben/fötter,ben/fötter,0,91,91,17,0,0,0,0,3,4.228,,,2018_Sep_10_1352,59.6362316826,verb_norming_L1-swe_no_translation,001,803,
GRÄVA,Armar/händer,armar/händer,0,91,91,17,0,1,1,1,7,2.316,,,2018_Sep_10_1352,59.6362316826,verb_norming_L1-swe_no_translation,001,803,
GRÄVA,,,0,91,91,17,,,,,,,,,2018_Sep_10_1352,59.6362316826,verb_norming_L1-swe_no_translation,001,803,
KNATA,Ben/fötter,ben/fötter,0,92,92,120,0,0,0,0,7,3.859,,,2018_Sep_10_1352,59.6362316826,verb_norming_L1-swe_no_translation,001,803,
KNATA,Armar/händer,armar/händer,0,92,92,120,0,1,1,1,1,1.092,,,2018_Sep_10_1352,59.6362316826,verb_norming_L1-swe_no_translation,001,803,
KNATA,,,0,92,92,120,,,,,,,,,2018_Sep_10_1352,59.6362316826,verb_norming_L1-swe_no_translation,001,803,
LINKA,Ben/fötter,ben/fötter,0,93,93,124,0,0,0,0,3,10.014,,,2018_Sep_10_1352,59.6362316826,verb_norming_L1-swe_no_translation,001,803,
LINKA,Armar/händer,armar/händer,0,93,93,124,0,1,1,1,3,1.26,,,2018_Sep_10_1352,59.6362316826,verb_norming_L1-swe_no_translation,001,803,
LINKA,,,0,93,93,124,,,,,,,,,2018_Sep_10_1352,59.6362316826,verb_norming_L1-swe_no_translation,001,803,
SKRIDA,Ben/fötter,ben/fötter,0,94,94,136,0,0,0,0,7,6.374,,,2018_Sep_10_1352,59.6362316826,verb_norming_L1-swe_no_translation,001,803,
SKRIDA,Armar/händer,armar/händer,0,94,94,136,0,1,1,1,1,1.226,,,2018_Sep_10_1352,59.6362316826,verb_norming_L1-swe_no_translation,001,803,
SKRIDA,,,0,94,94,136,,,,,,,,,2018_Sep_10_1352,59.6362316826,verb_norming_L1-swe_no_translation,001,803,
KLIPPA,Ben/fötter,ben/fötter,0,95,95,34,0,0,0,0,1,3.506,,,2018_Sep_10_1352,59.6362316826,verb_norming_L1-swe_no_translation,001,803,
KLIPPA,Armar/händer,armar/händer,0,95,95,34,0,1,1,1,7,1.176,,,2018_Sep_10_1352,59.6362316826,verb_norming_L1-swe_no_translation,001,803,
KLIPPA,,,0,95,95,34,,,,,,,,,2018_Sep_10_1352,59.6362316826,verb_norming_L1-swe_no_translation,001,803,
ILA,Ben/fötter,ben/fötter,0,96,96,112,0,0,0,0,7,2.971,,,2018_Sep_10_1352,59.6362316826,verb_norming_L1-swe_no_translation,001,803,
ILA,Armar/händer,armar/händer,0,96,96,112,0,1,1,1,1,0.473,,,2018_Sep_10_1352,59.6362316826,verb_norming_L1-swe_no_translation,001,803,
ILA,,,0,96,96,112,,,,,,,,,2018_Sep_10_1352,59.6362316826,verb_norming_L1-swe_no_translation,001,803,
KLAPPA,Ben/fötter,ben/fötter,0,97,97,31,0,0,0,0,1,7.095,,,2018_Sep_10_1352,59.6362316826,verb_norming_L1-swe_no_translation,001,803,
KLAPPA,Armar/händer,armar/händer,0,97,97,31,0,1,1,1,7,1.226,,,2018_Sep_10_1352,59.6362316826,verb_norming_L1-swe_no_translation,001,803,
KLAPPA,,,0,97,97,31,,,,,,,,,2018_Sep_10_1352,59.6362316826,verb_norming_L1-swe_no_translation,001,803,
SKYNDA,Ben/fötter,ben/fötter,0,98,98,138,0,0,0,0,7,6.574,,,2018_Sep_10_1352,59.6362316826,verb_norming_L1-swe_no_translation,001,803,
SKYNDA,Armar/händer,armar/händer,0,98,98,138,0,1,1,1,2,4.074,,,2018_Sep_10_1352,59.6362316826,verb_norming_L1-swe_no_translation,001,803,
SKYNDA,,,0,98,98,138,,,,,,,,,2018_Sep_10_1352,59.6362316826,verb_norming_L1-swe_no_translation,001,803,
SVEPA,Ben/fötter,ben/fötter,0,99,99,91,0,0,0,0,6,7.631,,,2018_Sep_10_1352,59.6362316826,verb_norming_L1-swe_no_translation,001,803,
SVEPA,Armar/händer,armar/händer,0,99,99,91,0,1,1,1,5,3.004,,,2018_Sep_10_1352,59.6362316826,verb_norming_L1-swe_no_translation,001,803,
SVEPA,,,0,99,99,91,,,,,,,,,2018_Sep_10_1352,59.6362316826,verb_norming_L1-swe_no_translation,001,803,
HÖJA,Ben/fötter,ben/fötter,0,100,100,25,0,0,0,0,2,19.455,,,2018_Sep_10_1352,59.6362316826,verb_norming_L1-swe_no_translation,001,803,
HÖJA,Armar/händer,armar/händer,0,100,100,25,0,1,1,1,3,4.931,,,2018_Sep_10_1352,59.6362316826,verb_norming_L1-swe_no_translation,001,803,
HÖJA,,,0,100,100,25,,,,,,,,,2018_Sep_10_1352,59.6362316826,verb_norming_L1-swe_no_translation,001,803,
FILA,Ben/fötter,ben/fötter,0,101,101,10,0,0,0,0,1,4.262,,,2018_Sep_10_1352,59.6362316826,verb_norming_L1-swe_no_translation,001,803,
FILA,Armar/händer,armar/händer,0,101,101,10,0,1,1,1,7,1.915,,,2018_Sep_10_1352,59.6362316826,verb_norming_L1-swe_no_translation,001,803,
FILA,,,0,101,101,10,,,,,,,,,2018_Sep_10_1352,59.6362316826,verb_norming_L1-swe_no_translation,001,803,
GÅ,Ben/fötter,ben/fötter,0,102,102,106,0,0,0,0,7,3.942,,,2018_Sep_10_1352,59.6362316826,verb_norming_L1-swe_no_translation,001,803,
GÅ,Armar/händer,armar/händer,0,102,102,106,0,1,1,1,1,1.109,,,2018_Sep_10_1352,59.6362316826,verb_norming_L1-swe_no_translation,001,803,
GÅ,,,0,102,102,106,,,,,,,,,2018_Sep_10_1352,59.6362316826,verb_norming_L1-swe_no_translation,001,803,
SVABBA,Ben/fötter,ben/fötter,0,103,103,90,0,0,0,0,3,8.202,,,2018_Sep_10_1352,59.6362316826,verb_norming_L1-swe_no_translation,001,803,
SVABBA,Armar/händer,armar/händer,0,103,103,90,0,1,1,1,7,2.165,,,2018_Sep_10_1352,59.6362316826,verb_norming_L1-swe_no_translation,001,803,
SVABBA,,,0,103,103,90,,,,,,,,,2018_Sep_10_1352,59.6362316826,verb_norming_L1-swe_no_translation,001,803,
VIRA,Ben/fötter,ben/fötter,0,104,104,99,0,0,0,0,1,2.803,,,2018_Sep_10_1352,59.6362316826,verb_norming_L1-swe_no_translation,001,803,
VIRA,Armar/händer,armar/händer,0,104,104,99,0,1,1,1,7,1.361,,,2018_Sep_10_1352,59.6362316826,verb_norming_L1-swe_no_translation,001,803,
VIRA,,,0,104,104,99,,,,,,,,,2018_Sep_10_1352,59.6362316826,verb_norming_L1-swe_no_translation,001,803,
FATTA,Ben/fötter,ben/fötter,0,105,105,9,0,0,0,0,1,3.691,,,2018_Sep_10_1352,59.6362316826,verb_norming_L1-swe_no_translation,001,803,
FATTA,Armar/händer,armar/händer,0,105,105,9,0,1,1,1,7,1.445,,,2018_Sep_10_1352,59.6362316826,verb_norming_L1-swe_no_translation,001,803,
FATTA,,,0,105,105,9,,,,,,,,,2018_Sep_10_1352,59.6362316826,verb_norming_L1-swe_no_translation,001,803,
GRIPA,Ben/fötter,ben/fötter,0,106,106,19,0,0,0,0,2,13.016,,,2018_Sep_10_1352,59.6362316826,verb_norming_L1-swe_no_translation,001,803,
GRIPA,Armar/händer,armar/händer,0,106,106,19,0,1,1,1,7,0.69,,,2018_Sep_10_1352,59.6362316826,verb_norming_L1-swe_no_translation,001,803,
GRIPA,,,0,106,106,19,,,,,,,,,2018_Sep_10_1352,59.6362316826,verb_norming_L1-swe_no_translation,001,803,
KARVA,Ben/fötter,ben/fötter,0,107,107,26,0,0,0,0,1,3.523,,,2018_Sep_10_1352,59.6362316826,verb_norming_L1-swe_no_translation,001,803,
KARVA,Armar/händer,armar/händer,0,107,107,26,0,1,1,1,7,0.84,,,2018_Sep_10_1352,59.6362316826,verb_norming_L1-swe_no_translation,001,803,
KARVA,,,0,107,107,26,,,,,,,,,2018_Sep_10_1352,59.6362316826,verb_norming_L1-swe_no_translation,001,803,
RÄNNA,Ben/fötter,ben/fötter,0,108,108,131,0,0,0,0,5,8.454,,,2018_Sep_10_1352,59.6362316826,verb_norming_L1-swe_no_translation,001,803,
RÄNNA,Armar/händer,armar/händer,0,108,108,131,0,1,1,1,1,2.048,,,2018_Sep_10_1352,59.6362316826,verb_norming_L1-swe_no_translation,001,803,
RÄNNA,,,0,108,108,131,,,,,,,,,2018_Sep_10_1352,59.6362316826,verb_norming_L1-swe_no_translation,001,803,
NAPPA,Ben/fötter,ben/fötter,0,109,109,45,0,0,0,0,1,3.253,,,2018_Sep_10_1352,59.6362316826,verb_norming_L1-swe_no_translation,001,803,
NAPPA,Armar/händer,armar/händer,0,109,109,45,0,1,1,1,7,0.804,,,2018_Sep_10_1352,59.6362316826,verb_norming_L1-swe_no_translation,001,803,
NAPPA,,,0,109,109,45,,,,,,,,,2018_Sep_10_1352,59.6362316826,verb_norming_L1-swe_no_translation,001,803,
VANKA,Ben/fötter,ben/fötter,0,110,110,167,0,0,0,0,7,5.285,,,2018_Sep_10_1352,59.6362316826,verb_norming_L1-swe_no_translation,001,803,
VANKA,Armar/händer,armar/händer,0,110,110,167,0,1,1,1,1,0.639,,,2018_Sep_10_1352,59.6362316826,verb_norming_L1-swe_no_translation,001,803,
VANKA,,,0,110,110,167,,,,,,,,,2018_Sep_10_1352,59.6362316826,verb_norming_L1-swe_no_translation,001,803,
SPRINGA,Ben/fötter,ben/fötter,0,111,111,145,0,0,0,0,7,4.864,,,2018_Sep_10_1352,59.6362316826,verb_norming_L1-swe_no_translation,001,803,
SPRINGA,Armar/händer,armar/händer,0,111,111,145,0,1,1,1,2,5.366,,,2018_Sep_10_1352,59.6362316826,verb_norming_L1-swe_no_translation,001,803,
SPRINGA,,,0,111,111,145,,,,,,,,,2018_Sep_10_1352,59.6362316826,verb_norming_L1-swe_no_translation,001,803,
TRIPPA,Ben/fötter,ben/fötter,0,112,112,163,0,0,0,0,7,3.691,,,2018_Sep_10_1352,59.6362316826,verb_norming_L1-swe_no_translation,001,803,
TRIPPA,Armar/händer,armar/händer,0,112,112,163,0,1,1,1,1,1.511,,,2018_Sep_10_1352,59.6362316826,verb_norming_L1-swe_no_translation,001,803,
TRIPPA,,,0,112,112,163,,,,,,,,,2018_Sep_10_1352,59.6362316826,verb_norming_L1-swe_no_translation,001,803,
SMÄLLA,Ben/fötter,ben/fötter,0,113,113,84,0,0,0,0,1,7.615,,,2018_Sep_10_1352,59.6362316826,verb_norming_L1-swe_no_translation,001,803,
SMÄLLA,Armar/händer,armar/händer,0,113,113,84,0,1,1,1,6,5.1,,,2018_Sep_10_1352,59.6362316826,verb_norming_L1-swe_no_translation,001,803,
SMÄLLA,,,0,113,113,84,,,,,,,,,2018_Sep_10_1352,59.6362316826,verb_norming_L1-swe_no_translation,001,803,
SLUNGA,Ben/fötter,ben/fötter,0,114,114,83,0,0,0,0,2,5.904,,,2018_Sep_10_1352,59.6362316826,verb_norming_L1-swe_no_translation,001,803,
SLUNGA,Armar/händer,armar/händer,0,114,114,83,0,1,1,1,7,2.131,,,2018_Sep_10_1352,59.6362316826,verb_norming_L1-swe_no_translation,001,803,
SLUNGA,,,0,114,114,83,,,,,,,,,2018_Sep_10_1352,59.6362316826,verb_norming_L1-swe_no_translation,001,803,
RAFSA,Ben/fötter,ben/fötter,0,115,115,58,0,0,0,0,1,3.171,,,2018_Sep_10_1352,59.6362316826,verb_norming_L1-swe_no_translation,001,803,
RAFSA,Armar/händer,armar/händer,0,115,115,58,0,1,1,1,7,0.706,,,2018_Sep_10_1352,59.6362316826,verb_norming_L1-swe_no_translation,001,803,
RAFSA,,,0,115,115,58,,,,,,,,,2018_Sep_10_1352,59.6362316826,verb_norming_L1-swe_no_translation,001,803,
NYPA,Ben/fötter,ben/fötter,0,116,116,47,0,0,0,0,2,5.132,,,2018_Sep_10_1352,59.6362316826,verb_norming_L1-swe_no_translation,001,803,
NYPA,Armar/händer,armar/händer,0,116,116,47,0,1,1,1,7,1.695,,,2018_Sep_10_1352,59.6362316826,verb_norming_L1-swe_no_translation,001,803,
NYPA,,,0,116,116,47,,,,,,,,,2018_Sep_10_1352,59.6362316826,verb_norming_L1-swe_no_translation,001,803,
CYKLA,Ben/fötter,ben/fötter,0,117,117,101,0,0,0,0,5,5.417,,,2018_Sep_10_1352,59.6362316826,verb_norming_L1-swe_no_translation,001,803,
CYKLA,Armar/händer,armar/händer,0,117,117,101,0,1,1,1,2,3.539,,,2018_Sep_10_1352,59.6362316826,verb_norming_L1-swe_no_translation,001,803,
CYKLA,,,0,117,117,101,,,,,,,,,2018_Sep_10_1352,59.6362316826,verb_norming_L1-swe_no_translation,001,803,
PUTTA,Ben/fötter,ben/fötter,0,118,118,57,0,0,0,0,2,6.224,,,2018_Sep_10_1352,59.6362316826,verb_norming_L1-swe_no_translation,001,803,
PUTTA,Armar/händer,armar/händer,0,118,118,57,0,1,1,1,7,1.796,,,2018_Sep_10_1352,59.6362316826,verb_norming_L1-swe_no_translation,001,803,
PUTTA,,,0,118,118,57,,,,,,,,,2018_Sep_10_1352,59.6362316826,verb_norming_L1-swe_no_translation,001,803,
SNO,Ben/fötter,ben/fötter,0,119,119,87,0,0,0,0,1,2.317,,,2018_Sep_10_1352,59.6362316826,verb_norming_L1-swe_no_translation,001,803,
SNO,Armar/händer,armar/händer,0,119,119,87,0,1,1,1,7,1.83,,,2018_Sep_10_1352,59.6362316826,verb_norming_L1-swe_no_translation,001,803,
SNO,,,0,119,119,87,,,,,,,,,2018_Sep_10_1352,59.6362316826,verb_norming_L1-swe_no_translation,001,803,
GLIDA,Ben/fötter,ben/fötter,0,120,120,107,0,0,0,0,7,3.456,,,2018_Sep_10_1352,59.6362316826,verb_norming_L1-swe_no_translation,001,803,
GLIDA,Armar/händer,armar/händer,0,120,120,107,0,1,1,1,1,0.824,,,2018_Sep_10_1352,59.6362316826,verb_norming_L1-swe_no_translation,001,803,
GLIDA,,,0,120,120,107,,,,,,,,,2018_Sep_10_1352,59.6362316826,verb_norming_L1-swe_no_translation,001,803,
KLÄMMA,Ben/fötter,ben/fötter,0,121,121,30,0,0,0,0,1,3.942,,,2018_Sep_10_1352,59.6362316826,verb_norming_L1-swe_no_translation,001,803,
KLÄMMA,Armar/händer,armar/händer,0,121,121,30,0,1,1,1,7,0.605,,,2018_Sep_10_1352,59.6362316826,verb_norming_L1-swe_no_translation,001,803,
KLÄMMA,,,0,121,121,30,,,,,,,,,2018_Sep_10_1352,59.6362316826,verb_norming_L1-swe_no_translation,001,803,
STÅ,Ben/fötter,ben/fötter,0,122,122,147,0,0,0,0,7,4.227,,,2018_Sep_10_1352,59.6362316826,verb_norming_L1-swe_no_translation,001,803,
STÅ,Armar/händer,armar/händer,0,122,122,147,0,1,1,1,1,1.41,,,2018_Sep_10_1352,59.6362316826,verb_norming_L1-swe_no_translation,001,803,
STÅ,,,0,122,122,147,,,,,,,,,2018_Sep_10_1352,59.6362316826,verb_norming_L1-swe_no_translation,001,803,
ÖSA,Ben/fötter,ben/fötter,0,123,123,48,0,0,0,0,1,3.221,,,2018_Sep_10_1352,59.6362316826,verb_norming_L1-swe_no_translation,001,803,
ÖSA,Armar/händer,armar/händer,0,123,123,48,0,1,1,1,7,0.857,,,2018_Sep_10_1352,59.6362316826,verb_norming_L1-swe_no_translation,001,803,
ÖSA,,,0,123,123,48,,,,,,,,,2018_Sep_10_1352,59.6362316826,verb_norming_L1-swe_no_translation,001,803,
ÅLA,Ben/fötter,ben/fötter,0,124,124,100,0,0,0,0,4,9.024,,,2018_Sep_10_1352,59.6362316826,verb_norming_L1-swe_no_translation,001,803,
ÅLA,Armar/händer,armar/händer,0,124,124,100,0,1,1,1,5,1.461,,,2018_Sep_10_1352,59.6362316826,verb_norming_L1-swe_no_translation,001,803,
ÅLA,,,0,124,124,100,,,,,,,,,2018_Sep_10_1352,59.6362316826,verb_norming_L1-swe_no_translation,001,803,
KRAVLA,Ben/fötter,ben/fötter,0,125,125,122,0,0,0,0,4,9.561,,,2018_Sep_10_1352,59.6362316826,verb_norming_L1-swe_no_translation,001,803,
KRAVLA,Armar/händer,armar/händer,0,125,125,122,0,1,1,1,5,0.99,,,2018_Sep_10_1352,59.6362316826,verb_norming_L1-swe_no_translation,001,803,
KRAVLA,,,0,125,125,122,,,,,,,,,2018_Sep_10_1352,59.6362316826,verb_norming_L1-swe_no_translation,001,803,
LÖPA,Ben/fötter,ben/fötter,0,126,126,125,0,0,0,0,7,3.17,,,2018_Sep_10_1352,59.6362316826,verb_norming_L1-swe_no_translation,001,803,
LÖPA,Armar/händer,armar/händer,0,126,126,125,0,1,1,1,1,1.811,,,2018_Sep_10_1352,59.6362316826,verb_norming_L1-swe_no_translation,001,803,
LÖPA,,,0,126,126,125,,,,,,,,,2018_Sep_10_1352,59.6362316826,verb_norming_L1-swe_no_translation,001,803,
POLERA,Ben/fötter,ben/fötter,0,127,127,54,0,0,0,0,1,3.004,,,2018_Sep_10_1352,59.6362316826,verb_norming_L1-swe_no_translation,001,803,
POLERA,Armar/händer,armar/händer,0,127,127,54,0,1,1,1,7,1.662,,,2018_Sep_10_1352,59.6362316826,verb_norming_L1-swe_no_translation,001,803,
POLERA,,,0,127,127,54,,,,,,,,,2018_Sep_10_1352,59.6362316826,verb_norming_L1-swe_no_translation,001,803,
BINDA,Ben/fötter,ben/fötter,0,128,128,2,0,0,0,0,4,7.046,,,2018_Sep_10_1352,59.6362316826,verb_norming_L1-swe_no_translation,001,803,
BINDA,Armar/händer,armar/händer,0,128,128,2,0,1,1,1,5,2.232,,,2018_Sep_10_1352,59.6362316826,verb_norming_L1-swe_no_translation,001,803,
BINDA,,,0,128,128,2,,,,,,,,,2018_Sep_10_1352,59.6362316826,verb_norming_L1-swe_no_translation,001,803,
BORSTA,Ben/fötter,ben/fötter,0,129,129,3,0,0,0,0,1,3.372,,,2018_Sep_10_1352,59.6362316826,verb_norming_L1-swe_no_translation,001,803,
BORSTA,Armar/händer,armar/händer,0,129,129,3,0,1,1,1,7,1.125,,,2018_Sep_10_1352,59.6362316826,verb_norming_L1-swe_no_translation,001,803,
BORSTA,,,0,129,129,3,,,,,,,,,2018_Sep_10_1352,59.6362316826,verb_norming_L1-swe_no_translation,001,803,
DUNKA,Ben/fötter,ben/fötter,0,130,130,7,0,0,0,0,1,6.323,,,2018_Sep_10_1352,59.6362316826,verb_norming_L1-swe_no_translation,001,803,
DUNKA,Armar/händer,armar/händer,0,130,130,7,0,1,1,1,7,0.874,,,2018_Sep_10_1352,59.6362316826,verb_norming_L1-swe_no_translation,001,803,
DUNKA,,,0,130,130,7,,,,,,,,,2018_Sep_10_1352,59.6362316826,verb_norming_L1-swe_no_translation,001,803,
RUSA,Ben/fötter,ben/fötter,0,131,131,134,0,0,0,0,7,3.054,,,2018_Sep_10_1352,59.6362316826,verb_norming_L1-swe_no_translation,001,803,
RUSA,Armar/händer,armar/händer,0,131,131,134,0,1,1,1,1,0.405,,,2018_Sep_10_1352,59.6362316826,verb_norming_L1-swe_no_translation,001,803,
RUSA,,,0,131,131,134,,,,,,,,,2018_Sep_10_1352,59.6362316826,verb_norming_L1-swe_no_translation,001,803,
PISKA,Ben/fötter,ben/fötter,0,132,132,52,0,0,0,0,1,3.54,,,2018_Sep_10_1352,59.6362316826,verb_norming_L1-swe_no_translation,001,803,
PISKA,Armar/händer,armar/händer,0,132,132,52,0,1,1,1,7,0.639,,,2018_Sep_10_1352,59.6362316826,verb_norming_L1-swe_no_translation,001,803,
PISKA,,,0,132,132,52,,,,,,,,,2018_Sep_10_1352,59.6362316826,verb_norming_L1-swe_no_translation,001,803,
RASPA,Ben/fötter,ben/fötter,0,133,133,60,0,0,0,0,1,4.563,,,2018_Sep_10_1352,59.6362316826,verb_norming_L1-swe_no_translation,001,803,
RASPA,Armar/händer,armar/händer,0,133,133,60,0,1,1,1,7,2.484,,,2018_Sep_10_1352,59.6362316826,verb_norming_L1-swe_no_translation,001,803,
RASPA,,,0,133,133,60,,,,,,,,,2018_Sep_10_1352,59.6362316826,verb_norming_L1-swe_no_translation,001,803,
STÖVLA,Ben/fötter,ben/fötter,0,134,134,152,0,0,0,0,7,2.817,,,2018_Sep_10_1352,59.6362316826,verb_norming_L1-swe_no_translation,001,803,
STÖVLA,Armar/händer,armar/händer,0,134,134,152,0,1,1,1,1,0.821,,,2018_Sep_10_1352,59.6362316826,verb_norming_L1-swe_no_translation,001,803,
STÖVLA,,,0,134,134,152,,,,,,,,,2018_Sep_10_1352,59.6362316826,verb_norming_L1-swe_no_translation,001,803,
HOPPA,Ben/fötter,ben/fötter,0,135,135,111,0,0,0,0,7,3.54,,,2018_Sep_10_1352,59.6362316826,verb_norming_L1-swe_no_translation,001,803,
HOPPA,Armar/händer,armar/händer,0,135,135,111,0,1,1,1,1,2.702,,,2018_Sep_10_1352,59.6362316826,verb_norming_L1-swe_no_translation,001,803,
HOPPA,,,0,135,135,111,,,,,,,,,2018_Sep_10_1352,59.6362316826,verb_norming_L1-swe_no_translation,001,803,
VADA,Ben/fötter,ben/fötter,0,136,136,165,0,0,0,0,7,2.3,,,2018_Sep_10_1352,59.6362316826,verb_norming_L1-swe_no_translation,001,803,
VADA,Armar/händer,armar/händer,0,136,136,165,0,1,1,1,1,0.875,,,2018_Sep_10_1352,59.6362316826,verb_norming_L1-swe_no_translation,001,803,
VADA,,,0,136,136,165,,,,,,,,,2018_Sep_10_1352,59.6362316826,verb_norming_L1-swe_no_translation,001,803,
SLIPA,Ben/fötter,ben/fötter,0,137,137,81,0,0,0,0,1,3.155,,,2018_Sep_10_1352,59.6362316826,verb_norming_L1-swe_no_translation,001,803,
SLIPA,Armar/händer,armar/händer,0,137,137,81,0,1,1,1,7,0.773,,,2018_Sep_10_1352,59.6362316826,verb_norming_L1-swe_no_translation,001,803,
SLIPA,,,0,137,137,81,,,,,,,,,2018_Sep_10_1352,59.6362316826,verb_norming_L1-swe_no_translation,001,803,
RÖRA,Ben/fötter,ben/fötter,0,138,138,65,0,0,0,0,3,7.732,,,2018_Sep_10_1352,59.6362316826,verb_norming_L1-swe_no_translation,001,803,
RÖRA,Armar/händer,armar/händer,0,138,138,65,0,1,1,1,7,1.007,,,2018_Sep_10_1352,59.6362316826,verb_norming_L1-swe_no_translation,001,803,
RÖRA,,,0,138,138,65,,,,,,,,,2018_Sep_10_1352,59.6362316826,verb_norming_L1-swe_no_translation,001,803,
KLÖSA,Ben/fötter,ben/fötter,0,139,139,35,0,0,0,0,1,2.231,,,2018_Sep_10_1352,59.6362316826,verb_norming_L1-swe_no_translation,001,803,
KLÖSA,Armar/händer,armar/händer,0,139,139,35,0,1,1,1,7,0.805,,,2018_Sep_10_1352,59.6362316826,verb_norming_L1-swe_no_translation,001,803,
KLÖSA,,,0,139,139,35,,,,,,,,,2018_Sep_10_1352,59.6362316826,verb_norming_L1-swe_no_translation,001,803,
RIVA,Ben/fötter,ben/fötter,0,140,140,63,0,0,0,0,1,2.149,,,2018_Sep_10_1352,59.6362316826,verb_norming_L1-swe_no_translation,001,803,
RIVA,Armar/händer,armar/händer,0,140,140,63,0,1,1,1,7,0.992,,,2018_Sep_10_1352,59.6362316826,verb_norming_L1-swe_no_translation,001,803,
RIVA,,,0,140,140,63,,,,,,,,,2018_Sep_10_1352,59.6362316826,verb_norming_L1-swe_no_translation,001,803,
FLACKA,Ben/fötter,ben/fötter,0,141,141,103,0,0,0,0,1,25.006,,,2018_Sep_10_1352,59.6362316826,verb_norming_L1-swe_no_translation,001,803,
FLACKA,Armar/händer,armar/händer,0,141,141,103,0,1,1,1,1,1.226,,,2018_Sep_10_1352,59.6362316826,verb_norming_L1-swe_no_translation,001,803,
FLACKA,,,0,141,141,103,,,,,,,,,2018_Sep_10_1352,59.6362316826,verb_norming_L1-swe_no_translation,001,803,
DRA,Ben/fötter,ben/fötter,0,142,142,6,0,0,0,0,3,7.952,,,2018_Sep_10_1352,59.6362316826,verb_norming_L1-swe_no_translation,001,803,
DRA,Armar/händer,armar/händer,0,142,142,6,0,1,1,1,7,0.891,,,2018_Sep_10_1352,59.6362316826,verb_norming_L1-swe_no_translation,001,803,
DRA,,,0,142,142,6,,,,,,,,,2018_Sep_10_1352,59.6362316826,verb_norming_L1-swe_no_translation,001,803,
TRYCKA,Ben/fötter,ben/fötter,0,143,143,95,0,0,0,0,1,2.432,,,2018_Sep_10_1352,59.6362316826,verb_norming_L1-swe_no_translation,001,803,
TRYCKA,Armar/händer,armar/händer,0,143,143,95,0,1,1,1,7,0.637,,,2018_Sep_10_1352,59.6362316826,verb_norming_L1-swe_no_translation,001,803,
TRYCKA,,,0,143,143,95,,,,,,,,,2018_Sep_10_1352,59.6362316826,verb_norming_L1-swe_no_translation,001,803,
KNÄA,Ben/fötter,ben/fötter,0,144,144,118,0,0,0,0,7,5.251,,,2018_Sep_10_1352,59.6362316826,verb_norming_L1-swe_no_translation,001,803,
KNÄA,Armar/händer,armar/händer,0,144,144,118,0,1,1,1,1,2.636,,,2018_Sep_10_1352,59.6362316826,verb_norming_L1-swe_no_translation,001,803,
KNÄA,,,0,144,144,118,,,,,,,,,2018_Sep_10_1352,59.6362316826,verb_norming_L1-swe_no_translation,001,803,
SLINTA,Ben/fötter,ben/fötter,0,145,145,140,0,0,0,0,4,5.737,,,2018_Sep_10_1352,59.6362316826,verb_norming_L1-swe_no_translation,001,803,
SLINTA,Armar/händer,armar/händer,0,145,145,140,0,1,1,1,7,1.745,,,2018_Sep_10_1352,59.6362316826,verb_norming_L1-swe_no_translation,001,803,
SLINTA,,,0,145,145,140,,,,,,,,,2018_Sep_10_1352,59.6362316826,verb_norming_L1-swe_no_translation,001,803,
SVASSA,Ben/fötter,ben/fötter,0,146,146,157,0,0,0,0,7,5.016,,,2018_Sep_10_1352,59.6362316826,verb_norming_L1-swe_no_translation,001,803,
SVASSA,Armar/händer,armar/händer,0,146,146,157,0,1,1,1,1,0.723,,,2018_Sep_10_1352,59.6362316826,verb_norming_L1-swe_no_translation,001,803,
SVASSA,,,0,146,146,157,,,,,,,,,2018_Sep_10_1352,59.6362316826,verb_norming_L1-swe_no_translation,001,803,
MARSCHERA,Ben/fötter,ben/fötter,0,147,147,127,0,0,0,0,7,2.834,,,2018_Sep_10_1352,59.6362316826,verb_norming_L1-swe_no_translation,001,803,
MARSCHERA,Armar/händer,armar/händer,0,147,147,127,0,1,1,1,1,0.805,,,2018_Sep_10_1352,59.6362316826,verb_norming_L1-swe_no_translation,001,803,
MARSCHERA,,,0,147,147,127,,,,,,,,,2018_Sep_10_1352,59.6362316826,verb_norming_L1-swe_no_translation,001,803,
KELA,Ben/fötter,ben/fötter,0,148,148,28,0,0,0,0,4,6.459,,,2018_Sep_10_1352,59.6362316826,verb_norming_L1-swe_no_translation,001,803,
KELA,Armar/händer,armar/händer,0,148,148,28,0,1,1,1,6,3.592,,,2018_Sep_10_1352,59.6362316826,verb_norming_L1-swe_no_translation,001,803,
KELA,,,0,148,148,28,,,,,,,,,2018_Sep_10_1352,59.6362316826,verb_norming_L1-swe_no_translation,001,803,
TRAMPA,Ben/fötter,ben/fötter,0,149,149,161,0,0,0,0,7,2.902,,,2018_Sep_10_1352,59.6362316826,verb_norming_L1-swe_no_translation,001,803,
TRAMPA,Armar/händer,armar/händer,0,149,149,161,0,1,1,1,1,0.807,,,2018_Sep_10_1352,59.6362316826,verb_norming_L1-swe_no_translation,001,803,
TRAMPA,,,0,149,149,161,,,,,,,,,2018_Sep_10_1352,59.6362316826,verb_norming_L1-swe_no_translation,001,803,
STRUTTA,Ben/fötter,ben/fötter,0,150,150,154,0,0,0,0,7,2.314,,,2018_Sep_10_1352,59.6362316826,verb_norming_L1-swe_no_translation,001,803,
STRUTTA,Armar/händer,armar/händer,0,150,150,154,0,1,1,1,1,1.024,,,2018_Sep_10_1352,59.6362316826,verb_norming_L1-swe_no_translation,001,803,
STRUTTA,,,0,150,150,154,,,,,,,,,2018_Sep_10_1352,59.6362316826,verb_norming_L1-swe_no_translation,001,803,
KNACKA,Ben/fötter,ben/fötter,0,151,151,36,0,0,0,0,1,3.154,,,2018_Sep_10_1352,59.6362316826,verb_norming_L1-swe_no_translation,001,803,
KNACKA,Armar/händer,armar/händer,0,151,151,36,0,1,1,1,7,1.109,,,2018_Sep_10_1352,59.6362316826,verb_norming_L1-swe_no_translation,001,803,
KNACKA,,,0,151,151,36,,,,,,,,,2018_Sep_10_1352,59.6362316826,verb_norming_L1-swe_no_translation,001,803,
KRATSA,Ben/fötter,ben/fötter,0,152,152,42,0,0,0,0,4,8.806,,,2018_Sep_10_1352,59.6362316826,verb_norming_L1-swe_no_translation,001,803,
KRATSA,Armar/händer,armar/händer,0,152,152,42,0,1,1,1,6,1.679,,,2018_Sep_10_1352,59.6362316826,verb_norming_L1-swe_no_translation,001,803,
KRATSA,,,0,152,152,42,,,,,,,,,2018_Sep_10_1352,59.6362316826,verb_norming_L1-swe_no_translation,001,803,
SVAJA,Ben/fötter,ben/fötter,0,153,153,156,0,0,0,0,5,6.406,,,2018_Sep_10_1352,59.6362316826,verb_norming_L1-swe_no_translation,001,803,
SVAJA,Armar/händer,armar/händer,0,153,153,156,0,1,1,1,1,0.621,,,2018_Sep_10_1352,59.6362316826,verb_norming_L1-swe_no_translation,001,803,
SVAJA,,,0,153,153,156,,,,,,,,,2018_Sep_10_1352,59.6362316826,verb_norming_L1-swe_no_translation,001,803,
SLÄNTRA,Ben/fötter,ben/fötter,0,154,154,139,0,0,0,0,4,4.713,,,2018_Sep_10_1352,59.6362316826,verb_norming_L1-swe_no_translation,001,803,
SLÄNTRA,Armar/händer,armar/händer,0,154,154,139,0,1,1,1,3,2.366,,,2018_Sep_10_1352,59.6362316826,verb_norming_L1-swe_no_translation,001,803,
SLÄNTRA,,,0,154,154,139,,,,,,,,,2018_Sep_10_1352,59.6362316826,verb_norming_L1-swe_no_translation,001,803,
SPARKA,Ben/fötter,ben/fötter,0,155,155,144,0,0,0,0,7,2.802,,,2018_Sep_10_1352,59.6362316826,verb_norming_L1-swe_no_translation,001,803,
SPARKA,Armar/händer,armar/händer,0,155,155,144,0,1,1,1,1,1.494,,,2018_Sep_10_1352,59.6362316826,verb_norming_L1-swe_no_translation,001,803,
SPARKA,,,0,155,155,144,,,,,,,,,2018_Sep_10_1352,59.6362316826,verb_norming_L1-swe_no_translation,001,803,
FÖSA,Ben/fötter,ben/fötter,0,156,156,12,0,0,0,0,3,4.629,,,2018_Sep_10_1352,59.6362316826,verb_norming_L1-swe_no_translation,001,803,
FÖSA,Armar/händer,armar/händer,0,156,156,12,0,1,1,1,6,2.802,,,2018_Sep_10_1352,59.6362316826,verb_norming_L1-swe_no_translation,001,803,
FÖSA,,,0,156,156,12,,,,,,,,,2018_Sep_10_1352,59.6362316826,verb_norming_L1-swe_no_translation,001,803,
SKJUTA,Ben/fötter,ben/fötter,0,157,157,72,0,0,0,0,1,5.266,,,2018_Sep_10_1352,59.6362316826,verb_norming_L1-swe_no_translation,001,803,
SKJUTA,Armar/händer,armar/händer,0,157,157,72,0,1,1,1,7,0.856,,,2018_Sep_10_1352,59.6362316826,verb_norming_L1-swe_no_translation,001,803,
SKJUTA,,,0,157,157,72,,,,,,,,,2018_Sep_10_1352,59.6362316826,verb_norming_L1-swe_no_translation,001,803,
TASSA,Ben/fötter,ben/fötter,0,158,158,159,0,0,0,0,7,4.429,,,2018_Sep_10_1352,59.6362316826,verb_norming_L1-swe_no_translation,001,803,
TASSA,Armar/händer,armar/händer,0,158,158,159,0,1,1,1,1,0.806,,,2018_Sep_10_1352,59.6362316826,verb_norming_L1-swe_no_translation,001,803,
TASSA,,,0,158,158,159,,,,,,,,,2018_Sep_10_1352,59.6362316826,verb_norming_L1-swe_no_translation,001,803,
VINGLA,Ben/fötter,ben/fötter,0,159,159,168,0,0,0,0,7,4.361,,,2018_Sep_10_1352,59.6362316826,verb_norming_L1-swe_no_translation,001,803,
VINGLA,Armar/händer,armar/händer,0,159,159,168,0,1,1,1,1,1.126,,,2018_Sep_10_1352,59.6362316826,verb_norming_L1-swe_no_translation,001,803,
VINGLA,,,0,159,159,168,,,,,,,,,2018_Sep_10_1352,59.6362316826,verb_norming_L1-swe_no_translation,001,803,
SPRINTA,Ben/fötter,ben/fötter,0,160,160,146,0,0,0,0,5,4.747,,,2018_Sep_10_1352,59.6362316826,verb_norming_L1-swe_no_translation,001,803,
SPRINTA,Armar/händer,armar/händer,0,160,160,146,0,1,1,1,1,1.276,,,2018_Sep_10_1352,59.6362316826,verb_norming_L1-swe_no_translation,001,803,
SPRINTA,,,0,160,160,146,,,,,,,,,2018_Sep_10_1352,59.6362316826,verb_norming_L1-swe_no_translation,001,803,
DANSA,Ben/fötter,ben/fötter,0,161,161,102,0,0,0,0,7,4.429,,,2018_Sep_10_1352,59.6362316826,verb_norming_L1-swe_no_translation,001,803,
DANSA,Armar/händer,armar/händer,0,161,161,102,0,1,1,1,2,2.786,,,2018_Sep_10_1352,59.6362316826,verb_norming_L1-swe_no_translation,001,803,
DANSA,,,0,161,161,102,,,,,,,,,2018_Sep_10_1352,59.6362316826,verb_norming_L1-swe_no_translation,001,803,
RAKA,Ben/fötter,ben/fötter,0,162,162,59,0,0,0,0,5,5.235,,,2018_Sep_10_1352,59.6362316826,verb_norming_L1-swe_no_translation,001,803,
RAKA,Armar/händer,armar/händer,0,162,162,59,0,1,1,1,1,0.657,,,2018_Sep_10_1352,59.6362316826,verb_norming_L1-swe_no_translation,001,803,
RAKA,,,0,162,162,59,,,,,,,,,2018_Sep_10_1352,59.6362316826,verb_norming_L1-swe_no_translation,001,803,
RO,Ben/fötter,ben/fötter,0,163,163,64,0,0,0,0,1,4.509,,,2018_Sep_10_1352,59.6362316826,verb_norming_L1-swe_no_translation,001,803,
RO,Armar/händer,armar/händer,0,163,163,64,0,1,1,1,7,0.507,,,2018_Sep_10_1352,59.6362316826,verb_norming_L1-swe_no_translation,001,803,
RO,,,0,163,163,64,,,,,,,,,2018_Sep_10_1352,59.6362316826,verb_norming_L1-swe_no_translation,001,803,
KILA,Ben/fötter,ben/fötter,0,164,164,115,0,0,0,0,5,6.174,,,2018_Sep_10_1352,59.6362316826,verb_norming_L1-swe_no_translation,001,803,
KILA,Armar/händer,armar/händer,0,164,164,115,0,1,1,1,1,0.64,,,2018_Sep_10_1352,59.6362316826,verb_norming_L1-swe_no_translation,001,803,
KILA,,,0,164,164,115,,,,,,,,,2018_Sep_10_1352,59.6362316826,verb_norming_L1-swe_no_translation,001,803,
SNÄRTA,Ben/fötter,ben/fötter,0,165,165,86,0,0,0,0,1,3.489,,,2018_Sep_10_1352,59.6362316826,verb_norming_L1-swe_no_translation,001,803,
SNÄRTA,Armar/händer,armar/händer,0,165,165,86,0,1,1,1,7,3.943,,,2018_Sep_10_1352,59.6362316826,verb_norming_L1-swe_no_translation,001,803,
SNÄRTA,,,0,165,165,86,,,,,,,,,2018_Sep_10_1352,59.6362316826,verb_norming_L1-swe_no_translation,001,803,
PLOCKA,Ben/fötter,ben/fötter,0,166,166,53,0,0,0,0,1,3.389,,,2018_Sep_10_1352,59.6362316826,verb_norming_L1-swe_no_translation,001,803,
PLOCKA,Armar/händer,armar/händer,0,166,166,53,0,1,1,1,7,0.689,,,2018_Sep_10_1352,59.6362316826,verb_norming_L1-swe_no_translation,001,803,
PLOCKA,,,0,166,166,53,,,,,,,,,2018_Sep_10_1352,59.6362316826,verb_norming_L1-swe_no_translation,001,803,
FÅNGA,Ben/fötter,ben/fötter,0,167,167,8,0,0,0,0,1,3.755,,,2018_Sep_10_1352,59.6362316826,verb_norming_L1-swe_no_translation,001,803,
FÅNGA,Armar/händer,armar/händer,0,167,167,8,0,1,1,1,7,1.375,,,2018_Sep_10_1352,59.6362316826,verb_norming_L1-swe_no_translation,001,803,
FÅNGA,,,0,167,167,8,,,,,,,,,2018_Sep_10_1352,59.6362316826,verb_norming_L1-swe_no_translation,001,803,
TVINNA,Ben/fötter,ben/fötter,0,168,168,97,0,0,0,0,1,2.198,,,2018_Sep_10_1352,59.6362316826,verb_norming_L1-swe_no_translation,001,803,
TVINNA,Armar/händer,armar/händer,0,168,168,97,0,1,1,1,7,0.738,,,2018_Sep_10_1352,59.6362316826,verb_norming_L1-swe_no_translation,001,803,
TVINNA,,,0,168,168,97,,,,,,,,,2018_Sep_10_1352,59.6362316826,verb_norming_L1-swe_no_translation,001,803,
,,,,,,,,,,,,,space,14.8260715127,2018_Sep_10_1352,59.6362316826,verb_norming_L1-swe_no_translation,001,803,
