word,category,category_lowercase,trials.thisRepN,trials.thisTrialN,trials.thisN,trials.thisIndex,armleg_loop.thisRepN,armleg_loop.thisTrialN,armleg_loop.thisN,armleg_loop.thisIndex,rating.response,rating.rt,key_resp_7.keys,key_resp_7.rt,date,frameRate,expName,session,participant,
CLEAN,Arm,arm,0,0,0,9,0,0,0,0,7,18.208,,,2018_Sep_11_1206,59.6269848749,verb_norming_L2-eng_oral_translation,001,804,
CLEAN,Leg,leg,0,0,0,9,0,1,1,1,2,63.994,,,2018_Sep_11_1206,59.6269848749,verb_norming_L2-eng_oral_translation,001,804,
CLEAN,,,0,0,0,9,,,,,,,return,8.93940006962,2018_Sep_11_1206,59.6269848749,verb_norming_L2-eng_oral_translation,001,804,
BASH,Arm,arm,0,1,1,0,0,0,0,0,5,48.009,,,2018_Sep_11_1206,59.6269848749,verb_norming_L2-eng_oral_translation,001,804,
BASH,Leg,leg,0,1,1,0,0,1,1,1,2,6.453,,,2018_Sep_11_1206,59.6269848749,verb_norming_L2-eng_oral_translation,001,804,
BASH,,,0,1,1,0,,,,,,,return,3.3043525159,2018_Sep_11_1206,59.6269848749,verb_norming_L2-eng_oral_translation,001,804,
STRIDE,Arm,arm,0,2,2,107,0,0,0,0,1,20.972,,,2018_Sep_11_1206,59.6269848749,verb_norming_L2-eng_oral_translation,001,804,
STRIDE,Leg,leg,0,2,2,107,0,1,1,1,6,10.829,,,2018_Sep_11_1206,59.6269848749,verb_norming_L2-eng_oral_translation,001,804,
STRIDE,,,0,2,2,107,,,,,,,return,3.70675843278,2018_Sep_11_1206,59.6269848749,verb_norming_L2-eng_oral_translation,001,804,
JOG,Arm,arm,0,3,3,73,0,0,0,0,1,5.104,,,2018_Sep_11_1206,59.6269848749,verb_norming_L2-eng_oral_translation,001,804,
JOG,Leg,leg,0,3,3,73,0,1,1,1,7,6.418,,,2018_Sep_11_1206,59.6269848749,verb_norming_L2-eng_oral_translation,001,804,
JOG,,,0,3,3,73,,,,,,,return,1.72778669634,2018_Sep_11_1206,59.6269848749,verb_norming_L2-eng_oral_translation,001,804,
CREEP,Arm,arm,0,4,4,61,0,0,0,0,1,26.072,,,2018_Sep_11_1206,59.6269848749,verb_norming_L2-eng_oral_translation,001,804,
CREEP,Leg,leg,0,4,4,61,0,1,1,1,5,4.523,,,2018_Sep_11_1206,59.6269848749,verb_norming_L2-eng_oral_translation,001,804,
CREEP,,,0,4,4,61,,,,,,,return,7.78221774077,2018_Sep_11_1206,59.6269848749,verb_norming_L2-eng_oral_translation,001,804,
GRIP,Arm,arm,0,5,5,21,0,0,0,0,7,3.632,,,2018_Sep_11_1206,59.6269848749,verb_norming_L2-eng_oral_translation,001,804,
GRIP,Leg,leg,0,5,5,21,0,1,1,1,1,21.412,,,2018_Sep_11_1206,59.6269848749,verb_norming_L2-eng_oral_translation,001,804,
GRIP,,,0,5,5,21,,,,,,,return,2.73292275913,2018_Sep_11_1206,59.6269848749,verb_norming_L2-eng_oral_translation,001,804,
RUSH,Arm,arm,0,6,6,89,0,0,0,0,3,12.555,,,2018_Sep_11_1206,59.6269848749,verb_norming_L2-eng_oral_translation,001,804,
RUSH,Leg,leg,0,6,6,89,0,1,1,1,7,25.136,,,2018_Sep_11_1206,59.6269848749,verb_norming_L2-eng_oral_translation,001,804,
RUSH,,,0,6,6,89,,,,,,,return,16.8724412043,2018_Sep_11_1206,59.6269848749,verb_norming_L2-eng_oral_translation,001,804,
POLISH,Arm,arm,0,7,7,32,0,0,0,0,7,3.548,,,2018_Sep_11_1206,59.6269848749,verb_norming_L2-eng_oral_translation,001,804,
POLISH,Leg,leg,0,7,7,32,0,1,1,1,1,2.025,,,2018_Sep_11_1206,59.6269848749,verb_norming_L2-eng_oral_translation,001,804,
POLISH,,,0,7,7,32,,,,,,,return,1.72786334809,2018_Sep_11_1206,59.6269848749,verb_norming_L2-eng_oral_translation,001,804,
WADE,Arm,arm,0,8,8,124,0,0,0,0,1,3.985,,,2018_Sep_11_1206,59.6269848749,verb_norming_L2-eng_oral_translation,001,804,
WADE,Leg,leg,0,8,8,124,0,1,1,1,7,6.722,,,2018_Sep_11_1206,59.6269848749,verb_norming_L2-eng_oral_translation,001,804,
WADE,,,0,8,8,124,,,,,,,return,1.57690719645,2018_Sep_11_1206,59.6269848749,verb_norming_L2-eng_oral_translation,001,804,
SKIP,Arm,arm,0,9,9,93,0,0,0,0,2,7.088,,,2018_Sep_11_1206,59.6269848749,verb_norming_L2-eng_oral_translation,001,804,
SKIP,Leg,leg,0,9,9,93,0,1,1,1,7,10.595,,,2018_Sep_11_1206,59.6269848749,verb_norming_L2-eng_oral_translation,001,804,
SKIP,,,0,9,9,93,,,,,,,return,5.249789504,2018_Sep_11_1206,59.6269848749,verb_norming_L2-eng_oral_translation,001,804,
STAB,Arm,arm,0,10,10,49,0,0,0,0,7,5.124,,,2018_Sep_11_1206,59.6269848749,verb_norming_L2-eng_oral_translation,001,804,
STAB,Leg,leg,0,10,10,49,0,1,1,1,1,3.098,,,2018_Sep_11_1206,59.6269848749,verb_norming_L2-eng_oral_translation,001,804,
STAB,,,0,10,10,49,,,,,,,return,20.2093809897,2018_Sep_11_1206,59.6269848749,verb_norming_L2-eng_oral_translation,001,804,
BRAID,Arm,arm,0,11,11,2,0,0,0,0,7,3.196,,,2018_Sep_11_1206,59.6269848749,verb_norming_L2-eng_oral_translation,001,804,
BRAID,Leg,leg,0,11,11,2,0,1,1,1,1,0.851,,,2018_Sep_11_1206,59.6269848749,verb_norming_L2-eng_oral_translation,001,804,
BRAID,,,0,11,11,2,,,,,,,return,1.84529107319,2018_Sep_11_1206,59.6269848749,verb_norming_L2-eng_oral_translation,001,804,
THROW,Arm,arm,0,12,12,52,0,0,0,0,7,2.475,,,2018_Sep_11_1206,59.6269848749,verb_norming_L2-eng_oral_translation,001,804,
THROW,Leg,leg,0,12,12,52,0,1,1,1,1,7.19,,,2018_Sep_11_1206,59.6269848749,verb_norming_L2-eng_oral_translation,001,804,
THROW,,,0,12,12,52,,,,,,,return,1.3755509345,2018_Sep_11_1206,59.6269848749,verb_norming_L2-eng_oral_translation,001,804,
INCH,Arm,arm,0,13,13,72,0,0,0,0,5,14.417,,,2018_Sep_11_1206,59.6269848749,verb_norming_L2-eng_oral_translation,001,804,
INCH,Leg,leg,0,13,13,72,0,1,1,1,2,1.371,,,2018_Sep_11_1206,59.6269848749,verb_norming_L2-eng_oral_translation,001,804,
INCH,,,0,13,13,72,,,,,,,return,3.63981892801,2018_Sep_11_1206,59.6269848749,verb_norming_L2-eng_oral_translation,001,804,
GRATE,Arm,arm,0,14,14,20,0,0,0,0,7,8.176,,,2018_Sep_11_1206,59.6269848749,verb_norming_L2-eng_oral_translation,001,804,
GRATE,Leg,leg,0,14,14,20,0,1,1,1,2,6.318,,,2018_Sep_11_1206,59.6269848749,verb_norming_L2-eng_oral_translation,001,804,
GRATE,,,0,14,14,20,,,,,,,return,1.76141548136,2018_Sep_11_1206,59.6269848749,verb_norming_L2-eng_oral_translation,001,804,
CLUTCH,Arm,arm,0,15,15,11,0,0,0,0,7,17.25,,,2018_Sep_11_1206,59.6269848749,verb_norming_L2-eng_oral_translation,001,804,
CLUTCH,Leg,leg,0,15,15,11,0,1,1,1,2,2.108,,,2018_Sep_11_1206,59.6269848749,verb_norming_L2-eng_oral_translation,001,804,
CLUTCH,,,0,15,15,11,,,,,,,return,2.23089405582,2018_Sep_11_1206,59.6269848749,verb_norming_L2-eng_oral_translation,001,804,
CROUCH,Arm,arm,0,16,16,62,0,0,0,0,5,8.864,,,2018_Sep_11_1206,59.6269848749,verb_norming_L2-eng_oral_translation,001,804,
CROUCH,Leg,leg,0,16,16,62,0,1,1,1,7,2.394,,,2018_Sep_11_1206,59.6269848749,verb_norming_L2-eng_oral_translation,001,804,
CROUCH,,,0,16,16,62,,,,,,,return,4.96455093331,2018_Sep_11_1206,59.6269848749,verb_norming_L2-eng_oral_translation,001,804,
SQUEEZE,Arm,arm,0,17,17,48,0,0,0,0,7,3.893,,,2018_Sep_11_1206,59.6269848749,verb_norming_L2-eng_oral_translation,001,804,
SQUEEZE,Leg,leg,0,17,17,48,0,1,1,1,1,4.486,,,2018_Sep_11_1206,59.6269848749,verb_norming_L2-eng_oral_translation,001,804,
SQUEEZE,,,0,17,17,48,,,,,,,return,3.94150957337,2018_Sep_11_1206,59.6269848749,verb_norming_L2-eng_oral_translation,001,804,
TROT,Arm,arm,0,18,18,121,0,0,0,0,2,15.104,,,2018_Sep_11_1206,59.6269848749,verb_norming_L2-eng_oral_translation,001,804,
TROT,Leg,leg,0,18,18,121,0,1,1,1,5,1.254,,,2018_Sep_11_1206,59.6269848749,verb_norming_L2-eng_oral_translation,001,804,
TROT,,,0,18,18,121,,,,,,,return,7.14483981561,2018_Sep_11_1206,59.6269848749,verb_norming_L2-eng_oral_translation,001,804,
PULL,Arm,arm,0,19,19,33,0,0,0,0,7,6.953,,,2018_Sep_11_1206,59.6269848749,verb_norming_L2-eng_oral_translation,001,804,
PULL,Leg,leg,0,19,19,33,0,1,1,1,1,2.227,,,2018_Sep_11_1206,59.6269848749,verb_norming_L2-eng_oral_translation,001,804,
PULL,,,0,19,19,33,,,,,,,return,6.54123884253,2018_Sep_11_1206,59.6269848749,verb_norming_L2-eng_oral_translation,001,804,
CLAW,Arm,arm,0,20,20,8,0,0,0,0,7,11.901,,,2018_Sep_11_1206,59.6269848749,verb_norming_L2-eng_oral_translation,001,804,
CLAW,Leg,leg,0,20,20,8,0,1,1,1,3,2.73,,,2018_Sep_11_1206,59.6269848749,verb_norming_L2-eng_oral_translation,001,804,
CLAW,,,0,20,20,8,,,,,,,return,34.9345239906,2018_Sep_11_1206,59.6269848749,verb_norming_L2-eng_oral_translation,001,804,
MARCH,Arm,arm,0,21,21,80,0,0,0,0,2,5.407,,,2018_Sep_11_1206,59.6269848749,verb_norming_L2-eng_oral_translation,001,804,
MARCH,Leg,leg,0,21,21,80,0,1,1,1,7,2.058,,,2018_Sep_11_1206,59.6269848749,verb_norming_L2-eng_oral_translation,001,804,
MARCH,,,0,21,21,80,,,,,,,return,1.66058997356,2018_Sep_11_1206,59.6269848749,verb_norming_L2-eng_oral_translation,001,804,
STEP,Arm,arm,0,22,22,103,0,0,0,0,1,4.404,,,2018_Sep_11_1206,59.6269848749,verb_norming_L2-eng_oral_translation,001,804,
STEP,Leg,leg,0,22,22,103,0,1,1,1,7,2.981,,,2018_Sep_11_1206,59.6269848749,verb_norming_L2-eng_oral_translation,001,804,
STEP,,,0,22,22,103,,,,,,,return,3.97520592257,2018_Sep_11_1206,59.6269848749,verb_norming_L2-eng_oral_translation,001,804,
DANCE,Arm,arm,0,23,23,64,0,0,0,0,6,10.928,,,2018_Sep_11_1206,59.6269848749,verb_norming_L2-eng_oral_translation,001,804,
DANCE,Leg,leg,0,23,23,64,0,1,1,1,6,2.327,,,2018_Sep_11_1206,59.6269848749,verb_norming_L2-eng_oral_translation,001,804,
DANCE,,,0,23,23,64,,,,,,,return,1.0738136659,2018_Sep_11_1206,59.6269848749,verb_norming_L2-eng_oral_translation,001,804,
SLAP,Arm,arm,0,24,24,46,0,0,0,0,7,3.763,,,2018_Sep_11_1206,59.6269848749,verb_norming_L2-eng_oral_translation,001,804,
SLAP,Leg,leg,0,24,24,46,0,1,1,1,1,0.935,,,2018_Sep_11_1206,59.6269848749,verb_norming_L2-eng_oral_translation,001,804,
SLAP,,,0,24,24,46,,,,,,,return,4.98134557022,2018_Sep_11_1206,59.6269848749,verb_norming_L2-eng_oral_translation,001,804,
GRASP,Arm,arm,0,25,25,19,0,0,0,0,7,8.629,,,2018_Sep_11_1206,59.6269848749,verb_norming_L2-eng_oral_translation,001,804,
GRASP,Leg,leg,0,25,25,19,0,1,1,1,1,3.332,,,2018_Sep_11_1206,59.6269848749,verb_norming_L2-eng_oral_translation,001,804,
GRASP,,,0,25,25,19,,,,,,,return,2.93525889921,2018_Sep_11_1206,59.6269848749,verb_norming_L2-eng_oral_translation,001,804,
DUNK,Arm,arm,0,26,26,14,0,0,0,0,7,5.528,,,2018_Sep_11_1206,59.6269848749,verb_norming_L2-eng_oral_translation,001,804,
DUNK,Leg,leg,0,26,26,14,0,1,1,1,5,15.56,,,2018_Sep_11_1206,59.6269848749,verb_norming_L2-eng_oral_translation,001,804,
DUNK,,,0,26,26,14,,,,,,,return,48.4522967276,2018_Sep_11_1206,59.6269848749,verb_norming_L2-eng_oral_translation,001,804,
PLUCK,Arm,arm,0,27,27,30,0,0,0,0,6,10.961,,,2018_Sep_11_1206,59.6269848749,verb_norming_L2-eng_oral_translation,001,804,
PLUCK,Leg,leg,0,27,27,30,0,1,1,1,1,19.416,,,2018_Sep_11_1206,59.6269848749,verb_norming_L2-eng_oral_translation,001,804,
PLUCK,,,0,27,27,30,,,,,,,return,21.5011389108,2018_Sep_11_1206,59.6269848749,verb_norming_L2-eng_oral_translation,001,804,
PACE,Arm,arm,0,28,28,82,0,0,0,0,2,5.863,,,2018_Sep_11_1206,59.6269848749,verb_norming_L2-eng_oral_translation,001,804,
PACE,Leg,leg,0,28,28,82,0,1,1,1,7,2.579,,,2018_Sep_11_1206,59.6269848749,verb_norming_L2-eng_oral_translation,001,804,
PACE,,,0,28,28,82,,,,,,,return,2.60003943219,2018_Sep_11_1206,59.6269848749,verb_norming_L2-eng_oral_translation,001,804,
TOSS,Arm,arm,0,29,29,53,0,0,0,0,7,4.22,,,2018_Sep_11_1206,59.6269848749,verb_norming_L2-eng_oral_translation,001,804,
TOSS,Leg,leg,0,29,29,53,0,1,1,1,1,4.507,,,2018_Sep_11_1206,59.6269848749,verb_norming_L2-eng_oral_translation,001,804,
TOSS,,,0,29,29,53,,,,,,,return,16.4360291703,2018_Sep_11_1206,59.6269848749,verb_norming_L2-eng_oral_translation,001,804,
TREAD,Arm,arm,0,30,30,118,0,0,0,0,6,6.802,,,2018_Sep_11_1206,59.6269848749,verb_norming_L2-eng_oral_translation,001,804,
TREAD,Leg,leg,0,30,30,118,0,1,1,1,1,4.323,,,2018_Sep_11_1206,59.6269848749,verb_norming_L2-eng_oral_translation,001,804,
TREAD,,,0,30,30,118,,,,,,,return,4.05905938812,2018_Sep_11_1206,59.6269848749,verb_norming_L2-eng_oral_translation,001,804,
WHIP,Arm,arm,0,31,31,57,0,0,0,0,7,6.416,,,2018_Sep_11_1206,59.6269848749,verb_norming_L2-eng_oral_translation,001,804,
WHIP,Leg,leg,0,31,31,57,0,1,1,1,1,0.986,,,2018_Sep_11_1206,59.6269848749,verb_norming_L2-eng_oral_translation,001,804,
WHIP,,,0,31,31,57,,,,,,,return,21.8700057331,2018_Sep_11_1206,59.6269848749,verb_norming_L2-eng_oral_translation,001,804,
SLITHER,Arm,arm,0,32,32,96,0,0,0,0,6,16.545,,,2018_Sep_11_1206,59.6269848749,verb_norming_L2-eng_oral_translation,001,804,
SLITHER,Leg,leg,0,32,32,96,0,1,1,1,2,1.017,,,2018_Sep_11_1206,59.6269848749,verb_norming_L2-eng_oral_translation,001,804,
SLITHER,,,0,32,32,96,,,,,,,return,1.59362241582,2018_Sep_11_1206,59.6269848749,verb_norming_L2-eng_oral_translation,001,804,
PUSH,Arm,arm,0,33,33,35,0,0,0,0,7,7.338,,,2018_Sep_11_1206,59.6269848749,verb_norming_L2-eng_oral_translation,001,804,
PUSH,Leg,leg,0,33,33,35,0,1,1,1,3,4.34,,,2018_Sep_11_1206,59.6269848749,verb_norming_L2-eng_oral_translation,001,804,
PUSH,,,0,33,33,35,,,,,,,return,12.8469560758,2018_Sep_11_1206,59.6269848749,verb_norming_L2-eng_oral_translation,001,804,
SLIP,Arm,arm,0,34,34,95,0,0,0,0,4,13.578,,,2018_Sep_11_1206,59.6269848749,verb_norming_L2-eng_oral_translation,001,804,
SLIP,Leg,leg,0,34,34,95,0,1,1,1,7,0.867,,,2018_Sep_11_1206,59.6269848749,verb_norming_L2-eng_oral_translation,001,804,
SLIP,,,0,34,34,95,,,,,,,return,1.27507233516,2018_Sep_11_1206,59.6269848749,verb_norming_L2-eng_oral_translation,001,804,
TRIP,Arm,arm,0,35,35,120,0,0,0,0,3,6.618,,,2018_Sep_11_1206,59.6269848749,verb_norming_L2-eng_oral_translation,001,804,
TRIP,Leg,leg,0,35,35,120,0,1,1,1,6,4.155,,,2018_Sep_11_1206,59.6269848749,verb_norming_L2-eng_oral_translation,001,804,
TRIP,,,0,35,35,120,,,,,,,return,12.2937137262,2018_Sep_11_1206,59.6269848749,verb_norming_L2-eng_oral_translation,001,804,
TODDLE,Arm,arm,0,36,36,113,0,0,0,0,6,8.814,,,2018_Sep_11_1206,59.6269848749,verb_norming_L2-eng_oral_translation,001,804,
TODDLE,Leg,leg,0,36,36,113,0,1,1,1,2,1.974,,,2018_Sep_11_1206,59.6269848749,verb_norming_L2-eng_oral_translation,001,804,
TODDLE,,,0,36,36,113,,,,,,,return,2.28018587656,2018_Sep_11_1206,59.6269848749,verb_norming_L2-eng_oral_translation,001,804,
STAND,Arm,arm,0,37,37,102,0,0,0,0,1,5.728,,,2018_Sep_11_1206,59.6269848749,verb_norming_L2-eng_oral_translation,001,804,
STAND,Leg,leg,0,37,37,102,0,1,1,1,7,4.356,,,2018_Sep_11_1206,59.6269848749,verb_norming_L2-eng_oral_translation,001,804,
STAND,,,0,37,37,102,,,,,,,return,2.11352401709,2018_Sep_11_1206,59.6269848749,verb_norming_L2-eng_oral_translation,001,804,
LEAP,Arm,arm,0,38,38,77,0,0,0,0,4,5.595,,,2018_Sep_11_1206,59.6269848749,verb_norming_L2-eng_oral_translation,001,804,
LEAP,Leg,leg,0,38,38,77,0,1,1,1,7,1.589,,,2018_Sep_11_1206,59.6269848749,verb_norming_L2-eng_oral_translation,001,804,
LEAP,,,0,38,38,77,,,,,,,return,4.19312686616,2018_Sep_11_1206,59.6269848749,verb_norming_L2-eng_oral_translation,001,804,
SHAKE,Arm,arm,0,39,39,43,0,0,0,0,5,6.768,,,2018_Sep_11_1206,59.6269848749,verb_norming_L2-eng_oral_translation,001,804,
SHAKE,Leg,leg,0,39,39,43,0,1,1,1,6,2.495,,,2018_Sep_11_1206,59.6269848749,verb_norming_L2-eng_oral_translation,001,804,
SHAKE,,,0,39,39,43,,,,,,,return,2.04639248781,2018_Sep_11_1206,59.6269848749,verb_norming_L2-eng_oral_translation,001,804,
RUB,Arm,arm,0,40,40,37,0,0,0,0,7,4.455,,,2018_Sep_11_1206,59.6269848749,verb_norming_L2-eng_oral_translation,001,804,
RUB,Leg,leg,0,40,40,37,0,1,1,1,3,2.194,,,2018_Sep_11_1206,59.6269848749,verb_norming_L2-eng_oral_translation,001,804,
RUB,,,0,40,40,37,,,,,,,return,4.4613969506,2018_Sep_11_1206,59.6269848749,verb_norming_L2-eng_oral_translation,001,804,
RAMBLE,Arm,arm,0,41,41,86,0,0,0,0,4,52.619,,,2018_Sep_11_1206,59.6269848749,verb_norming_L2-eng_oral_translation,001,804,
RAMBLE,Leg,leg,0,41,41,86,0,1,1,1,4,0.949,,,2018_Sep_11_1206,59.6269848749,verb_norming_L2-eng_oral_translation,001,804,
RAMBLE,,,0,41,41,86,,,,,,,return,18.5827694754,2018_Sep_11_1206,59.6269848749,verb_norming_L2-eng_oral_translation,001,804,
CUT,Arm,arm,0,42,42,12,0,0,0,0,7,3.649,,,2018_Sep_11_1206,59.6269848749,verb_norming_L2-eng_oral_translation,001,804,
CUT,Leg,leg,0,42,42,12,0,1,1,1,1,1.321,,,2018_Sep_11_1206,59.6269848749,verb_norming_L2-eng_oral_translation,001,804,
CUT,,,0,42,42,12,,,,,,,return,1.09056207469,2018_Sep_11_1206,59.6269848749,verb_norming_L2-eng_oral_translation,001,804,
LIFT,Arm,arm,0,43,43,25,0,0,0,0,6,7.037,,,2018_Sep_11_1206,59.6269848749,verb_norming_L2-eng_oral_translation,001,804,
LIFT,Leg,leg,0,43,43,25,0,1,1,1,4,2.83,,,2018_Sep_11_1206,59.6269848749,verb_norming_L2-eng_oral_translation,001,804,
LIFT,,,0,43,43,25,,,,,,,return,1.40920421648,2018_Sep_11_1206,59.6269848749,verb_norming_L2-eng_oral_translation,001,804,
LIMP,Arm,arm,0,44,44,78,0,0,0,0,2,6.096,,,2018_Sep_11_1206,59.6269848749,verb_norming_L2-eng_oral_translation,001,804,
LIMP,Leg,leg,0,44,44,78,0,1,1,1,7,2.125,,,2018_Sep_11_1206,59.6269848749,verb_norming_L2-eng_oral_translation,001,804,
LIMP,,,0,44,44,78,,,,,,,return,2.19727159258,2018_Sep_11_1206,59.6269848749,verb_norming_L2-eng_oral_translation,001,804,
SKATE,Arm,arm,0,45,45,92,0,0,0,0,2,10.71,,,2018_Sep_11_1206,59.6269848749,verb_norming_L2-eng_oral_translation,001,804,
SKATE,Leg,leg,0,45,45,92,0,1,1,1,6,4.253,,,2018_Sep_11_1206,59.6269848749,verb_norming_L2-eng_oral_translation,001,804,
SKATE,,,0,45,45,92,,,,,,,return,18.7504088423,2018_Sep_11_1206,59.6269848749,verb_norming_L2-eng_oral_translation,001,804,
SPRINT,Arm,arm,0,46,46,98,0,0,0,0,3,7.858,,,2018_Sep_11_1206,59.6269848749,verb_norming_L2-eng_oral_translation,001,804,
SPRINT,Leg,leg,0,46,46,98,0,1,1,1,7,1.655,,,2018_Sep_11_1206,59.6269848749,verb_norming_L2-eng_oral_translation,001,804,
SPRINT,,,0,46,46,98,,,,,,,return,2.43210333605,2018_Sep_11_1206,59.6269848749,verb_norming_L2-eng_oral_translation,001,804,
TIPTOE,Arm,arm,0,47,47,112,0,0,0,0,2,8.545,,,2018_Sep_11_1206,59.6269848749,verb_norming_L2-eng_oral_translation,001,804,
TIPTOE,Leg,leg,0,47,47,112,0,1,1,1,6,13.831,,,2018_Sep_11_1206,59.6269848749,verb_norming_L2-eng_oral_translation,001,804,
TIPTOE,,,0,47,47,112,,,,,,,return,2.59973124472,2018_Sep_11_1206,59.6269848749,verb_norming_L2-eng_oral_translation,001,804,
STAMP,Arm,arm,0,48,48,101,0,0,0,0,1,6.314,,,2018_Sep_11_1206,59.6269848749,verb_norming_L2-eng_oral_translation,001,804,
STAMP,Leg,leg,0,48,48,101,0,1,1,1,7,1.352,,,2018_Sep_11_1206,59.6269848749,verb_norming_L2-eng_oral_translation,001,804,
STAMP,,,0,48,48,101,,,,,,,return,2.53286997215,2018_Sep_11_1206,59.6269848749,verb_norming_L2-eng_oral_translation,001,804,
SWITCH,Arm,arm,0,49,49,51,0,0,0,0,3,12.017,,,2018_Sep_11_1206,59.6269848749,verb_norming_L2-eng_oral_translation,001,804,
SWITCH,Leg,leg,0,49,49,51,0,1,1,1,4,6.62,,,2018_Sep_11_1206,59.6269848749,verb_norming_L2-eng_oral_translation,001,804,
SWITCH,,,0,49,49,51,,,,,,,return,1.87884518202,2018_Sep_11_1206,59.6269848749,verb_norming_L2-eng_oral_translation,001,804,
GRAB,Arm,arm,0,50,50,18,0,0,0,0,7,4.872,,,2018_Sep_11_1206,59.6269848749,verb_norming_L2-eng_oral_translation,001,804,
GRAB,Leg,leg,0,50,50,18,0,1,1,1,3,7.592,,,2018_Sep_11_1206,59.6269848749,verb_norming_L2-eng_oral_translation,001,804,
GRAB,,,0,50,50,18,,,,,,,return,5.21627964773,2018_Sep_11_1206,59.6269848749,verb_norming_L2-eng_oral_translation,001,804,
BIND,Arm,arm,0,51,51,1,0,0,0,0,7,12.538,,,2018_Sep_11_1206,59.6269848749,verb_norming_L2-eng_oral_translation,001,804,
BIND,Leg,leg,0,51,51,1,0,1,1,1,2,1.338,,,2018_Sep_11_1206,59.6269848749,verb_norming_L2-eng_oral_translation,001,804,
BIND,,,0,51,51,1,,,,,,,return,2.58318236757,2018_Sep_11_1206,59.6269848749,verb_norming_L2-eng_oral_translation,001,804,
DASH,Arm,arm,0,52,52,65,0,0,0,0,5,6.668,,,2018_Sep_11_1206,59.6269848749,verb_norming_L2-eng_oral_translation,001,804,
DASH,Leg,leg,0,52,52,65,0,1,1,1,3,3.988,,,2018_Sep_11_1206,59.6269848749,verb_norming_L2-eng_oral_translation,001,804,
DASH,,,0,52,52,65,,,,,,,return,3.67297318334,2018_Sep_11_1206,59.6269848749,verb_norming_L2-eng_oral_translation,001,804,
JUMP,Arm,arm,0,53,53,74,0,0,0,0,3,4.738,,,2018_Sep_11_1206,59.6269848749,verb_norming_L2-eng_oral_translation,001,804,
JUMP,Leg,leg,0,53,53,74,0,1,1,1,7,3.466,,,2018_Sep_11_1206,59.6269848749,verb_norming_L2-eng_oral_translation,001,804,
JUMP,,,0,53,53,74,,,,,,,return,1.89504478004,2018_Sep_11_1206,59.6269848749,verb_norming_L2-eng_oral_translation,001,804,
SNATCH,Arm,arm,0,54,54,47,0,0,0,0,6,12.67,,,2018_Sep_11_1206,59.6269848749,verb_norming_L2-eng_oral_translation,001,804,
SNATCH,Leg,leg,0,54,54,47,0,1,1,1,2,5.496,,,2018_Sep_11_1206,59.6269848749,verb_norming_L2-eng_oral_translation,001,804,
SNATCH,,,0,54,54,47,,,,,,,return,9.79460569191,2018_Sep_11_1206,59.6269848749,verb_norming_L2-eng_oral_translation,001,804,
TRAIPSE,Arm,arm,0,55,55,115,0,0,0,0,4,4.571,,,2018_Sep_11_1206,59.6269848749,verb_norming_L2-eng_oral_translation,001,804,
TRAIPSE,Leg,leg,0,55,55,115,0,1,1,1,4,0.95,,,2018_Sep_11_1206,59.6269848749,verb_norming_L2-eng_oral_translation,001,804,
TRAIPSE,,,0,55,55,115,,,,,,,return,2.95204365831,2018_Sep_11_1206,59.6269848749,verb_norming_L2-eng_oral_translation,001,804,
DIG,Arm,arm,0,56,56,13,0,0,0,0,7,3.279,,,2018_Sep_11_1206,59.6269848749,verb_norming_L2-eng_oral_translation,001,804,
DIG,Leg,leg,0,56,56,13,0,1,1,1,5,5.462,,,2018_Sep_11_1206,59.6269848749,verb_norming_L2-eng_oral_translation,001,804,
DIG,,,0,56,56,13,,,,,,,return,1.27499212739,2018_Sep_11_1206,59.6269848749,verb_norming_L2-eng_oral_translation,001,804,
TWINE,Arm,arm,0,57,57,55,0,0,0,0,4,5.393,,,2018_Sep_11_1206,59.6269848749,verb_norming_L2-eng_oral_translation,001,804,
TWINE,Leg,leg,0,57,57,55,0,1,1,1,4,0.566,,,2018_Sep_11_1206,59.6269848749,verb_norming_L2-eng_oral_translation,001,804,
TWINE,,,0,57,57,55,,,,,,,return,2.65056795396,2018_Sep_11_1206,59.6269848749,verb_norming_L2-eng_oral_translation,001,804,
CATCH,Arm,arm,0,58,58,5,0,0,0,0,7,5.594,,,2018_Sep_11_1206,59.6269848749,verb_norming_L2-eng_oral_translation,001,804,
CATCH,Leg,leg,0,58,58,5,0,1,1,1,5,4.004,,,2018_Sep_11_1206,59.6269848749,verb_norming_L2-eng_oral_translation,001,804,
CATCH,,,0,58,58,5,,,,,,,return,2.44893432327,2018_Sep_11_1206,59.6269848749,verb_norming_L2-eng_oral_translation,001,804,
NIP,Arm,arm,0,59,59,26,0,0,0,0,6,12.32,,,2018_Sep_11_1206,59.6269848749,verb_norming_L2-eng_oral_translation,001,804,
NIP,Leg,leg,0,59,59,26,0,1,1,1,4,1.036,,,2018_Sep_11_1206,59.6269848749,verb_norming_L2-eng_oral_translation,001,804,
NIP,,,0,59,59,26,,,,,,,return,1.66085351336,2018_Sep_11_1206,59.6269848749,verb_norming_L2-eng_oral_translation,001,804,
STIR,Arm,arm,0,60,60,50,0,0,0,0,7,6.719,,,2018_Sep_11_1206,59.6269848749,verb_norming_L2-eng_oral_translation,001,804,
STIR,Leg,leg,0,60,60,50,0,1,1,1,1,1.858,,,2018_Sep_11_1206,59.6269848749,verb_norming_L2-eng_oral_translation,001,804,
STIR,,,0,60,60,50,,,,,,,return,3.20364159061,2018_Sep_11_1206,59.6269848749,verb_norming_L2-eng_oral_translation,001,804,
SLIDE,Arm,arm,0,61,61,94,0,0,0,0,5,8.411,,,2018_Sep_11_1206,59.6269848749,verb_norming_L2-eng_oral_translation,001,804,
SLIDE,Leg,leg,0,61,61,94,0,1,1,1,5,12.07,,,2018_Sep_11_1206,59.6269848749,verb_norming_L2-eng_oral_translation,001,804,
SLIDE,,,0,61,61,94,,,,,,,return,3.606070424,2018_Sep_11_1206,59.6269848749,verb_norming_L2-eng_oral_translation,001,804,
CYCLE,Arm,arm,0,62,62,63,0,0,0,0,3,8.764,,,2018_Sep_11_1206,59.6269848749,verb_norming_L2-eng_oral_translation,001,804,
CYCLE,Leg,leg,0,62,62,63,0,1,1,1,7,1.79,,,2018_Sep_11_1206,59.6269848749,verb_norming_L2-eng_oral_translation,001,804,
CYCLE,,,0,62,62,63,,,,,,,return,1.25811728272,2018_Sep_11_1206,59.6269848749,verb_norming_L2-eng_oral_translation,001,804,
CLICK,Arm,arm,0,63,63,10,0,0,0,0,7,4.185,,,2018_Sep_11_1206,59.6269848749,verb_norming_L2-eng_oral_translation,001,804,
CLICK,Leg,leg,0,63,63,10,0,1,1,1,1,2.075,,,2018_Sep_11_1206,59.6269848749,verb_norming_L2-eng_oral_translation,001,804,
CLICK,,,0,63,63,10,,,,,,,return,2.4655800029,2018_Sep_11_1206,59.6269848749,verb_norming_L2-eng_oral_translation,001,804,
SWAY,Arm,arm,0,64,64,111,0,0,0,0,3,6.87,,,2018_Sep_11_1206,59.6269848749,verb_norming_L2-eng_oral_translation,001,804,
SWAY,Leg,leg,0,64,64,111,0,1,1,1,6,12.088,,,2018_Sep_11_1206,59.6269848749,verb_norming_L2-eng_oral_translation,001,804,
SWAY,,,0,64,64,111,,,,,,,return,26.7502693677,2018_Sep_11_1206,59.6269848749,verb_norming_L2-eng_oral_translation,001,804,
BOUNCE,Arm,arm,0,65,65,60,0,0,0,0,2,5.912,,,2018_Sep_11_1206,59.6269848749,verb_norming_L2-eng_oral_translation,001,804,
BOUNCE,Leg,leg,0,65,65,60,0,1,1,1,6,1.823,,,2018_Sep_11_1206,59.6269848749,verb_norming_L2-eng_oral_translation,001,804,
BOUNCE,,,0,65,65,60,,,,,,,return,2.14706824812,2018_Sep_11_1206,59.6269848749,verb_norming_L2-eng_oral_translation,001,804,
KNEEL,Arm,arm,0,66,66,76,0,0,0,0,3,6.332,,,2018_Sep_11_1206,59.6269848749,verb_norming_L2-eng_oral_translation,001,804,
KNEEL,Leg,leg,0,66,66,76,0,1,1,1,7,2.377,,,2018_Sep_11_1206,59.6269848749,verb_norming_L2-eng_oral_translation,001,804,
KNEEL,,,0,66,66,76,,,,,,,return,2.16384075874,2018_Sep_11_1206,59.6269848749,verb_norming_L2-eng_oral_translation,001,804,
TUG,Arm,arm,0,67,67,54,0,0,0,0,6,16.026,,,2018_Sep_11_1206,59.6269848749,verb_norming_L2-eng_oral_translation,001,804,
TUG,Leg,leg,0,67,67,54,0,1,1,1,5,1.622,,,2018_Sep_11_1206,59.6269848749,verb_norming_L2-eng_oral_translation,001,804,
TUG,,,0,67,67,54,,,,,,,return,5.24964370762,2018_Sep_11_1206,59.6269848749,verb_norming_L2-eng_oral_translation,001,804,
WADDLE,Arm,arm,0,68,68,123,0,0,0,0,4,13.761,,,2018_Sep_11_1206,59.6269848749,verb_norming_L2-eng_oral_translation,001,804,
WADDLE,Leg,leg,0,68,68,123,0,1,1,1,5,2.779,,,2018_Sep_11_1206,59.6269848749,verb_norming_L2-eng_oral_translation,001,804,
WADDLE,,,0,68,68,123,,,,,,,return,3.95832910234,2018_Sep_11_1206,59.6269848749,verb_norming_L2-eng_oral_translation,001,804,
STUMBLE,Arm,arm,0,69,69,110,0,0,0,0,3,6.28,,,2018_Sep_11_1206,59.6269848749,verb_norming_L2-eng_oral_translation,001,804,
STUMBLE,Leg,leg,0,69,69,110,0,1,1,1,7,3.264,,,2018_Sep_11_1206,59.6269848749,verb_norming_L2-eng_oral_translation,001,804,
STUMBLE,,,0,69,69,110,,,,,,,return,3.01897130972,2018_Sep_11_1206,59.6269848749,verb_norming_L2-eng_oral_translation,001,804,
GROVEL,Arm,arm,0,70,70,68,0,0,0,0,4,12.888,,,2018_Sep_11_1206,59.6269848749,verb_norming_L2-eng_oral_translation,001,804,
GROVEL,Leg,leg,0,70,70,68,0,1,1,1,4,0.866,,,2018_Sep_11_1206,59.6269848749,verb_norming_L2-eng_oral_translation,001,804,
GROVEL,,,0,70,70,68,,,,,,,return,1.27511263659,2018_Sep_11_1206,59.6269848749,verb_norming_L2-eng_oral_translation,001,804,
PEDAL,Arm,arm,0,71,71,83,0,0,0,0,3,21.19,,,2018_Sep_11_1206,59.6269848749,verb_norming_L2-eng_oral_translation,001,804,
PEDAL,Leg,leg,0,71,71,83,0,1,1,1,7,9.706,,,2018_Sep_11_1206,59.6269848749,verb_norming_L2-eng_oral_translation,001,804,
PEDAL,,,0,71,71,83,,,,,,,return,4.21000921797,2018_Sep_11_1206,59.6269848749,verb_norming_L2-eng_oral_translation,001,804,
KICK,Arm,arm,0,72,72,75,0,0,0,0,1,7.004,,,2018_Sep_11_1206,59.6269848749,verb_norming_L2-eng_oral_translation,001,804,
KICK,Leg,leg,0,72,72,75,0,1,1,1,7,0.767,,,2018_Sep_11_1206,59.6269848749,verb_norming_L2-eng_oral_translation,001,804,
KICK,,,0,72,72,75,,,,,,,return,1.86207148606,2018_Sep_11_1206,59.6269848749,verb_norming_L2-eng_oral_translation,001,804,
SHAMBLE,Arm,arm,0,73,73,91,0,0,0,0,4,4.871,,,2018_Sep_11_1206,59.6269848749,verb_norming_L2-eng_oral_translation,001,804,
SHAMBLE,Leg,leg,0,73,73,91,0,1,1,1,4,0.748,,,2018_Sep_11_1206,59.6269848749,verb_norming_L2-eng_oral_translation,001,804,
SHAMBLE,,,0,73,73,91,,,,,,,return,2.56638931111,2018_Sep_11_1206,59.6269848749,verb_norming_L2-eng_oral_translation,001,804,
TRAMP,Arm,arm,0,74,74,116,0,0,0,0,2,8.041,,,2018_Sep_11_1206,59.6269848749,verb_norming_L2-eng_oral_translation,001,804,
TRAMP,Leg,leg,0,74,74,116,0,1,1,1,7,4.824,,,2018_Sep_11_1206,59.6269848749,verb_norming_L2-eng_oral_translation,001,804,
TRAMP,,,0,74,74,116,,,,,,,return,1.29181205147,2018_Sep_11_1206,59.6269848749,verb_norming_L2-eng_oral_translation,001,804,
POKE,Arm,arm,0,75,75,31,0,0,0,0,7,4.287,,,2018_Sep_11_1206,59.6269848749,verb_norming_L2-eng_oral_translation,001,804,
POKE,Leg,leg,0,75,75,31,0,1,1,1,1,2.763,,,2018_Sep_11_1206,59.6269848749,verb_norming_L2-eng_oral_translation,001,804,
POKE,,,0,75,75,31,,,,,,,return,4.8969725322,2018_Sep_11_1206,59.6269848749,verb_norming_L2-eng_oral_translation,001,804,
SQUAT,Arm,arm,0,76,76,99,0,0,0,0,2,4.955,,,2018_Sep_11_1206,59.6269848749,verb_norming_L2-eng_oral_translation,001,804,
SQUAT,Leg,leg,0,76,76,99,0,1,1,1,7,1.94,,,2018_Sep_11_1206,59.6269848749,verb_norming_L2-eng_oral_translation,001,804,
SQUAT,,,0,76,76,99,,,,,,,return,2.71737825706,2018_Sep_11_1206,59.6269848749,verb_norming_L2-eng_oral_translation,001,804,
TOTTER,Arm,arm,0,77,77,114,0,0,0,0,4,8.462,,,2018_Sep_11_1206,59.6269848749,verb_norming_L2-eng_oral_translation,001,804,
TOTTER,Leg,leg,0,77,77,114,0,1,1,1,4,1.035,,,2018_Sep_11_1206,59.6269848749,verb_norming_L2-eng_oral_translation,001,804,
TOTTER,,,0,77,77,114,,,,,,,return,1.99612315962,2018_Sep_11_1206,59.6269848749,verb_norming_L2-eng_oral_translation,001,804,
PEEL,Arm,arm,0,78,78,28,0,0,0,0,7,2.408,,,2018_Sep_11_1206,59.6269848749,verb_norming_L2-eng_oral_translation,001,804,
PEEL,Leg,leg,0,78,78,28,0,1,1,1,1,2.713,,,2018_Sep_11_1206,59.6269848749,verb_norming_L2-eng_oral_translation,001,804,
PEEL,,,0,78,78,28,,,,,,,return,2.28125109891,2018_Sep_11_1206,59.6269848749,verb_norming_L2-eng_oral_translation,001,804,
HACK,Arm,arm,0,79,79,22,0,0,0,0,7,14.031,,,2018_Sep_11_1206,59.6269848749,verb_norming_L2-eng_oral_translation,001,804,
HACK,Leg,leg,0,79,79,22,0,1,1,1,1,1.422,,,2018_Sep_11_1206,59.6269848749,verb_norming_L2-eng_oral_translation,001,804,
HACK,,,0,79,79,22,,,,,,,return,10.214134979,2018_Sep_11_1206,59.6269848749,verb_norming_L2-eng_oral_translation,001,804,
PUNCH,Arm,arm,0,80,80,34,0,0,0,0,7,4.538,,,2018_Sep_11_1206,59.6269848749,verb_norming_L2-eng_oral_translation,001,804,
PUNCH,Leg,leg,0,80,80,34,0,1,1,1,3,5.228,,,2018_Sep_11_1206,59.6269848749,verb_norming_L2-eng_oral_translation,001,804,
PUNCH,,,0,80,80,34,,,,,,,return,1.30953204103,2018_Sep_11_1206,59.6269848749,verb_norming_L2-eng_oral_translation,001,804,
GLIDE,Arm,arm,0,81,81,67,0,0,0,0,1,4.436,,,2018_Sep_11_1206,59.6269848749,verb_norming_L2-eng_oral_translation,001,804,
GLIDE,Leg,leg,0,81,81,67,0,1,1,1,6,5.797,,,2018_Sep_11_1206,59.6269848749,verb_norming_L2-eng_oral_translation,001,804,
GLIDE,,,0,81,81,67,,,,,,,return,1.82831033846,2018_Sep_11_1206,59.6269848749,verb_norming_L2-eng_oral_translation,001,804,
SNEAK,Arm,arm,0,82,82,97,0,0,0,0,2,12.118,,,2018_Sep_11_1206,59.6269848749,verb_norming_L2-eng_oral_translation,001,804,
SNEAK,Leg,leg,0,82,82,97,0,1,1,1,6,2.243,,,2018_Sep_11_1206,59.6269848749,verb_norming_L2-eng_oral_translation,001,804,
SNEAK,,,0,82,82,97,,,,,,,return,1.56003906869,2018_Sep_11_1206,59.6269848749,verb_norming_L2-eng_oral_translation,001,804,
BRUSH,Arm,arm,0,83,83,3,0,0,0,0,7,8.646,,,2018_Sep_11_1206,59.6269848749,verb_norming_L2-eng_oral_translation,001,804,
BRUSH,Leg,leg,0,83,83,3,0,1,1,1,1,0.801,,,2018_Sep_11_1206,59.6269848749,verb_norming_L2-eng_oral_translation,001,804,
BRUSH,,,0,83,83,3,,,,,,,return,0.973045449356,2018_Sep_11_1206,59.6269848749,verb_norming_L2-eng_oral_translation,001,804,
SCOOP,Arm,arm,0,84,84,38,0,0,0,0,7,15.254,,,2018_Sep_11_1206,59.6269848749,verb_norming_L2-eng_oral_translation,001,804,
SCOOP,Leg,leg,0,84,84,38,0,1,1,1,1,1.236,,,2018_Sep_11_1206,59.6269848749,verb_norming_L2-eng_oral_translation,001,804,
SCOOP,,,0,84,84,38,,,,,,,return,80.7031348593,2018_Sep_11_1206,59.6269848749,verb_norming_L2-eng_oral_translation,001,804,
WIPE,Arm,arm,0,85,85,58,0,0,0,0,7,3.565,,,2018_Sep_11_1206,59.6269848749,verb_norming_L2-eng_oral_translation,001,804,
WIPE,Leg,leg,0,85,85,58,0,1,1,1,2,1.254,,,2018_Sep_11_1206,59.6269848749,verb_norming_L2-eng_oral_translation,001,804,
WIPE,,,0,85,85,58,,,,,,,return,5.18255366512,2018_Sep_11_1206,59.6269848749,verb_norming_L2-eng_oral_translation,001,804,
FILE,Arm,arm,0,86,86,15,0,0,0,0,6,9.05,,,2018_Sep_11_1206,59.6269848749,verb_norming_L2-eng_oral_translation,001,804,
FILE,Leg,leg,0,86,86,15,0,1,1,1,1,6.017,,,2018_Sep_11_1206,59.6269848749,verb_norming_L2-eng_oral_translation,001,804,
FILE,,,0,86,86,15,,,,,,,return,104.199513854,2018_Sep_11_1206,59.6269848749,verb_norming_L2-eng_oral_translation,001,804,
CHOP,Arm,arm,0,87,87,6,0,0,0,0,7,3.582,,,2018_Sep_11_1206,59.6269848749,verb_norming_L2-eng_oral_translation,001,804,
CHOP,Leg,leg,0,87,87,6,0,1,1,1,2,4.021,,,2018_Sep_11_1206,59.6269848749,verb_norming_L2-eng_oral_translation,001,804,
CHOP,,,0,87,87,6,,,,,,,return,5.70252520124,2018_Sep_11_1206,59.6269848749,verb_norming_L2-eng_oral_translation,001,804,
STOMP,Arm,arm,0,88,88,104,0,0,0,0,2,4.485,,,2018_Sep_11_1206,59.6269848749,verb_norming_L2-eng_oral_translation,001,804,
STOMP,Leg,leg,0,88,88,104,0,1,1,1,7,1.034,,,2018_Sep_11_1206,59.6269848749,verb_norming_L2-eng_oral_translation,001,804,
STOMP,,,0,88,88,104,,,,,,,return,1.59364572743,2018_Sep_11_1206,59.6269848749,verb_norming_L2-eng_oral_translation,001,804,
ROW,Arm,arm,0,89,89,36,0,0,0,0,7,11.902,,,2018_Sep_11_1206,59.6269848749,verb_norming_L2-eng_oral_translation,001,804,
ROW,Leg,leg,0,89,89,36,0,1,1,1,5,8.734,,,2018_Sep_11_1206,59.6269848749,verb_norming_L2-eng_oral_translation,001,804,
ROW,,,0,89,89,36,,,,,,,return,12.092444389,2018_Sep_11_1206,59.6269848749,verb_norming_L2-eng_oral_translation,001,804,
WANDER,Arm,arm,0,90,90,126,0,0,0,0,2,5.98,,,2018_Sep_11_1206,59.6269848749,verb_norming_L2-eng_oral_translation,001,804,
WANDER,Leg,leg,0,90,90,126,0,1,1,1,7,2.51,,,2018_Sep_11_1206,59.6269848749,verb_norming_L2-eng_oral_translation,001,804,
WANDER,,,0,90,90,126,,,,,,,return,4.19329478883,2018_Sep_11_1206,59.6269848749,verb_norming_L2-eng_oral_translation,001,804,
HUG,Arm,arm,0,91,91,23,0,0,0,0,7,2.541,,,2018_Sep_11_1206,59.6269848749,verb_norming_L2-eng_oral_translation,001,804,
HUG,Leg,leg,0,91,91,23,0,1,1,1,3,1.253,,,2018_Sep_11_1206,59.6269848749,verb_norming_L2-eng_oral_translation,001,804,
HUG,,,0,91,91,23,,,,,,,return,0.570709862434,2018_Sep_11_1206,59.6269848749,verb_norming_L2-eng_oral_translation,001,804,
WOBBLE,Arm,arm,0,92,92,127,0,0,0,0,4,20.671,,,2018_Sep_11_1206,59.6269848749,verb_norming_L2-eng_oral_translation,001,804,
WOBBLE,Leg,leg,0,92,92,127,0,1,1,1,5,13.395,,,2018_Sep_11_1206,59.6269848749,verb_norming_L2-eng_oral_translation,001,804,
WOBBLE,,,0,92,92,127,,,,,,,return,13.4508553585,2018_Sep_11_1206,59.6269848749,verb_norming_L2-eng_oral_translation,001,804,
PAT,Arm,arm,0,93,93,27,0,0,0,0,7,2.594,,,2018_Sep_11_1206,59.6269848749,verb_norming_L2-eng_oral_translation,001,804,
PAT,Leg,leg,0,93,93,27,0,1,1,1,1,1.674,,,2018_Sep_11_1206,59.6269848749,verb_norming_L2-eng_oral_translation,001,804,
PAT,,,0,93,93,27,,,,,,,return,1.92906077496,2018_Sep_11_1206,59.6269848749,verb_norming_L2-eng_oral_translation,001,804,
SKIM,Arm,arm,0,94,94,45,0,0,0,0,4,18.825,,,2018_Sep_11_1206,59.6269848749,verb_norming_L2-eng_oral_translation,001,804,
SKIM,Leg,leg,0,94,94,45,0,1,1,1,4,0.582,,,2018_Sep_11_1206,59.6269848749,verb_norming_L2-eng_oral_translation,001,804,
SKIM,,,0,94,94,45,,,,,,,return,4.24230528972,2018_Sep_11_1206,59.6269848749,verb_norming_L2-eng_oral_translation,001,804,
STAGGER,Arm,arm,0,95,95,100,0,0,0,0,3,9.181,,,2018_Sep_11_1206,59.6269848749,verb_norming_L2-eng_oral_translation,001,804,
STAGGER,Leg,leg,0,95,95,100,0,1,1,1,6,2.575,,,2018_Sep_11_1206,59.6269848749,verb_norming_L2-eng_oral_translation,001,804,
STAGGER,,,0,95,95,100,,,,,,,return,1.25825794264,2018_Sep_11_1206,59.6269848749,verb_norming_L2-eng_oral_translation,001,804,
CARVE,Arm,arm,0,96,96,4,0,0,0,0,6,12.89,,,2018_Sep_11_1206,59.6269848749,verb_norming_L2-eng_oral_translation,001,804,
CARVE,Leg,leg,0,96,96,4,0,1,1,1,1,6.688,,,2018_Sep_11_1206,59.6269848749,verb_norming_L2-eng_oral_translation,001,804,
CARVE,,,0,96,96,4,,,,,,,return,20.5449935933,2018_Sep_11_1206,59.6269848749,verb_norming_L2-eng_oral_translation,001,804,
TRUDGE,Arm,arm,0,97,97,122,0,0,0,0,4,3.798,,,2018_Sep_11_1206,59.6269848749,verb_norming_L2-eng_oral_translation,001,804,
TRUDGE,Leg,leg,0,97,97,122,0,1,1,1,4,1.033,,,2018_Sep_11_1206,59.6269848749,verb_norming_L2-eng_oral_translation,001,804,
TRUDGE,,,0,97,97,122,,,,,,,return,1.64393323079,2018_Sep_11_1206,59.6269848749,verb_norming_L2-eng_oral_translation,001,804,
SCRAPE,Arm,arm,0,98,98,39,0,0,0,0,6,6.885,,,2018_Sep_11_1206,59.6269848749,verb_norming_L2-eng_oral_translation,001,804,
SCRAPE,Leg,leg,0,98,98,39,0,1,1,1,3,4.775,,,2018_Sep_11_1206,59.6269848749,verb_norming_L2-eng_oral_translation,001,804,
SCRAPE,,,0,98,98,39,,,,,,,return,8.90586216039,2018_Sep_11_1206,59.6269848749,verb_norming_L2-eng_oral_translation,001,804,
ROAM,Arm,arm,0,99,99,87,0,0,0,0,1,17.249,,,2018_Sep_11_1206,59.6269848749,verb_norming_L2-eng_oral_translation,001,804,
ROAM,Leg,leg,0,99,99,87,0,1,1,1,6,8.547,,,2018_Sep_11_1206,59.6269848749,verb_norming_L2-eng_oral_translation,001,804,
ROAM,,,0,99,99,87,,,,,,,return,10.0294473132,2018_Sep_11_1206,59.6269848749,verb_norming_L2-eng_oral_translation,001,804,
HIKE,Arm,arm,0,100,100,69,0,0,0,0,7,6.953,,,2018_Sep_11_1206,59.6269848749,verb_norming_L2-eng_oral_translation,001,804,
HIKE,Leg,leg,0,100,100,69,0,1,1,1,7,18.914,,,2018_Sep_11_1206,59.6269848749,verb_norming_L2-eng_oral_translation,001,804,
HIKE,,,0,100,100,69,,,,,,,return,4.52857668356,2018_Sep_11_1206,59.6269848749,verb_norming_L2-eng_oral_translation,001,804,
MOUNT,Arm,arm,0,101,101,81,0,0,0,0,3,16.058,,,2018_Sep_11_1206,59.6269848749,verb_norming_L2-eng_oral_translation,001,804,
MOUNT,Leg,leg,0,101,101,81,0,1,1,1,6,6.551,,,2018_Sep_11_1206,59.6269848749,verb_norming_L2-eng_oral_translation,001,804,
MOUNT,,,0,101,101,81,,,,,,,return,20.5785540239,2018_Sep_11_1206,59.6269848749,verb_norming_L2-eng_oral_translation,001,804,
TRAMPLE,Arm,arm,0,102,102,117,0,0,0,0,4,11.562,,,2018_Sep_11_1206,59.6269848749,verb_norming_L2-eng_oral_translation,001,804,
TRAMPLE,Leg,leg,0,102,102,117,0,1,1,1,4,0.63,,,2018_Sep_11_1206,59.6269848749,verb_norming_L2-eng_oral_translation,001,804,
TRAMPLE,,,0,102,102,117,,,,,,,return,1.24144315502,2018_Sep_11_1206,59.6269848749,verb_norming_L2-eng_oral_translation,001,804,
WRAP,Arm,arm,0,103,103,59,0,0,0,0,7,4.086,,,2018_Sep_11_1206,59.6269848749,verb_norming_L2-eng_oral_translation,001,804,
WRAP,Leg,leg,0,103,103,59,0,1,1,1,2,3.5,,,2018_Sep_11_1206,59.6269848749,verb_norming_L2-eng_oral_translation,001,804,
WRAP,,,0,103,103,59,,,,,,,return,2.65071691123,2018_Sep_11_1206,59.6269848749,verb_norming_L2-eng_oral_translation,001,804,
SIGN,Arm,arm,0,104,104,44,0,0,0,0,7,2.541,,,2018_Sep_11_1206,59.6269848749,verb_norming_L2-eng_oral_translation,001,804,
SIGN,Leg,leg,0,104,104,44,0,1,1,1,1,1.739,,,2018_Sep_11_1206,59.6269848749,verb_norming_L2-eng_oral_translation,001,804,
SIGN,,,0,104,104,44,,,,,,,return,1.6942780254,2018_Sep_11_1206,59.6269848749,verb_norming_L2-eng_oral_translation,001,804,
HOBBLE,Arm,arm,0,105,105,70,0,0,0,0,4,6.735,,,2018_Sep_11_1206,59.6269848749,verb_norming_L2-eng_oral_translation,001,804,
HOBBLE,Leg,leg,0,105,105,70,0,1,1,1,4,0.781,,,2018_Sep_11_1206,59.6269848749,verb_norming_L2-eng_oral_translation,001,804,
HOBBLE,,,0,105,105,70,,,,,,,return,1.61044352524,2018_Sep_11_1206,59.6269848749,verb_norming_L2-eng_oral_translation,001,804,
LUMBER,Arm,arm,0,106,106,79,0,0,0,0,4,22.682,,,2018_Sep_11_1206,59.6269848749,verb_norming_L2-eng_oral_translation,001,804,
LUMBER,Leg,leg,0,106,106,79,0,1,1,1,4,0.53,,,2018_Sep_11_1206,59.6269848749,verb_norming_L2-eng_oral_translation,001,804,
LUMBER,,,0,106,106,79,,,,,,,return,1.14075356579,2018_Sep_11_1206,59.6269848749,verb_norming_L2-eng_oral_translation,001,804,
STRUT,Arm,arm,0,107,107,109,0,0,0,0,2,12.353,,,2018_Sep_11_1206,59.6269848749,verb_norming_L2-eng_oral_translation,001,804,
STRUT,Leg,leg,0,107,107,109,0,1,1,1,6,3.316,,,2018_Sep_11_1206,59.6269848749,verb_norming_L2-eng_oral_translation,001,804,
STRUT,,,0,107,107,109,,,,,,,return,20.6120622997,2018_Sep_11_1206,59.6269848749,verb_norming_L2-eng_oral_translation,001,804,
FOLD,Arm,arm,0,108,108,16,0,0,0,0,7,3.515,,,2018_Sep_11_1206,59.6269848749,verb_norming_L2-eng_oral_translation,001,804,
FOLD,Leg,leg,0,108,108,16,0,1,1,1,2,2.276,,,2018_Sep_11_1206,59.6269848749,verb_norming_L2-eng_oral_translation,001,804,
FOLD,,,0,108,108,16,,,,,,,return,1.76028388017,2018_Sep_11_1206,59.6269848749,verb_norming_L2-eng_oral_translation,001,804,
KNOCK,Arm,arm,0,109,109,24,0,0,0,0,7,11.615,,,2018_Sep_11_1206,59.6269848749,verb_norming_L2-eng_oral_translation,001,804,
KNOCK,Leg,leg,0,109,109,24,0,1,1,1,2,2.612,,,2018_Sep_11_1206,59.6269848749,verb_norming_L2-eng_oral_translation,001,804,
KNOCK,,,0,109,109,24,,,,,,,return,2.63351293815,2018_Sep_11_1206,59.6269848749,verb_norming_L2-eng_oral_translation,001,804,
WALK,Arm,arm,0,110,110,125,0,0,0,0,1,4.957,,,2018_Sep_11_1206,59.6269848749,verb_norming_L2-eng_oral_translation,001,804,
WALK,Leg,leg,0,110,110,125,0,1,1,1,7,1.254,,,2018_Sep_11_1206,59.6269848749,verb_norming_L2-eng_oral_translation,001,804,
WALK,,,0,110,110,125,,,,,,,return,1.22474057924,2018_Sep_11_1206,59.6269848749,verb_norming_L2-eng_oral_translation,001,804,
PRANCE,Arm,arm,0,111,111,85,0,0,0,0,4,9.702,,,2018_Sep_11_1206,59.6269848749,verb_norming_L2-eng_oral_translation,001,804,
PRANCE,Leg,leg,0,111,111,85,0,1,1,1,4,0.565,,,2018_Sep_11_1206,59.6269848749,verb_norming_L2-eng_oral_translation,001,804,
PRANCE,,,0,111,111,85,,,,,,,return,0.520368228716,2018_Sep_11_1206,59.6269848749,verb_norming_L2-eng_oral_translation,001,804,
SCRUB,Arm,arm,0,112,112,41,0,0,0,0,6,21.661,,,2018_Sep_11_1206,59.6269848749,verb_norming_L2-eng_oral_translation,001,804,
SCRUB,Leg,leg,0,112,112,41,0,1,1,1,2,1.958,,,2018_Sep_11_1206,59.6269848749,verb_norming_L2-eng_oral_translation,001,804,
SCRUB,,,0,112,112,41,,,,,,,return,12.6291734214,2018_Sep_11_1206,59.6269848749,verb_norming_L2-eng_oral_translation,001,804,
FLEE,Arm,arm,0,113,113,66,0,0,0,0,2,4.454,,,2018_Sep_11_1206,59.6269848749,verb_norming_L2-eng_oral_translation,001,804,
FLEE,Leg,leg,0,113,113,66,0,1,1,1,7,2.093,,,2018_Sep_11_1206,59.6269848749,verb_norming_L2-eng_oral_translation,001,804,
FLEE,,,0,113,113,66,,,,,,,return,1.35892026913,2018_Sep_11_1206,59.6269848749,verb_norming_L2-eng_oral_translation,001,804,
STRADDLE,Arm,arm,0,114,114,105,0,0,0,0,3,18.389,,,2018_Sep_11_1206,59.6269848749,verb_norming_L2-eng_oral_translation,001,804,
STRADDLE,Leg,leg,0,114,114,105,0,1,1,1,7,3.162,,,2018_Sep_11_1206,59.6269848749,verb_norming_L2-eng_oral_translation,001,804,
STRADDLE,,,0,114,114,105,,,,,,,return,11.0860119632,2018_Sep_11_1206,59.6269848749,verb_norming_L2-eng_oral_translation,001,804,
TREK,Arm,arm,0,115,115,119,0,0,0,0,2,12.387,,,2018_Sep_11_1206,59.6269848749,verb_norming_L2-eng_oral_translation,001,804,
TREK,Leg,leg,0,115,115,119,0,1,1,1,7,2.428,,,2018_Sep_11_1206,59.6269848749,verb_norming_L2-eng_oral_translation,001,804,
TREK,,,0,115,115,119,,,,,,,return,2.70045639404,2018_Sep_11_1206,59.6269848749,verb_norming_L2-eng_oral_translation,001,804,
PINCH,Arm,arm,0,116,116,29,0,0,0,0,7,3.548,,,2018_Sep_11_1206,59.6269848749,verb_norming_L2-eng_oral_translation,001,804,
PINCH,Leg,leg,0,116,116,29,0,1,1,1,1,0.767,,,2018_Sep_11_1206,59.6269848749,verb_norming_L2-eng_oral_translation,001,804,
PINCH,,,0,116,116,29,,,,,,,return,1.56023069808,2018_Sep_11_1206,59.6269848749,verb_norming_L2-eng_oral_translation,001,804,
PLOD,Arm,arm,0,117,117,84,0,0,0,0,4,3.197,,,2018_Sep_11_1206,59.6269848749,verb_norming_L2-eng_oral_translation,001,804,
PLOD,Leg,leg,0,117,117,84,0,1,1,1,4,1.22,,,2018_Sep_11_1206,59.6269848749,verb_norming_L2-eng_oral_translation,001,804,
PLOD,,,0,117,117,84,,,,,,,return,1.97945653905,2018_Sep_11_1206,59.6269848749,verb_norming_L2-eng_oral_translation,001,804,
RUN,Arm,arm,0,118,118,88,0,0,0,0,3,2.979,,,2018_Sep_11_1206,59.6269848749,verb_norming_L2-eng_oral_translation,001,804,
RUN,Leg,leg,0,118,118,88,0,1,1,1,7,2.277,,,2018_Sep_11_1206,59.6269848749,verb_norming_L2-eng_oral_translation,001,804,
RUN,,,0,118,118,88,,,,,,,return,2.08001811194,2018_Sep_11_1206,59.6269848749,verb_norming_L2-eng_oral_translation,001,804,
SAUNTER,Arm,arm,0,119,119,90,0,0,0,0,4,10.843,,,2018_Sep_11_1206,59.6269848749,verb_norming_L2-eng_oral_translation,001,804,
SAUNTER,Leg,leg,0,119,119,90,0,1,1,1,4,0.581,,,2018_Sep_11_1206,59.6269848749,verb_norming_L2-eng_oral_translation,001,804,
SAUNTER,,,0,119,119,90,,,,,,,return,2.16369338191,2018_Sep_11_1206,59.6269848749,verb_norming_L2-eng_oral_translation,001,804,
WASH,Arm,arm,0,120,120,56,0,0,0,0,7,9.569,,,2018_Sep_11_1206,59.6269848749,verb_norming_L2-eng_oral_translation,001,804,
WASH,Leg,leg,0,120,120,56,0,1,1,1,4,2.629,,,2018_Sep_11_1206,59.6269848749,verb_norming_L2-eng_oral_translation,001,804,
WASH,,,0,120,120,56,,,,,,,return,2.39860770382,2018_Sep_11_1206,59.6269848749,verb_norming_L2-eng_oral_translation,001,804,
SEIZE,Arm,arm,0,121,121,42,0,0,0,0,6,41.081,,,2018_Sep_11_1206,59.6269848749,verb_norming_L2-eng_oral_translation,001,804,
SEIZE,Leg,leg,0,121,121,42,0,1,1,1,3,5.193,,,2018_Sep_11_1206,59.6269848749,verb_norming_L2-eng_oral_translation,001,804,
SEIZE,,,0,121,121,42,,,,,,,return,14.239149529,2018_Sep_11_1206,59.6269848749,verb_norming_L2-eng_oral_translation,001,804,
STRAY,Arm,arm,0,122,122,106,0,0,0,0,3,12.118,,,2018_Sep_11_1206,59.6269848749,verb_norming_L2-eng_oral_translation,001,804,
STRAY,Leg,leg,0,122,122,106,0,1,1,1,6,2.193,,,2018_Sep_11_1206,59.6269848749,verb_norming_L2-eng_oral_translation,001,804,
STRAY,,,0,122,122,106,,,,,,,return,5.19950555666,2018_Sep_11_1206,59.6269848749,verb_norming_L2-eng_oral_translation,001,804,
HOP,Arm,arm,0,123,123,71,0,0,0,0,2,12.471,,,2018_Sep_11_1206,59.6269848749,verb_norming_L2-eng_oral_translation,001,804,
HOP,Leg,leg,0,123,123,71,0,1,1,1,7,4.858,,,2018_Sep_11_1206,59.6269848749,verb_norming_L2-eng_oral_translation,001,804,
HOP,,,0,123,123,71,,,,,,,return,2.53285969923,2018_Sep_11_1206,59.6269848749,verb_norming_L2-eng_oral_translation,001,804,
GESTURE,Arm,arm,0,124,124,17,0,0,0,0,7,4.653,,,2018_Sep_11_1206,59.6269848749,verb_norming_L2-eng_oral_translation,001,804,
GESTURE,Leg,leg,0,124,124,17,0,1,1,1,2,5.545,,,2018_Sep_11_1206,59.6269848749,verb_norming_L2-eng_oral_translation,001,804,
GESTURE,,,0,124,124,17,,,,,,,return,5.01494472184,2018_Sep_11_1206,59.6269848749,verb_norming_L2-eng_oral_translation,001,804,
SCRATCH,Arm,arm,0,125,125,40,0,0,0,0,7,2.944,,,2018_Sep_11_1206,59.6269848749,verb_norming_L2-eng_oral_translation,001,804,
SCRATCH,Leg,leg,0,125,125,40,0,1,1,1,1,1.269,,,2018_Sep_11_1206,59.6269848749,verb_norming_L2-eng_oral_translation,001,804,
SCRATCH,,,0,125,125,40,,,,,,,return,1.35857928735,2018_Sep_11_1206,59.6269848749,verb_norming_L2-eng_oral_translation,001,804,
CLAP,Arm,arm,0,126,126,7,0,0,0,0,7,2.861,,,2018_Sep_11_1206,59.6269848749,verb_norming_L2-eng_oral_translation,001,804,
CLAP,Leg,leg,0,126,126,7,0,1,1,1,1,1.438,,,2018_Sep_11_1206,59.6269848749,verb_norming_L2-eng_oral_translation,001,804,
CLAP,,,0,126,126,7,,,,,,,return,1.76136964835,2018_Sep_11_1206,59.6269848749,verb_norming_L2-eng_oral_translation,001,804,
STROLL,Arm,arm,0,127,127,108,0,0,0,0,2,6.667,,,2018_Sep_11_1206,59.6269848749,verb_norming_L2-eng_oral_translation,001,804,
STROLL,Leg,leg,0,127,127,108,0,1,1,1,7,3.366,,,2018_Sep_11_1206,59.6269848749,verb_norming_L2-eng_oral_translation,001,804,
STROLL,,,0,127,127,108,,,,,,,return,8.41949570256,2018_Sep_11_1206,59.6269848749,verb_norming_L2-eng_oral_translation,001,804,
