word,category,category_lowercase,trials.thisRepN,trials.thisTrialN,trials.thisN,trials.thisIndex,armleg_loop.thisRepN,armleg_loop.thisTrialN,armleg_loop.thisN,armleg_loop.thisIndex,rating.response,rating.rt,key_resp_8.keys,key_resp_8.rt,date,frameRate,expName,session,participant,
MARSCHERA,Arm,arm,0,0,0,127,0,0,0,0,4,4.181,,,2018_Sep_11_1257,59.6279682321,verb_norming_L1-swe_no_translation,001,804,
MARSCHERA,Ben,ben,0,0,0,127,0,1,1,1,7,2.272,,,2018_Sep_11_1257,59.6279682321,verb_norming_L1-swe_no_translation,001,804,
MARSCHERA,,,0,0,0,127,,,,,,,,,2018_Sep_11_1257,59.6279682321,verb_norming_L1-swe_no_translation,001,804,
ÖSA,Arm,arm,0,1,1,48,0,0,0,0,7,3.562,,,2018_Sep_11_1257,59.6279682321,verb_norming_L1-swe_no_translation,001,804,
ÖSA,Ben,ben,0,1,1,48,0,1,1,1,1,2.11,,,2018_Sep_11_1257,59.6279682321,verb_norming_L1-swe_no_translation,001,804,
ÖSA,,,0,1,1,48,,,,,,,,,2018_Sep_11_1257,59.6279682321,verb_norming_L1-swe_no_translation,001,804,
SKUTTA,Arm,arm,0,2,2,137,0,0,0,0,1,7.604,,,2018_Sep_11_1257,59.6279682321,verb_norming_L1-swe_no_translation,001,804,
SKUTTA,Ben,ben,0,2,2,137,0,1,1,1,7,0.749,,,2018_Sep_11_1257,59.6279682321,verb_norming_L1-swe_no_translation,001,804,
SKUTTA,,,0,2,2,137,,,,,,,,,2018_Sep_11_1257,59.6279682321,verb_norming_L1-swe_no_translation,001,804,
SNAVA,Arm,arm,0,3,3,142,0,0,0,0,2,4.252,,,2018_Sep_11_1257,59.6279682321,verb_norming_L1-swe_no_translation,001,804,
SNAVA,Ben,ben,0,3,3,142,0,1,1,1,7,0.867,,,2018_Sep_11_1257,59.6279682321,verb_norming_L1-swe_no_translation,001,804,
SNAVA,,,0,3,3,142,,,,,,,,,2018_Sep_11_1257,59.6279682321,verb_norming_L1-swe_no_translation,001,804,
ROTA,Arm,arm,0,4,4,66,0,0,0,0,7,11.196,,,2018_Sep_11_1257,59.6279682321,verb_norming_L1-swe_no_translation,001,804,
ROTA,Ben,ben,0,4,4,66,0,1,1,1,3,1.639,,,2018_Sep_11_1257,59.6279682321,verb_norming_L1-swe_no_translation,001,804,
ROTA,,,0,4,4,66,,,,,,,,,2018_Sep_11_1257,59.6279682321,verb_norming_L1-swe_no_translation,001,804,
GESTIKULERA,Arm,arm,0,5,5,13,0,0,0,0,7,2.716,,,2018_Sep_11_1257,59.6279682321,verb_norming_L1-swe_no_translation,001,804,
GESTIKULERA,Ben,ben,0,5,5,13,0,1,1,1,1,0.778,,,2018_Sep_11_1257,59.6279682321,verb_norming_L1-swe_no_translation,001,804,
GESTIKULERA,,,0,5,5,13,,,,,,,,,2018_Sep_11_1257,59.6279682321,verb_norming_L1-swe_no_translation,001,804,
REPA,Arm,arm,0,6,6,61,0,0,0,0,7,8.731,,,2018_Sep_11_1257,59.6279682321,verb_norming_L1-swe_no_translation,001,804,
REPA,Ben,ben,0,6,6,61,0,1,1,1,1,2.981,,,2018_Sep_11_1257,59.6279682321,verb_norming_L1-swe_no_translation,001,804,
REPA,,,0,6,6,61,,,,,,,,,2018_Sep_11_1257,59.6279682321,verb_norming_L1-swe_no_translation,001,804,
GÅ,Arm,arm,0,7,7,106,0,0,0,0,1,5.575,,,2018_Sep_11_1257,59.6279682321,verb_norming_L1-swe_no_translation,001,804,
GÅ,Ben,ben,0,7,7,106,0,1,1,1,7,0.431,,,2018_Sep_11_1257,59.6279682321,verb_norming_L1-swe_no_translation,001,804,
GÅ,,,0,7,7,106,,,,,,,,,2018_Sep_11_1257,59.6279682321,verb_norming_L1-swe_no_translation,001,804,
SNO,Arm,arm,0,8,8,87,0,0,0,0,7,2.861,,,2018_Sep_11_1257,59.6279682321,verb_norming_L1-swe_no_translation,001,804,
SNO,Ben,ben,0,8,8,87,0,1,1,1,2,3.619,,,2018_Sep_11_1257,59.6279682321,verb_norming_L1-swe_no_translation,001,804,
SNO,,,0,8,8,87,,,,,,,,,2018_Sep_11_1257,59.6279682321,verb_norming_L1-swe_no_translation,001,804,
NAPPA,Arm,arm,0,9,9,45,0,0,0,0,6,24.578,,,2018_Sep_11_1257,59.6279682321,verb_norming_L1-swe_no_translation,001,804,
NAPPA,Ben,ben,0,9,9,45,0,1,1,1,2,1.354,,,2018_Sep_11_1257,59.6279682321,verb_norming_L1-swe_no_translation,001,804,
NAPPA,,,0,9,9,45,,,,,,,,,2018_Sep_11_1257,59.6279682321,verb_norming_L1-swe_no_translation,001,804,
PISKA,Arm,arm,0,10,10,52,0,0,0,0,6,11.211,,,2018_Sep_11_1257,59.6279682321,verb_norming_L1-swe_no_translation,001,804,
PISKA,Ben,ben,0,10,10,52,0,1,1,1,2,1.538,,,2018_Sep_11_1257,59.6279682321,verb_norming_L1-swe_no_translation,001,804,
PISKA,,,0,10,10,52,,,,,,,,,2018_Sep_11_1257,59.6279682321,verb_norming_L1-swe_no_translation,001,804,
SKRAPA,Arm,arm,0,11,11,74,0,0,0,0,7,7.153,,,2018_Sep_11_1257,59.6279682321,verb_norming_L1-swe_no_translation,001,804,
SKRAPA,Ben,ben,0,11,11,74,0,1,1,1,1,1.453,,,2018_Sep_11_1257,59.6279682321,verb_norming_L1-swe_no_translation,001,804,
SKRAPA,,,0,11,11,74,,,,,,,,,2018_Sep_11_1257,59.6279682321,verb_norming_L1-swe_no_translation,001,804,
HÅVA,Arm,arm,0,12,12,22,0,0,0,0,7,1.903,,,2018_Sep_11_1257,59.6279682321,verb_norming_L1-swe_no_translation,001,804,
HÅVA,Ben,ben,0,12,12,22,0,1,1,1,2,2.424,,,2018_Sep_11_1257,59.6279682321,verb_norming_L1-swe_no_translation,001,804,
HÅVA,,,0,12,12,22,,,,,,,,,2018_Sep_11_1257,59.6279682321,verb_norming_L1-swe_no_translation,001,804,
TÅGA,Arm,arm,0,13,13,158,0,0,0,0,3,6.515,,,2018_Sep_11_1257,59.6279682321,verb_norming_L1-swe_no_translation,001,804,
TÅGA,Ben,ben,0,13,13,158,0,1,1,1,7,2.274,,,2018_Sep_11_1257,59.6279682321,verb_norming_L1-swe_no_translation,001,804,
TÅGA,,,0,13,13,158,,,,,,,,,2018_Sep_11_1257,59.6279682321,verb_norming_L1-swe_no_translation,001,804,
SKURA,Arm,arm,0,14,14,77,0,0,0,0,7,3.464,,,2018_Sep_11_1257,59.6279682321,verb_norming_L1-swe_no_translation,001,804,
SKURA,Ben,ben,0,14,14,77,0,1,1,1,2,3.567,,,2018_Sep_11_1257,59.6279682321,verb_norming_L1-swe_no_translation,001,804,
SKURA,,,0,14,14,77,,,,,,,,,2018_Sep_11_1257,59.6279682321,verb_norming_L1-swe_no_translation,001,804,
SVABBA,Arm,arm,0,15,15,90,0,0,0,0,7,2.91,,,2018_Sep_11_1257,59.6279682321,verb_norming_L1-swe_no_translation,001,804,
SVABBA,Ben,ben,0,15,15,90,0,1,1,1,2,2.007,,,2018_Sep_11_1257,59.6279682321,verb_norming_L1-swe_no_translation,001,804,
SVABBA,,,0,15,15,90,,,,,,,,,2018_Sep_11_1257,59.6279682321,verb_norming_L1-swe_no_translation,001,804,
SKAKA,Arm,arm,0,16,16,69,0,0,0,0,6,12.822,,,2018_Sep_11_1257,59.6279682321,verb_norming_L1-swe_no_translation,001,804,
SKAKA,Ben,ben,0,16,16,69,0,1,1,1,5,0.465,,,2018_Sep_11_1257,59.6279682321,verb_norming_L1-swe_no_translation,001,804,
SKAKA,,,0,16,16,69,,,,,,,,,2018_Sep_11_1257,59.6279682321,verb_norming_L1-swe_no_translation,001,804,
KELA,Arm,arm,0,17,17,28,0,0,0,0,6,3.294,,,2018_Sep_11_1257,59.6279682321,verb_norming_L1-swe_no_translation,001,804,
KELA,Ben,ben,0,17,17,28,0,1,1,1,3,3.784,,,2018_Sep_11_1257,59.6279682321,verb_norming_L1-swe_no_translation,001,804,
KELA,,,0,17,17,28,,,,,,,,,2018_Sep_11_1257,59.6279682321,verb_norming_L1-swe_no_translation,001,804,
SMYGA,Arm,arm,0,18,18,141,0,0,0,0,1,9.229,,,2018_Sep_11_1257,59.6279682321,verb_norming_L1-swe_no_translation,001,804,
SMYGA,Ben,ben,0,18,18,141,0,1,1,1,7,0.999,,,2018_Sep_11_1257,59.6279682321,verb_norming_L1-swe_no_translation,001,804,
SMYGA,,,0,18,18,141,,,,,,,,,2018_Sep_11_1257,59.6279682321,verb_norming_L1-swe_no_translation,001,804,
RUSA,Arm,arm,0,19,19,134,0,0,0,0,7,2.14,,,2018_Sep_11_1257,59.6279682321,verb_norming_L1-swe_no_translation,001,804,
RUSA,Ben,ben,0,19,19,134,0,1,1,1,2,2.442,,,2018_Sep_11_1257,59.6279682321,verb_norming_L1-swe_no_translation,001,804,
RUSA,,,0,19,19,134,,,,,,,,,2018_Sep_11_1257,59.6279682321,verb_norming_L1-swe_no_translation,001,804,
SKRUBBA,Arm,arm,0,20,20,75,0,0,0,0,7,2.708,,,2018_Sep_11_1257,59.6279682321,verb_norming_L1-swe_no_translation,001,804,
SKRUBBA,Ben,ben,0,20,20,75,0,1,1,1,1,2.023,,,2018_Sep_11_1257,59.6279682321,verb_norming_L1-swe_no_translation,001,804,
SKRUBBA,,,0,20,20,75,,,,,,,,,2018_Sep_11_1257,59.6279682321,verb_norming_L1-swe_no_translation,001,804,
GNUGGA,Arm,arm,0,21,21,15,0,0,0,0,7,2.102,,,2018_Sep_11_1257,59.6279682321,verb_norming_L1-swe_no_translation,001,804,
GNUGGA,Ben,ben,0,21,21,15,0,1,1,1,3,2.742,,,2018_Sep_11_1257,59.6279682321,verb_norming_L1-swe_no_translation,001,804,
GNUGGA,,,0,21,21,15,,,,,,,,,2018_Sep_11_1257,59.6279682321,verb_norming_L1-swe_no_translation,001,804,
RISTA,Arm,arm,0,22,22,62,0,0,0,0,7,2.004,,,2018_Sep_11_1257,59.6279682321,verb_norming_L1-swe_no_translation,001,804,
RISTA,Ben,ben,0,22,22,62,0,1,1,1,1,3.852,,,2018_Sep_11_1257,59.6279682321,verb_norming_L1-swe_no_translation,001,804,
RISTA,,,0,22,22,62,,,,,,,,,2018_Sep_11_1257,59.6279682321,verb_norming_L1-swe_no_translation,001,804,
RIVA,Arm,arm,0,23,23,63,0,0,0,0,7,4.823,,,2018_Sep_11_1257,59.6279682321,verb_norming_L1-swe_no_translation,001,804,
RIVA,Ben,ben,0,23,23,63,0,1,1,1,2,1.907,,,2018_Sep_11_1257,59.6279682321,verb_norming_L1-swe_no_translation,001,804,
RIVA,,,0,23,23,63,,,,,,,,,2018_Sep_11_1257,59.6279682321,verb_norming_L1-swe_no_translation,001,804,
JOGGA,Arm,arm,0,24,24,114,0,0,0,0,7,1.598,,,2018_Sep_11_1257,59.6279682321,verb_norming_L1-swe_no_translation,001,804,
JOGGA,Ben,ben,0,24,24,114,0,1,1,1,2,5.494,,,2018_Sep_11_1257,59.6279682321,verb_norming_L1-swe_no_translation,001,804,
JOGGA,,,0,24,24,114,,,,,,,,,2018_Sep_11_1257,59.6279682321,verb_norming_L1-swe_no_translation,001,804,
SPRINGA,Arm,arm,0,25,25,145,0,0,0,0,7,2.639,,,2018_Sep_11_1257,59.6279682321,verb_norming_L1-swe_no_translation,001,804,
SPRINGA,Ben,ben,0,25,25,145,0,1,1,1,2,1.887,,,2018_Sep_11_1257,59.6279682321,verb_norming_L1-swe_no_translation,001,804,
SPRINGA,,,0,25,25,145,,,,,,,,,2018_Sep_11_1257,59.6279682321,verb_norming_L1-swe_no_translation,001,804,
PRESSA,Arm,arm,0,26,26,55,0,0,0,0,7,5.324,,,2018_Sep_11_1257,59.6279682321,verb_norming_L1-swe_no_translation,001,804,
PRESSA,Ben,ben,0,26,26,55,0,1,1,1,1,1.756,,,2018_Sep_11_1257,59.6279682321,verb_norming_L1-swe_no_translation,001,804,
PRESSA,,,0,26,26,55,,,,,,,,,2018_Sep_11_1257,59.6279682321,verb_norming_L1-swe_no_translation,001,804,
DUNKA,Arm,arm,0,27,27,7,0,0,0,0,7,8.83,,,2018_Sep_11_1257,59.6279682321,verb_norming_L1-swe_no_translation,001,804,
DUNKA,Ben,ben,0,27,27,7,0,1,1,1,5,9.471,,,2018_Sep_11_1257,59.6279682321,verb_norming_L1-swe_no_translation,001,804,
DUNKA,,,0,27,27,7,,,,,,,,,2018_Sep_11_1257,59.6279682321,verb_norming_L1-swe_no_translation,001,804,
SNUBBLA,Arm,arm,0,28,28,143,0,0,0,0,2,2.958,,,2018_Sep_11_1257,59.6279682321,verb_norming_L1-swe_no_translation,001,804,
SNUBBLA,Ben,ben,0,28,28,143,0,1,1,1,7,4.251,,,2018_Sep_11_1257,59.6279682321,verb_norming_L1-swe_no_translation,001,804,
SNUBBLA,,,0,28,28,143,,,,,,,,,2018_Sep_11_1257,59.6279682321,verb_norming_L1-swe_no_translation,001,804,
VADA,Arm,arm,0,29,29,165,0,0,0,0,1,5.091,,,2018_Sep_11_1257,59.6279682321,verb_norming_L1-swe_no_translation,001,804,
VADA,Ben,ben,0,29,29,165,0,1,1,1,7,0.596,,,2018_Sep_11_1257,59.6279682321,verb_norming_L1-swe_no_translation,001,804,
VADA,,,0,29,29,165,,,,,,,,,2018_Sep_11_1257,59.6279682321,verb_norming_L1-swe_no_translation,001,804,
PADDLA,Arm,arm,0,30,30,49,0,0,0,0,7,3.797,,,2018_Sep_11_1257,59.6279682321,verb_norming_L1-swe_no_translation,001,804,
PADDLA,Ben,ben,0,30,30,49,0,1,1,1,1,1.15,,,2018_Sep_11_1257,59.6279682321,verb_norming_L1-swe_no_translation,001,804,
PADDLA,,,0,30,30,49,,,,,,,,,2018_Sep_11_1257,59.6279682321,verb_norming_L1-swe_no_translation,001,804,
GREPPA,Arm,arm,0,31,31,18,0,0,0,0,7,5.407,,,2018_Sep_11_1257,59.6279682321,verb_norming_L1-swe_no_translation,001,804,
GREPPA,Ben,ben,0,31,31,18,0,1,1,1,1,1.721,,,2018_Sep_11_1257,59.6279682321,verb_norming_L1-swe_no_translation,001,804,
GREPPA,,,0,31,31,18,,,,,,,,,2018_Sep_11_1257,59.6279682321,verb_norming_L1-swe_no_translation,001,804,
RULLA,Arm,arm,0,32,32,132,0,0,0,0,4,3.864,,,2018_Sep_11_1257,59.6279682321,verb_norming_L1-swe_no_translation,001,804,
RULLA,Ben,ben,0,32,32,132,0,1,1,1,4,0.849,,,2018_Sep_11_1257,59.6279682321,verb_norming_L1-swe_no_translation,001,804,
RULLA,,,0,32,32,132,,,,,,,,,2018_Sep_11_1257,59.6279682321,verb_norming_L1-swe_no_translation,001,804,
TRÄDA,Arm,arm,0,33,33,160,0,0,0,0,4,10.289,,,2018_Sep_11_1257,59.6279682321,verb_norming_L1-swe_no_translation,001,804,
TRÄDA,Ben,ben,0,33,33,160,0,1,1,1,4,0.582,,,2018_Sep_11_1257,59.6279682321,verb_norming_L1-swe_no_translation,001,804,
TRÄDA,,,0,33,33,160,,,,,,,,,2018_Sep_11_1257,59.6279682321,verb_norming_L1-swe_no_translation,001,804,
TRAMPA,Arm,arm,0,34,34,161,0,0,0,0,1,2.893,,,2018_Sep_11_1257,59.6279682321,verb_norming_L1-swe_no_translation,001,804,
TRAMPA,Ben,ben,0,34,34,161,0,1,1,1,7,0.815,,,2018_Sep_11_1257,59.6279682321,verb_norming_L1-swe_no_translation,001,804,
TRAMPA,,,0,34,34,161,,,,,,,,,2018_Sep_11_1257,59.6279682321,verb_norming_L1-swe_no_translation,001,804,
TASSA,Arm,arm,0,35,35,159,0,0,0,0,1,3.581,,,2018_Sep_11_1257,59.6279682321,verb_norming_L1-swe_no_translation,001,804,
TASSA,Ben,ben,0,35,35,159,0,1,1,1,7,0.683,,,2018_Sep_11_1257,59.6279682321,verb_norming_L1-swe_no_translation,001,804,
TASSA,,,0,35,35,159,,,,,,,,,2018_Sep_11_1257,59.6279682321,verb_norming_L1-swe_no_translation,001,804,
HALTA,Arm,arm,0,36,36,110,0,0,0,0,1,12.199,,,2018_Sep_11_1257,59.6279682321,verb_norming_L1-swe_no_translation,001,804,
HALTA,Ben,ben,0,36,36,110,0,1,1,1,7,2.056,,,2018_Sep_11_1257,59.6279682321,verb_norming_L1-swe_no_translation,001,804,
HALTA,,,0,36,36,110,,,,,,,,,2018_Sep_11_1257,59.6279682321,verb_norming_L1-swe_no_translation,001,804,
GUPPA,Arm,arm,0,37,37,108,0,0,0,0,1,9.114,,,2018_Sep_11_1257,59.6279682321,verb_norming_L1-swe_no_translation,001,804,
GUPPA,Ben,ben,0,37,37,108,0,1,1,1,5,11.398,,,2018_Sep_11_1257,59.6279682321,verb_norming_L1-swe_no_translation,001,804,
GUPPA,,,0,37,37,108,,,,,,,,,2018_Sep_11_1257,59.6279682321,verb_norming_L1-swe_no_translation,001,804,
FLÄTA,Arm,arm,0,38,38,11,0,0,0,0,7,1.935,,,2018_Sep_11_1257,59.6279682321,verb_norming_L1-swe_no_translation,001,804,
FLÄTA,Ben,ben,0,38,38,11,0,1,1,1,1,0.765,,,2018_Sep_11_1257,59.6279682321,verb_norming_L1-swe_no_translation,001,804,
FLÄTA,,,0,38,38,11,,,,,,,,,2018_Sep_11_1257,59.6279682321,verb_norming_L1-swe_no_translation,001,804,
KLÄMMA,Arm,arm,0,39,39,30,0,0,0,0,7,2.706,,,2018_Sep_11_1257,59.6279682321,verb_norming_L1-swe_no_translation,001,804,
KLÄMMA,Ben,ben,0,39,39,30,0,1,1,1,4,3.196,,,2018_Sep_11_1257,59.6279682321,verb_norming_L1-swe_no_translation,001,804,
KLÄMMA,,,0,39,39,30,,,,,,,,,2018_Sep_11_1257,59.6279682321,verb_norming_L1-swe_no_translation,001,804,
DANSA,Arm,arm,0,40,40,102,0,0,0,0,6,5.275,,,2018_Sep_11_1257,59.6279682321,verb_norming_L1-swe_no_translation,001,804,
DANSA,Ben,ben,0,40,40,102,0,1,1,1,5,0.7,,,2018_Sep_11_1257,59.6279682321,verb_norming_L1-swe_no_translation,001,804,
DANSA,,,0,40,40,102,,,,,,,,,2018_Sep_11_1257,59.6279682321,verb_norming_L1-swe_no_translation,001,804,
HACKA,Arm,arm,0,41,41,20,0,0,0,0,7,5.225,,,2018_Sep_11_1257,59.6279682321,verb_norming_L1-swe_no_translation,001,804,
HACKA,Ben,ben,0,41,41,20,0,1,1,1,1,0.599,,,2018_Sep_11_1257,59.6279682321,verb_norming_L1-swe_no_translation,001,804,
HACKA,,,0,41,41,20,,,,,,,,,2018_Sep_11_1257,59.6279682321,verb_norming_L1-swe_no_translation,001,804,
KNIPA,Arm,arm,0,42,42,37,0,0,0,0,7,5.409,,,2018_Sep_11_1257,59.6279682321,verb_norming_L1-swe_no_translation,001,804,
KNIPA,Ben,ben,0,42,42,37,0,1,1,1,5,0.666,,,2018_Sep_11_1257,59.6279682321,verb_norming_L1-swe_no_translation,001,804,
KNIPA,,,0,42,42,37,,,,,,,,,2018_Sep_11_1257,59.6279682321,verb_norming_L1-swe_no_translation,001,804,
SLEVA,Arm,arm,0,43,43,80,0,0,0,0,7,4.653,,,2018_Sep_11_1257,59.6279682321,verb_norming_L1-swe_no_translation,001,804,
SLEVA,Ben,ben,0,43,43,80,0,1,1,1,1,6.903,,,2018_Sep_11_1257,59.6279682321,verb_norming_L1-swe_no_translation,001,804,
SLEVA,,,0,43,43,80,,,,,,,,,2018_Sep_11_1257,59.6279682321,verb_norming_L1-swe_no_translation,001,804,
SPARKA,Arm,arm,0,44,44,144,0,0,0,0,1,3.161,,,2018_Sep_11_1257,59.6279682321,verb_norming_L1-swe_no_translation,001,804,
SPARKA,Ben,ben,0,44,44,144,0,1,1,1,7,0.548,,,2018_Sep_11_1257,59.6279682321,verb_norming_L1-swe_no_translation,001,804,
SPARKA,,,0,44,44,144,,,,,,,,,2018_Sep_11_1257,59.6279682321,verb_norming_L1-swe_no_translation,001,804,
SVEPA,Arm,arm,0,45,45,91,0,0,0,0,5,12.367,,,2018_Sep_11_1257,59.6279682321,verb_norming_L1-swe_no_translation,001,804,
SVEPA,Ben,ben,0,45,45,91,0,1,1,1,5,2.628,,,2018_Sep_11_1257,59.6279682321,verb_norming_L1-swe_no_translation,001,804,
SVEPA,,,0,45,45,91,,,,,,,,,2018_Sep_11_1257,59.6279682321,verb_norming_L1-swe_no_translation,001,804,
RÖRA,Arm,arm,0,46,46,65,0,0,0,0,7,7.388,,,2018_Sep_11_1257,59.6279682321,verb_norming_L1-swe_no_translation,001,804,
RÖRA,Ben,ben,0,46,46,65,0,1,1,1,3,5.479,,,2018_Sep_11_1257,59.6279682321,verb_norming_L1-swe_no_translation,001,804,
RÖRA,,,0,46,46,65,,,,,,,,,2018_Sep_11_1257,59.6279682321,verb_norming_L1-swe_no_translation,001,804,
KLÅ,Arm,arm,0,47,47,29,0,0,0,0,4,5.978,,,2018_Sep_11_1257,59.6279682321,verb_norming_L1-swe_no_translation,001,804,
KLÅ,Ben,ben,0,47,47,29,0,1,1,1,4,0.749,,,2018_Sep_11_1257,59.6279682321,verb_norming_L1-swe_no_translation,001,804,
KLÅ,,,0,47,47,29,,,,,,,,,2018_Sep_11_1257,59.6279682321,verb_norming_L1-swe_no_translation,001,804,
PUTTA,Arm,arm,0,48,48,57,0,0,0,0,7,2.692,,,2018_Sep_11_1257,59.6279682321,verb_norming_L1-swe_no_translation,001,804,
PUTTA,Ben,ben,0,48,48,57,0,1,1,1,3,4.422,,,2018_Sep_11_1257,59.6279682321,verb_norming_L1-swe_no_translation,001,804,
PUTTA,,,0,48,48,57,,,,,,,,,2018_Sep_11_1257,59.6279682321,verb_norming_L1-swe_no_translation,001,804,
SKYNDA,Arm,arm,0,49,49,138,0,0,0,0,4,7.319,,,2018_Sep_11_1257,59.6279682321,verb_norming_L1-swe_no_translation,001,804,
SKYNDA,Ben,ben,0,49,49,138,0,1,1,1,6,1.15,,,2018_Sep_11_1257,59.6279682321,verb_norming_L1-swe_no_translation,001,804,
SKYNDA,,,0,49,49,138,,,,,,,,,2018_Sep_11_1257,59.6279682321,verb_norming_L1-swe_no_translation,001,804,
KLIVA,Arm,arm,0,50,50,117,0,0,0,0,1,4.032,,,2018_Sep_11_1257,59.6279682321,verb_norming_L1-swe_no_translation,001,804,
KLIVA,Ben,ben,0,50,50,117,0,1,1,1,7,0.966,,,2018_Sep_11_1257,59.6279682321,verb_norming_L1-swe_no_translation,001,804,
KLIVA,,,0,50,50,117,,,,,,,,,2018_Sep_11_1257,59.6279682321,verb_norming_L1-swe_no_translation,001,804,
TORKA,Arm,arm,0,51,51,93,0,0,0,0,7,2.24,,,2018_Sep_11_1257,59.6279682321,verb_norming_L1-swe_no_translation,001,804,
TORKA,Ben,ben,0,51,51,93,0,1,1,1,2,3.248,,,2018_Sep_11_1257,59.6279682321,verb_norming_L1-swe_no_translation,001,804,
TORKA,,,0,51,51,93,,,,,,,,,2018_Sep_11_1257,59.6279682321,verb_norming_L1-swe_no_translation,001,804,
SLÅ,Arm,arm,0,52,52,79,0,0,0,0,7,1.87,,,2018_Sep_11_1257,59.6279682321,verb_norming_L1-swe_no_translation,001,804,
SLÅ,Ben,ben,0,52,52,79,0,1,1,1,1,2.912,,,2018_Sep_11_1257,59.6279682321,verb_norming_L1-swe_no_translation,001,804,
SLÅ,,,0,52,52,79,,,,,,,,,2018_Sep_11_1257,59.6279682321,verb_norming_L1-swe_no_translation,001,804,
GRÄVA,Arm,arm,0,53,53,17,0,0,0,0,7,3.477,,,2018_Sep_11_1257,59.6279682321,verb_norming_L1-swe_no_translation,001,804,
GRÄVA,Ben,ben,0,53,53,17,0,1,1,1,3,1.335,,,2018_Sep_11_1257,59.6279682321,verb_norming_L1-swe_no_translation,001,804,
GRÄVA,,,0,53,53,17,,,,,,,,,2018_Sep_11_1257,59.6279682321,verb_norming_L1-swe_no_translation,001,804,
SKYFFLA,Arm,arm,0,54,54,78,0,0,0,0,7,5.087,,,2018_Sep_11_1257,59.6279682321,verb_norming_L1-swe_no_translation,001,804,
SKYFFLA,Ben,ben,0,54,54,78,0,1,1,1,2,0.964,,,2018_Sep_11_1257,59.6279682321,verb_norming_L1-swe_no_translation,001,804,
SKYFFLA,,,0,54,54,78,,,,,,,,,2018_Sep_11_1257,59.6279682321,verb_norming_L1-swe_no_translation,001,804,
IRRA,Arm,arm,0,55,55,113,0,0,0,0,4,5.175,,,2018_Sep_11_1257,59.6279682321,verb_norming_L1-swe_no_translation,001,804,
IRRA,Ben,ben,0,55,55,113,0,1,1,1,5,4.776,,,2018_Sep_11_1257,59.6279682321,verb_norming_L1-swe_no_translation,001,804,
IRRA,,,0,55,55,113,,,,,,,,,2018_Sep_11_1257,59.6279682321,verb_norming_L1-swe_no_translation,001,804,
FÖSA,Arm,arm,0,56,56,12,0,0,0,0,6,3.498,,,2018_Sep_11_1257,59.6279682321,verb_norming_L1-swe_no_translation,001,804,
FÖSA,Ben,ben,0,56,56,12,0,1,1,1,1,2.528,,,2018_Sep_11_1257,59.6279682321,verb_norming_L1-swe_no_translation,001,804,
FÖSA,,,0,56,56,12,,,,,,,,,2018_Sep_11_1257,59.6279682321,verb_norming_L1-swe_no_translation,001,804,
RASPA,Arm,arm,0,57,57,60,0,0,0,0,7,3.061,,,2018_Sep_11_1257,59.6279682321,verb_norming_L1-swe_no_translation,001,804,
RASPA,Ben,ben,0,57,57,60,0,1,1,1,1,1.319,,,2018_Sep_11_1257,59.6279682321,verb_norming_L1-swe_no_translation,001,804,
RASPA,,,0,57,57,60,,,,,,,,,2018_Sep_11_1257,59.6279682321,verb_norming_L1-swe_no_translation,001,804,
GRABBA,Arm,arm,0,58,58,16,0,0,0,0,7,3.647,,,2018_Sep_11_1257,59.6279682321,verb_norming_L1-swe_no_translation,001,804,
GRABBA,Ben,ben,0,58,58,16,0,1,1,1,1,2.492,,,2018_Sep_11_1257,59.6279682321,verb_norming_L1-swe_no_translation,001,804,
GRABBA,,,0,58,58,16,,,,,,,,,2018_Sep_11_1257,59.6279682321,verb_norming_L1-swe_no_translation,001,804,
SKALA,Arm,arm,0,59,59,70,0,0,0,0,7,3.025,,,2018_Sep_11_1257,59.6279682321,verb_norming_L1-swe_no_translation,001,804,
SKALA,Ben,ben,0,59,59,70,0,1,1,1,1,1.418,,,2018_Sep_11_1257,59.6279682321,verb_norming_L1-swe_no_translation,001,804,
SKALA,,,0,59,59,70,,,,,,,,,2018_Sep_11_1257,59.6279682321,verb_norming_L1-swe_no_translation,001,804,
VACKLA,Arm,arm,0,60,60,164,0,0,0,0,2,7.168,,,2018_Sep_11_1257,59.6279682321,verb_norming_L1-swe_no_translation,001,804,
VACKLA,Ben,ben,0,60,60,164,0,1,1,1,5,2.81,,,2018_Sep_11_1257,59.6279682321,verb_norming_L1-swe_no_translation,001,804,
VACKLA,,,0,60,60,164,,,,,,,,,2018_Sep_11_1257,59.6279682321,verb_norming_L1-swe_no_translation,001,804,
SKJUTA,Arm,arm,0,61,61,72,0,0,0,0,7,5.558,,,2018_Sep_11_1257,59.6279682321,verb_norming_L1-swe_no_translation,001,804,
SKJUTA,Ben,ben,0,61,61,72,0,1,1,1,4,3.75,,,2018_Sep_11_1257,59.6279682321,verb_norming_L1-swe_no_translation,001,804,
SKJUTA,,,0,61,61,72,,,,,,,,,2018_Sep_11_1257,59.6279682321,verb_norming_L1-swe_no_translation,001,804,
KRAMA,Arm,arm,0,62,62,41,0,0,0,0,7,3.313,,,2018_Sep_11_1257,59.6279682321,verb_norming_L1-swe_no_translation,001,804,
KRAMA,Ben,ben,0,62,62,41,0,1,1,1,2,0.414,,,2018_Sep_11_1257,59.6279682321,verb_norming_L1-swe_no_translation,001,804,
KRAMA,,,0,62,62,41,,,,,,,,,2018_Sep_11_1257,59.6279682321,verb_norming_L1-swe_no_translation,001,804,
FATTA,Arm,arm,0,63,63,9,0,0,0,0,4,31.807,,,2018_Sep_11_1257,59.6279682321,verb_norming_L1-swe_no_translation,001,804,
FATTA,Ben,ben,0,63,63,9,0,1,1,1,4,0.481,,,2018_Sep_11_1257,59.6279682321,verb_norming_L1-swe_no_translation,001,804,
FATTA,,,0,63,63,9,,,,,,,,,2018_Sep_11_1257,59.6279682321,verb_norming_L1-swe_no_translation,001,804,
STUDSA,Arm,arm,0,64,64,155,0,0,0,0,1,6.214,,,2018_Sep_11_1257,59.6279682321,verb_norming_L1-swe_no_translation,001,804,
STUDSA,Ben,ben,0,64,64,155,0,1,1,1,6,1.336,,,2018_Sep_11_1257,59.6279682321,verb_norming_L1-swe_no_translation,001,804,
STUDSA,,,0,64,64,155,,,,,,,,,2018_Sep_11_1257,59.6279682321,verb_norming_L1-swe_no_translation,001,804,
HIVA,Arm,arm,0,65,65,24,0,0,0,0,7,3.296,,,2018_Sep_11_1257,59.6279682321,verb_norming_L1-swe_no_translation,001,804,
HIVA,Ben,ben,0,65,65,24,0,1,1,1,1,1.469,,,2018_Sep_11_1257,59.6279682321,verb_norming_L1-swe_no_translation,001,804,
HIVA,,,0,65,65,24,,,,,,,,,2018_Sep_11_1257,59.6279682321,verb_norming_L1-swe_no_translation,001,804,
KRAVLA,Arm,arm,0,66,66,122,0,0,0,0,6,7.537,,,2018_Sep_11_1257,59.6279682321,verb_norming_L1-swe_no_translation,001,804,
KRAVLA,Ben,ben,0,66,66,122,0,1,1,1,6,2.592,,,2018_Sep_11_1257,59.6279682321,verb_norming_L1-swe_no_translation,001,804,
KRAVLA,,,0,66,66,122,,,,,,,,,2018_Sep_11_1257,59.6279682321,verb_norming_L1-swe_no_translation,001,804,
SVAJA,Arm,arm,0,67,67,156,0,0,0,0,1,6.195,,,2018_Sep_11_1257,59.6279682321,verb_norming_L1-swe_no_translation,001,804,
SVAJA,Ben,ben,0,67,67,156,0,1,1,1,5,1.435,,,2018_Sep_11_1257,59.6279682321,verb_norming_L1-swe_no_translation,001,804,
SVAJA,,,0,67,67,156,,,,,,,,,2018_Sep_11_1257,59.6279682321,verb_norming_L1-swe_no_translation,001,804,
VANKA,Arm,arm,0,68,68,167,0,0,0,0,2,6.734,,,2018_Sep_11_1257,59.6279682321,verb_norming_L1-swe_no_translation,001,804,
VANKA,Ben,ben,0,68,68,167,0,1,1,1,6,1.437,,,2018_Sep_11_1257,59.6279682321,verb_norming_L1-swe_no_translation,001,804,
VANKA,,,0,68,68,167,,,,,,,,,2018_Sep_11_1257,59.6279682321,verb_norming_L1-swe_no_translation,001,804,
ÅLA,Arm,arm,0,69,69,100,0,0,0,0,5,5.659,,,2018_Sep_11_1257,59.6279682321,verb_norming_L1-swe_no_translation,001,804,
ÅLA,Ben,ben,0,69,69,100,0,1,1,1,5,2.024,,,2018_Sep_11_1257,59.6279682321,verb_norming_L1-swe_no_translation,001,804,
ÅLA,,,0,69,69,100,,,,,,,,,2018_Sep_11_1257,59.6279682321,verb_norming_L1-swe_no_translation,001,804,
RO,Arm,arm,0,70,70,64,0,0,0,0,7,3.75,,,2018_Sep_11_1257,59.6279682321,verb_norming_L1-swe_no_translation,001,804,
RO,Ben,ben,0,70,70,64,0,1,1,1,5,0.851,,,2018_Sep_11_1257,59.6279682321,verb_norming_L1-swe_no_translation,001,804,
RO,,,0,70,70,64,,,,,,,,,2018_Sep_11_1257,59.6279682321,verb_norming_L1-swe_no_translation,001,804,
HISSA,Arm,arm,0,71,71,23,0,0,0,0,7,10.641,,,2018_Sep_11_1257,59.6279682321,verb_norming_L1-swe_no_translation,001,804,
HISSA,Ben,ben,0,71,71,23,0,1,1,1,1,1.169,,,2018_Sep_11_1257,59.6279682321,verb_norming_L1-swe_no_translation,001,804,
HISSA,,,0,71,71,23,,,,,,,,,2018_Sep_11_1257,59.6279682321,verb_norming_L1-swe_no_translation,001,804,
SLINTA,Arm,arm,0,72,72,140,0,0,0,0,6,9.365,,,2018_Sep_11_1257,59.6279682321,verb_norming_L1-swe_no_translation,001,804,
SLINTA,Ben,ben,0,72,72,140,0,1,1,1,2,0.982,,,2018_Sep_11_1257,59.6279682321,verb_norming_L1-swe_no_translation,001,804,
SLINTA,,,0,72,72,140,,,,,,,,,2018_Sep_11_1257,59.6279682321,verb_norming_L1-swe_no_translation,001,804,
SKOPA,Arm,arm,0,73,73,73,0,0,0,0,7,7.153,,,2018_Sep_11_1257,59.6279682321,verb_norming_L1-swe_no_translation,001,804,
SKOPA,Ben,ben,0,73,73,73,0,1,1,1,1,1.437,,,2018_Sep_11_1257,59.6279682321,verb_norming_L1-swe_no_translation,001,804,
SKOPA,,,0,73,73,73,,,,,,,,,2018_Sep_11_1257,59.6279682321,verb_norming_L1-swe_no_translation,001,804,
KASTA,Arm,arm,0,74,74,27,0,0,0,0,7,2.558,,,2018_Sep_11_1257,59.6279682321,verb_norming_L1-swe_no_translation,001,804,
KASTA,Ben,ben,0,74,74,27,0,1,1,1,2,1.471,,,2018_Sep_11_1257,59.6279682321,verb_norming_L1-swe_no_translation,001,804,
KASTA,,,0,74,74,27,,,,,,,,,2018_Sep_11_1257,59.6279682321,verb_norming_L1-swe_no_translation,001,804,
KNOGA,Arm,arm,0,75,75,121,0,0,0,0,5,8.778,,,2018_Sep_11_1257,59.6279682321,verb_norming_L1-swe_no_translation,001,804,
KNOGA,Ben,ben,0,75,75,121,0,1,1,1,5,1.637,,,2018_Sep_11_1257,59.6279682321,verb_norming_L1-swe_no_translation,001,804,
KNOGA,,,0,75,75,121,,,,,,,,,2018_Sep_11_1257,59.6279682321,verb_norming_L1-swe_no_translation,001,804,
LINDA,Arm,arm,0,76,76,43,0,0,0,0,7,3.244,,,2018_Sep_11_1257,59.6279682321,verb_norming_L1-swe_no_translation,001,804,
LINDA,Ben,ben,0,76,76,43,0,1,1,1,1,1.635,,,2018_Sep_11_1257,59.6279682321,verb_norming_L1-swe_no_translation,001,804,
LINDA,,,0,76,76,43,,,,,,,,,2018_Sep_11_1257,59.6279682321,verb_norming_L1-swe_no_translation,001,804,
PETA,Arm,arm,0,77,77,50,0,0,0,0,7,2.307,,,2018_Sep_11_1257,59.6279682321,verb_norming_L1-swe_no_translation,001,804,
PETA,Ben,ben,0,77,77,50,0,1,1,1,1,0.549,,,2018_Sep_11_1257,59.6279682321,verb_norming_L1-swe_no_translation,001,804,
PETA,,,0,77,77,50,,,,,,,,,2018_Sep_11_1257,59.6279682321,verb_norming_L1-swe_no_translation,001,804,
STÖVLA,Arm,arm,0,78,78,152,0,0,0,0,2,4.736,,,2018_Sep_11_1257,59.6279682321,verb_norming_L1-swe_no_translation,001,804,
STÖVLA,Ben,ben,0,78,78,152,0,1,1,1,7,1.134,,,2018_Sep_11_1257,59.6279682321,verb_norming_L1-swe_no_translation,001,804,
STÖVLA,,,0,78,78,152,,,,,,,,,2018_Sep_11_1257,59.6279682321,verb_norming_L1-swe_no_translation,001,804,
CYKLA,Arm,arm,0,79,79,101,0,0,0,0,7,2.404,,,2018_Sep_11_1257,59.6279682321,verb_norming_L1-swe_no_translation,001,804,
CYKLA,Ben,ben,0,79,79,101,0,1,1,1,3,2.307,,,2018_Sep_11_1257,59.6279682321,verb_norming_L1-swe_no_translation,001,804,
CYKLA,,,0,79,79,101,,,,,,,,,2018_Sep_11_1257,59.6279682321,verb_norming_L1-swe_no_translation,001,804,
KLÖSA,Arm,arm,0,80,80,35,0,0,0,0,7,5.356,,,2018_Sep_11_1257,59.6279682321,verb_norming_L1-swe_no_translation,001,804,
KLÖSA,Ben,ben,0,80,80,35,0,1,1,1,1,0.681,,,2018_Sep_11_1257,59.6279682321,verb_norming_L1-swe_no_translation,001,804,
KLÖSA,,,0,80,80,35,,,,,,,,,2018_Sep_11_1257,59.6279682321,verb_norming_L1-swe_no_translation,001,804,
RYCKA,Arm,arm,0,81,81,67,0,0,0,0,7,2.689,,,2018_Sep_11_1257,59.6279682321,verb_norming_L1-swe_no_translation,001,804,
RYCKA,Ben,ben,0,81,81,67,0,1,1,1,1,0.747,,,2018_Sep_11_1257,59.6279682321,verb_norming_L1-swe_no_translation,001,804,
RYCKA,,,0,81,81,67,,,,,,,,,2018_Sep_11_1257,59.6279682321,verb_norming_L1-swe_no_translation,001,804,
BULTA,Arm,arm,0,82,82,4,0,0,0,0,7,2.556,,,2018_Sep_11_1257,59.6279682321,verb_norming_L1-swe_no_translation,001,804,
BULTA,Ben,ben,0,82,82,4,0,1,1,1,1,1.72,,,2018_Sep_11_1257,59.6279682321,verb_norming_L1-swe_no_translation,001,804,
BULTA,,,0,82,82,4,,,,,,,,,2018_Sep_11_1257,59.6279682321,verb_norming_L1-swe_no_translation,001,804,
HOPPA,Arm,arm,0,83,83,111,0,0,0,0,7,1.467,,,2018_Sep_11_1257,59.6279682321,verb_norming_L1-swe_no_translation,001,804,
HOPPA,Ben,ben,0,83,83,111,0,1,1,1,7,17.806,,,2018_Sep_11_1257,59.6279682321,verb_norming_L1-swe_no_translation,001,804,
HOPPA,,,0,83,83,111,,,,,,,,,2018_Sep_11_1257,59.6279682321,verb_norming_L1-swe_no_translation,001,804,
DASKA,Arm,arm,0,84,84,5,0,0,0,0,7,4.302,,,2018_Sep_11_1257,59.6279682321,verb_norming_L1-swe_no_translation,001,804,
DASKA,Ben,ben,0,84,84,5,0,1,1,1,1,0.414,,,2018_Sep_11_1257,59.6279682321,verb_norming_L1-swe_no_translation,001,804,
DASKA,,,0,84,84,5,,,,,,,,,2018_Sep_11_1257,59.6279682321,verb_norming_L1-swe_no_translation,001,804,
POLERA,Arm,arm,0,85,85,54,0,0,0,0,7,3.797,,,2018_Sep_11_1257,59.6279682321,verb_norming_L1-swe_no_translation,001,804,
POLERA,Ben,ben,0,85,85,54,0,1,1,1,1,1.318,,,2018_Sep_11_1257,59.6279682321,verb_norming_L1-swe_no_translation,001,804,
POLERA,,,0,85,85,54,,,,,,,,,2018_Sep_11_1257,59.6279682321,verb_norming_L1-swe_no_translation,001,804,
SNÄRTA,Arm,arm,0,86,86,86,0,0,0,0,6,9.652,,,2018_Sep_11_1257,59.6279682321,verb_norming_L1-swe_no_translation,001,804,
SNÄRTA,Ben,ben,0,86,86,86,0,1,1,1,1,2.292,,,2018_Sep_11_1257,59.6279682321,verb_norming_L1-swe_no_translation,001,804,
SNÄRTA,,,0,86,86,86,,,,,,,,,2018_Sep_11_1257,59.6279682321,verb_norming_L1-swe_no_translation,001,804,
STRUTTA,Arm,arm,0,87,87,154,0,0,0,0,5,8.578,,,2018_Sep_11_1257,59.6279682321,verb_norming_L1-swe_no_translation,001,804,
STRUTTA,Ben,ben,0,87,87,154,0,1,1,1,2,1.05,,,2018_Sep_11_1257,59.6279682321,verb_norming_L1-swe_no_translation,001,804,
STRUTTA,,,0,87,87,154,,,,,,,,,2018_Sep_11_1257,59.6279682321,verb_norming_L1-swe_no_translation,001,804,
BORSTA,Arm,arm,0,88,88,3,0,0,0,0,7,2.222,,,2018_Sep_11_1257,59.6279682321,verb_norming_L1-swe_no_translation,001,804,
BORSTA,Ben,ben,0,88,88,3,0,1,1,1,1,2.627,,,2018_Sep_11_1257,59.6279682321,verb_norming_L1-swe_no_translation,001,804,
BORSTA,,,0,88,88,3,,,,,,,,,2018_Sep_11_1257,59.6279682321,verb_norming_L1-swe_no_translation,001,804,
KNÄA,Arm,arm,0,89,89,118,0,0,0,0,1,3.565,,,2018_Sep_11_1257,59.6279682321,verb_norming_L1-swe_no_translation,001,804,
KNÄA,Ben,ben,0,89,89,118,0,1,1,1,7,1.454,,,2018_Sep_11_1257,59.6279682321,verb_norming_L1-swe_no_translation,001,804,
KNÄA,,,0,89,89,118,,,,,,,,,2018_Sep_11_1257,59.6279682321,verb_norming_L1-swe_no_translation,001,804,
STÄDA,Arm,arm,0,90,90,88,0,0,0,0,7,6.315,,,2018_Sep_11_1257,59.6279682321,verb_norming_L1-swe_no_translation,001,804,
STÄDA,Ben,ben,0,90,90,88,0,1,1,1,3,1.923,,,2018_Sep_11_1257,59.6279682321,verb_norming_L1-swe_no_translation,001,804,
STÄDA,,,0,90,90,88,,,,,,,,,2018_Sep_11_1257,59.6279682321,verb_norming_L1-swe_no_translation,001,804,
LYFTA,Arm,arm,0,91,91,44,0,0,0,0,7,2.858,,,2018_Sep_11_1257,59.6279682321,verb_norming_L1-swe_no_translation,001,804,
LYFTA,Ben,ben,0,91,91,44,0,1,1,1,3,1.419,,,2018_Sep_11_1257,59.6279682321,verb_norming_L1-swe_no_translation,001,804,
LYFTA,,,0,91,91,44,,,,,,,,,2018_Sep_11_1257,59.6279682321,verb_norming_L1-swe_no_translation,001,804,
HALKA,Arm,arm,0,92,92,109,0,0,0,0,2,7.62,,,2018_Sep_11_1257,59.6279682321,verb_norming_L1-swe_no_translation,001,804,
HALKA,Ben,ben,0,92,92,109,0,1,1,1,7,0.948,,,2018_Sep_11_1257,59.6279682321,verb_norming_L1-swe_no_translation,001,804,
HALKA,,,0,92,92,109,,,,,,,,,2018_Sep_11_1257,59.6279682321,verb_norming_L1-swe_no_translation,001,804,
KLIPPA,Arm,arm,0,93,93,34,0,0,0,0,7,3.814,,,2018_Sep_11_1257,59.6279682321,verb_norming_L1-swe_no_translation,001,804,
KLIPPA,Ben,ben,0,93,93,34,0,1,1,1,1,3.078,,,2018_Sep_11_1257,59.6279682321,verb_norming_L1-swe_no_translation,001,804,
KLIPPA,,,0,93,93,34,,,,,,,,,2018_Sep_11_1257,59.6279682321,verb_norming_L1-swe_no_translation,001,804,
SIGNERA,Arm,arm,0,94,94,68,0,0,0,0,7,2.287,,,2018_Sep_11_1257,59.6279682321,verb_norming_L1-swe_no_translation,001,804,
SIGNERA,Ben,ben,0,94,94,68,0,1,1,1,1,0.495,,,2018_Sep_11_1257,59.6279682321,verb_norming_L1-swe_no_translation,001,804,
SIGNERA,,,0,94,94,68,,,,,,,,,2018_Sep_11_1257,59.6279682321,verb_norming_L1-swe_no_translation,001,804,
SLITA,Arm,arm,0,95,95,82,0,0,0,0,7,2.556,,,2018_Sep_11_1257,59.6279682321,verb_norming_L1-swe_no_translation,001,804,
SLITA,Ben,ben,0,95,95,82,0,1,1,1,1,0.983,,,2018_Sep_11_1257,59.6279682321,verb_norming_L1-swe_no_translation,001,804,
SLITA,,,0,95,95,82,,,,,,,,,2018_Sep_11_1257,59.6279682321,verb_norming_L1-swe_no_translation,001,804,
TA,Arm,arm,0,96,96,92,0,0,0,0,7,5.378,,,2018_Sep_11_1257,59.6279682321,verb_norming_L1-swe_no_translation,001,804,
TA,Ben,ben,0,96,96,92,0,1,1,1,2,1.389,,,2018_Sep_11_1257,59.6279682321,verb_norming_L1-swe_no_translation,001,804,
TA,,,0,96,96,92,,,,,,,,,2018_Sep_11_1257,59.6279682321,verb_norming_L1-swe_no_translation,001,804,
KLÄTTRA,Arm,arm,0,97,97,116,0,0,0,0,6,5.556,,,2018_Sep_11_1257,59.6279682321,verb_norming_L1-swe_no_translation,001,804,
KLÄTTRA,Ben,ben,0,97,97,116,0,1,1,1,6,1.619,,,2018_Sep_11_1257,59.6279682321,verb_norming_L1-swe_no_translation,001,804,
KLÄTTRA,,,0,97,97,116,,,,,,,,,2018_Sep_11_1257,59.6279682321,verb_norming_L1-swe_no_translation,001,804,
KNALLA,Arm,arm,0,98,98,119,0,0,0,0,2,7.302,,,2018_Sep_11_1257,59.6279682321,verb_norming_L1-swe_no_translation,001,804,
KNALLA,Ben,ben,0,98,98,119,0,1,1,1,7,2.223,,,2018_Sep_11_1257,59.6279682321,verb_norming_L1-swe_no_translation,001,804,
KNALLA,,,0,98,98,119,,,,,,,,,2018_Sep_11_1257,59.6279682321,verb_norming_L1-swe_no_translation,001,804,
KLIA,Arm,arm,0,99,99,32,0,0,0,0,7,2.892,,,2018_Sep_11_1257,59.6279682321,verb_norming_L1-swe_no_translation,001,804,
KLIA,Ben,ben,0,99,99,32,0,1,1,1,2,7.188,,,2018_Sep_11_1257,59.6279682321,verb_norming_L1-swe_no_translation,001,804,
KLIA,,,0,99,99,32,,,,,,,,,2018_Sep_11_1257,59.6279682321,verb_norming_L1-swe_no_translation,001,804,
KNACKA,Arm,arm,0,100,100,36,0,0,0,0,7,2.624,,,2018_Sep_11_1257,59.6279682321,verb_norming_L1-swe_no_translation,001,804,
KNACKA,Ben,ben,0,100,100,36,0,1,1,1,1,1.336,,,2018_Sep_11_1257,59.6279682321,verb_norming_L1-swe_no_translation,001,804,
KNACKA,,,0,100,100,36,,,,,,,,,2018_Sep_11_1257,59.6279682321,verb_norming_L1-swe_no_translation,001,804,
STÅ,Arm,arm,0,101,101,147,0,0,0,0,2,5.324,,,2018_Sep_11_1257,59.6279682321,verb_norming_L1-swe_no_translation,001,804,
STÅ,Ben,ben,0,101,101,147,0,1,1,1,7,2.325,,,2018_Sep_11_1257,59.6279682321,verb_norming_L1-swe_no_translation,001,804,
STÅ,,,0,101,101,147,,,,,,,,,2018_Sep_11_1257,59.6279682321,verb_norming_L1-swe_no_translation,001,804,
PINNA,Arm,arm,0,102,102,128,0,0,0,0,2,8.494,,,2018_Sep_11_1257,59.6279682321,verb_norming_L1-swe_no_translation,001,804,
PINNA,Ben,ben,0,102,102,128,0,1,1,1,6,8.985,,,2018_Sep_11_1257,59.6279682321,verb_norming_L1-swe_no_translation,001,804,
PINNA,,,0,102,102,128,,,,,,,,,2018_Sep_11_1257,59.6279682321,verb_norming_L1-swe_no_translation,001,804,
KNIVHUGGA,Arm,arm,0,103,103,38,0,0,0,0,7,3.091,,,2018_Sep_11_1257,59.6279682321,verb_norming_L1-swe_no_translation,001,804,
KNIVHUGGA,Ben,ben,0,103,103,38,0,1,1,1,1,0.612,,,2018_Sep_11_1257,59.6279682321,verb_norming_L1-swe_no_translation,001,804,
KNIVHUGGA,,,0,103,103,38,,,,,,,,,2018_Sep_11_1257,59.6279682321,verb_norming_L1-swe_no_translation,001,804,
LINKA,Arm,arm,0,104,104,124,0,0,0,0,2,4.032,,,2018_Sep_11_1257,59.6279682321,verb_norming_L1-swe_no_translation,001,804,
LINKA,Ben,ben,0,104,104,124,0,1,1,1,6,2.61,,,2018_Sep_11_1257,59.6279682321,verb_norming_L1-swe_no_translation,001,804,
LINKA,,,0,104,104,124,,,,,,,,,2018_Sep_11_1257,59.6279682321,verb_norming_L1-swe_no_translation,001,804,
KLICKA,Arm,arm,0,105,105,33,0,0,0,0,7,2.019,,,2018_Sep_11_1257,59.6279682321,verb_norming_L1-swe_no_translation,001,804,
KLICKA,Ben,ben,0,105,105,33,0,1,1,1,1,0.982,,,2018_Sep_11_1257,59.6279682321,verb_norming_L1-swe_no_translation,001,804,
KLICKA,,,0,105,105,33,,,,,,,,,2018_Sep_11_1257,59.6279682321,verb_norming_L1-swe_no_translation,001,804,
KNYCKA,Arm,arm,0,106,106,39,0,0,0,0,6,12.082,,,2018_Sep_11_1257,59.6279682321,verb_norming_L1-swe_no_translation,001,804,
KNYCKA,Ben,ben,0,106,106,39,0,1,1,1,2,0.513,,,2018_Sep_11_1257,59.6279682321,verb_norming_L1-swe_no_translation,001,804,
KNYCKA,,,0,106,106,39,,,,,,,,,2018_Sep_11_1257,59.6279682321,verb_norming_L1-swe_no_translation,001,804,
TRYCKA,Arm,arm,0,107,107,95,0,0,0,0,7,2.587,,,2018_Sep_11_1257,59.6279682321,verb_norming_L1-swe_no_translation,001,804,
TRYCKA,Ben,ben,0,107,107,95,0,1,1,1,5,4.857,,,2018_Sep_11_1257,59.6279682321,verb_norming_L1-swe_no_translation,001,804,
TRYCKA,,,0,107,107,95,,,,,,,,,2018_Sep_11_1257,59.6279682321,verb_norming_L1-swe_no_translation,001,804,
TRASKA,Arm,arm,0,108,108,162,0,0,0,0,2,2.709,,,2018_Sep_11_1257,59.6279682321,verb_norming_L1-swe_no_translation,001,804,
TRASKA,Ben,ben,0,108,108,162,0,1,1,1,7,0.699,,,2018_Sep_11_1257,59.6279682321,verb_norming_L1-swe_no_translation,001,804,
TRASKA,,,0,108,108,162,,,,,,,,,2018_Sep_11_1257,59.6279682321,verb_norming_L1-swe_no_translation,001,804,
TVÄTTA,Arm,arm,0,109,109,96,0,0,0,0,7,2.054,,,2018_Sep_11_1257,59.6279682321,verb_norming_L1-swe_no_translation,001,804,
TVÄTTA,Ben,ben,0,109,109,96,0,1,1,1,1,0.565,,,2018_Sep_11_1257,59.6279682321,verb_norming_L1-swe_no_translation,001,804,
TVÄTTA,,,0,109,109,96,,,,,,,,,2018_Sep_11_1257,59.6279682321,verb_norming_L1-swe_no_translation,001,804,
FLACKA,Arm,arm,0,110,110,103,0,0,0,0,4,8.191,,,2018_Sep_11_1257,59.6279682321,verb_norming_L1-swe_no_translation,001,804,
FLACKA,Ben,ben,0,110,110,103,0,1,1,1,4,1.15,,,2018_Sep_11_1257,59.6279682321,verb_norming_L1-swe_no_translation,001,804,
FLACKA,,,0,110,110,103,,,,,,,,,2018_Sep_11_1257,59.6279682321,verb_norming_L1-swe_no_translation,001,804,
DRA,Arm,arm,0,111,111,6,0,0,0,0,7,3.095,,,2018_Sep_11_1257,59.6279682321,verb_norming_L1-swe_no_translation,001,804,
DRA,Ben,ben,0,111,111,6,0,1,1,1,1,2.579,,,2018_Sep_11_1257,59.6279682321,verb_norming_L1-swe_no_translation,001,804,
DRA,,,0,111,111,6,,,,,,,,,2018_Sep_11_1257,59.6279682321,verb_norming_L1-swe_no_translation,001,804,
TRUMMA,Arm,arm,0,112,112,94,0,0,0,0,7,2.524,,,2018_Sep_11_1257,59.6279682321,verb_norming_L1-swe_no_translation,001,804,
TRUMMA,Ben,ben,0,112,112,94,0,1,1,1,1,1.152,,,2018_Sep_11_1257,59.6279682321,verb_norming_L1-swe_no_translation,001,804,
TRUMMA,,,0,112,112,94,,,,,,,,,2018_Sep_11_1257,59.6279682321,verb_norming_L1-swe_no_translation,001,804,
SLUNGA,Arm,arm,0,113,113,83,0,0,0,0,7,2.068,,,2018_Sep_11_1257,59.6279682321,verb_norming_L1-swe_no_translation,001,804,
SLUNGA,Ben,ben,0,113,113,83,0,1,1,1,3,3.933,,,2018_Sep_11_1257,59.6279682321,verb_norming_L1-swe_no_translation,001,804,
SLUNGA,,,0,113,113,83,,,,,,,,,2018_Sep_11_1257,59.6279682321,verb_norming_L1-swe_no_translation,001,804,
RAKA,Arm,arm,0,114,114,59,0,0,0,0,7,3.196,,,2018_Sep_11_1257,59.6279682321,verb_norming_L1-swe_no_translation,001,804,
RAKA,Ben,ben,0,114,114,59,0,1,1,1,1,7.274,,,2018_Sep_11_1257,59.6279682321,verb_norming_L1-swe_no_translation,001,804,
RAKA,,,0,114,114,59,,,,,,,,,2018_Sep_11_1257,59.6279682321,verb_norming_L1-swe_no_translation,001,804,
HÖJA,Arm,arm,0,115,115,25,0,0,0,0,5,10.556,,,2018_Sep_11_1257,59.6279682321,verb_norming_L1-swe_no_translation,001,804,
HÖJA,Ben,ben,0,115,115,25,0,1,1,1,5,2.861,,,2018_Sep_11_1257,59.6279682321,verb_norming_L1-swe_no_translation,001,804,
HÖJA,,,0,115,115,25,,,,,,,,,2018_Sep_11_1257,59.6279682321,verb_norming_L1-swe_no_translation,001,804,
VIRA,Arm,arm,0,116,116,99,0,0,0,0,7,5.375,,,2018_Sep_11_1257,59.6279682321,verb_norming_L1-swe_no_translation,001,804,
VIRA,Ben,ben,0,116,116,99,0,1,1,1,1,1.371,,,2018_Sep_11_1257,59.6279682321,verb_norming_L1-swe_no_translation,001,804,
VIRA,,,0,116,116,99,,,,,,,,,2018_Sep_11_1257,59.6279682321,verb_norming_L1-swe_no_translation,001,804,
KOPPLA,Arm,arm,0,117,117,40,0,0,0,0,6,8.458,,,2018_Sep_11_1257,59.6279682321,verb_norming_L1-swe_no_translation,001,804,
KOPPLA,Ben,ben,0,117,117,40,0,1,1,1,1,0.63,,,2018_Sep_11_1257,59.6279682321,verb_norming_L1-swe_no_translation,001,804,
KOPPLA,,,0,117,117,40,,,,,,,,,2018_Sep_11_1257,59.6279682321,verb_norming_L1-swe_no_translation,001,804,
SKÄRA,Arm,arm,0,118,118,71,0,0,0,0,7,7.623,,,2018_Sep_11_1257,59.6279682321,verb_norming_L1-swe_no_translation,001,804,
SKÄRA,Ben,ben,0,118,118,71,0,1,1,1,1,0.783,,,2018_Sep_11_1257,59.6279682321,verb_norming_L1-swe_no_translation,001,804,
SKÄRA,,,0,118,118,71,,,,,,,,,2018_Sep_11_1257,59.6279682321,verb_norming_L1-swe_no_translation,001,804,
STEGA,Arm,arm,0,119,119,150,0,0,0,0,1,3.479,,,2018_Sep_11_1257,59.6279682321,verb_norming_L1-swe_no_translation,001,804,
STEGA,Ben,ben,0,119,119,150,0,1,1,1,7,0.546,,,2018_Sep_11_1257,59.6279682321,verb_norming_L1-swe_no_translation,001,804,
STEGA,,,0,119,119,150,,,,,,,,,2018_Sep_11_1257,59.6279682321,verb_norming_L1-swe_no_translation,001,804,
RULTA,Arm,arm,0,120,120,133,0,0,0,0,4,3.026,,,2018_Sep_11_1257,59.6279682321,verb_norming_L1-swe_no_translation,001,804,
RULTA,Ben,ben,0,120,120,133,0,1,1,1,4,0.764,,,2018_Sep_11_1257,59.6279682321,verb_norming_L1-swe_no_translation,001,804,
RULTA,,,0,120,120,133,,,,,,,,,2018_Sep_11_1257,59.6279682321,verb_norming_L1-swe_no_translation,001,804,
GRIPA,Arm,arm,0,121,121,19,0,0,0,0,7,2.154,,,2018_Sep_11_1257,59.6279682321,verb_norming_L1-swe_no_translation,001,804,
GRIPA,Ben,ben,0,121,121,19,0,1,1,1,3,3.147,,,2018_Sep_11_1257,59.6279682321,verb_norming_L1-swe_no_translation,001,804,
GRIPA,,,0,121,121,19,,,,,,,,,2018_Sep_11_1257,59.6279682321,verb_norming_L1-swe_no_translation,001,804,
NYPA,Arm,arm,0,122,122,47,0,0,0,0,7,2.691,,,2018_Sep_11_1257,59.6279682321,verb_norming_L1-swe_no_translation,001,804,
NYPA,Ben,ben,0,122,122,47,0,1,1,1,1,1.569,,,2018_Sep_11_1257,59.6279682321,verb_norming_L1-swe_no_translation,001,804,
NYPA,,,0,122,122,47,,,,,,,,,2018_Sep_11_1257,59.6279682321,verb_norming_L1-swe_no_translation,001,804,
HAFFA,Arm,arm,0,123,123,21,0,0,0,0,7,2.424,,,2018_Sep_11_1257,59.6279682321,verb_norming_L1-swe_no_translation,001,804,
HAFFA,Ben,ben,0,123,123,21,0,1,1,1,2,3.265,,,2018_Sep_11_1257,59.6279682321,verb_norming_L1-swe_no_translation,001,804,
HAFFA,,,0,123,123,21,,,,,,,,,2018_Sep_11_1257,59.6279682321,verb_norming_L1-swe_no_translation,001,804,
SMÄLLA,Arm,arm,0,124,124,84,0,0,0,0,6,9.935,,,2018_Sep_11_1257,59.6279682321,verb_norming_L1-swe_no_translation,001,804,
SMÄLLA,Ben,ben,0,124,124,84,0,1,1,1,1,0.781,,,2018_Sep_11_1257,59.6279682321,verb_norming_L1-swe_no_translation,001,804,
SMÄLLA,,,0,124,124,84,,,,,,,,,2018_Sep_11_1257,59.6279682321,verb_norming_L1-swe_no_translation,001,804,
FÅNGA,Arm,arm,0,125,125,8,0,0,0,0,7,1.952,,,2018_Sep_11_1257,59.6279682321,verb_norming_L1-swe_no_translation,001,804,
FÅNGA,Ben,ben,0,125,125,8,0,1,1,1,5,1.032,,,2018_Sep_11_1257,59.6279682321,verb_norming_L1-swe_no_translation,001,804,
FÅNGA,,,0,125,125,8,,,,,,,,,2018_Sep_11_1257,59.6279682321,verb_norming_L1-swe_no_translation,001,804,
SLÄNTRA,Arm,arm,0,126,126,139,0,0,0,0,4,3.076,,,2018_Sep_11_1257,59.6279682321,verb_norming_L1-swe_no_translation,001,804,
SLÄNTRA,Ben,ben,0,126,126,139,0,1,1,1,4,0.428,,,2018_Sep_11_1257,59.6279682321,verb_norming_L1-swe_no_translation,001,804,
SLÄNTRA,,,0,126,126,139,,,,,,,,,2018_Sep_11_1257,59.6279682321,verb_norming_L1-swe_no_translation,001,804,
VIKA,Arm,arm,0,127,127,98,0,0,0,0,7,4.856,,,2018_Sep_11_1257,59.6279682321,verb_norming_L1-swe_no_translation,001,804,
VIKA,Ben,ben,0,127,127,98,0,1,1,1,1,1.908,,,2018_Sep_11_1257,59.6279682321,verb_norming_L1-swe_no_translation,001,804,
VIKA,,,0,127,127,98,,,,,,,,,2018_Sep_11_1257,59.6279682321,verb_norming_L1-swe_no_translation,001,804,
STÖTA,Arm,arm,0,128,128,89,0,0,0,0,7,3.847,,,2018_Sep_11_1257,59.6279682321,verb_norming_L1-swe_no_translation,001,804,
STÖTA,Ben,ben,0,128,128,89,0,1,1,1,5,2.963,,,2018_Sep_11_1257,59.6279682321,verb_norming_L1-swe_no_translation,001,804,
STÖTA,,,0,128,128,89,,,,,,,,,2018_Sep_11_1257,59.6279682321,verb_norming_L1-swe_no_translation,001,804,
SVASSA,Arm,arm,0,129,129,157,0,0,0,0,4,3.597,,,2018_Sep_11_1257,59.6279682321,verb_norming_L1-swe_no_translation,001,804,
SVASSA,Ben,ben,0,129,129,157,0,1,1,1,4,0.481,,,2018_Sep_11_1257,59.6279682321,verb_norming_L1-swe_no_translation,001,804,
SVASSA,,,0,129,129,157,,,,,,,,,2018_Sep_11_1257,59.6279682321,verb_norming_L1-swe_no_translation,001,804,
SMEKA,Arm,arm,0,130,130,85,0,0,0,0,7,4.722,,,2018_Sep_11_1257,59.6279682321,verb_norming_L1-swe_no_translation,001,804,
SMEKA,Ben,ben,0,130,130,85,0,1,1,1,3,2.276,,,2018_Sep_11_1257,59.6279682321,verb_norming_L1-swe_no_translation,001,804,
SMEKA,,,0,130,130,85,,,,,,,,,2018_Sep_11_1257,59.6279682321,verb_norming_L1-swe_no_translation,001,804,
LUNKA,Arm,arm,0,131,131,126,0,0,0,0,2,8.091,,,2018_Sep_11_1257,59.6279682321,verb_norming_L1-swe_no_translation,001,804,
LUNKA,Ben,ben,0,131,131,126,0,1,1,1,7,0.429,,,2018_Sep_11_1257,59.6279682321,verb_norming_L1-swe_no_translation,001,804,
LUNKA,,,0,131,131,126,,,,,,,,,2018_Sep_11_1257,59.6279682321,verb_norming_L1-swe_no_translation,001,804,
RAFSA,Arm,arm,0,132,132,58,0,0,0,0,7,3.647,,,2018_Sep_11_1257,59.6279682321,verb_norming_L1-swe_no_translation,001,804,
RAFSA,Ben,ben,0,132,132,58,0,1,1,1,1,0.532,,,2018_Sep_11_1257,59.6279682321,verb_norming_L1-swe_no_translation,001,804,
RAFSA,,,0,132,132,58,,,,,,,,,2018_Sep_11_1257,59.6279682321,verb_norming_L1-swe_no_translation,001,804,
PILLA,Arm,arm,0,133,133,51,0,0,0,0,7,1.448,,,2018_Sep_11_1257,59.6279682321,verb_norming_L1-swe_no_translation,001,804,
PILLA,Ben,ben,0,133,133,51,0,1,1,1,1,1.184,,,2018_Sep_11_1257,59.6279682321,verb_norming_L1-swe_no_translation,001,804,
PILLA,,,0,133,133,51,,,,,,,,,2018_Sep_11_1257,59.6279682321,verb_norming_L1-swe_no_translation,001,804,
FLY,Arm,arm,0,134,134,105,0,0,0,0,1,9.533,,,2018_Sep_11_1257,59.6279682321,verb_norming_L1-swe_no_translation,001,804,
FLY,Ben,ben,0,134,134,105,0,1,1,1,7,0.799,,,2018_Sep_11_1257,59.6279682321,verb_norming_L1-swe_no_translation,001,804,
FLY,,,0,134,134,105,,,,,,,,,2018_Sep_11_1257,59.6279682321,verb_norming_L1-swe_no_translation,001,804,
STAMPA,Arm,arm,0,135,135,148,0,0,0,0,1,3.028,,,2018_Sep_11_1257,59.6279682321,verb_norming_L1-swe_no_translation,001,804,
STAMPA,Ben,ben,0,135,135,148,0,1,1,1,7,6.434,,,2018_Sep_11_1257,59.6279682321,verb_norming_L1-swe_no_translation,001,804,
STAMPA,,,0,135,135,148,,,,,,,,,2018_Sep_11_1257,59.6279682321,verb_norming_L1-swe_no_translation,001,804,
KARVA,Arm,arm,0,136,136,26,0,0,0,0,7,2.776,,,2018_Sep_11_1257,59.6279682321,verb_norming_L1-swe_no_translation,001,804,
KARVA,Ben,ben,0,136,136,26,0,1,1,1,1,6.871,,,2018_Sep_11_1257,59.6279682321,verb_norming_L1-swe_no_translation,001,804,
KARVA,,,0,136,136,26,,,,,,,,,2018_Sep_11_1257,59.6279682321,verb_norming_L1-swe_no_translation,001,804,
FILA,Arm,arm,0,137,137,10,0,0,0,0,7,5.307,,,2018_Sep_11_1257,59.6279682321,verb_norming_L1-swe_no_translation,001,804,
FILA,Ben,ben,0,137,137,10,0,1,1,1,1,5.897,,,2018_Sep_11_1257,59.6279682321,verb_norming_L1-swe_no_translation,001,804,
FILA,,,0,137,137,10,,,,,,,,,2018_Sep_11_1257,59.6279682321,verb_norming_L1-swe_no_translation,001,804,
VANDRA,Arm,arm,0,138,138,166,0,0,0,0,2,9.635,,,2018_Sep_11_1257,59.6279682321,verb_norming_L1-swe_no_translation,001,804,
VANDRA,Ben,ben,0,138,138,166,0,1,1,1,7,1.101,,,2018_Sep_11_1257,59.6279682321,verb_norming_L1-swe_no_translation,001,804,
VANDRA,,,0,138,138,166,,,,,,,,,2018_Sep_11_1257,59.6279682321,verb_norming_L1-swe_no_translation,001,804,
LÖPA,Arm,arm,0,139,139,125,0,0,0,0,1,10.205,,,2018_Sep_11_1257,59.6279682321,verb_norming_L1-swe_no_translation,001,804,
LÖPA,Ben,ben,0,139,139,125,0,1,1,1,7,0.814,,,2018_Sep_11_1257,59.6279682321,verb_norming_L1-swe_no_translation,001,804,
LÖPA,,,0,139,139,125,,,,,,,,,2018_Sep_11_1257,59.6279682321,verb_norming_L1-swe_no_translation,001,804,
ILA,Arm,arm,0,140,140,112,0,0,0,0,2,5.995,,,2018_Sep_11_1257,59.6279682321,verb_norming_L1-swe_no_translation,001,804,
ILA,Ben,ben,0,140,140,112,0,1,1,1,7,0.631,,,2018_Sep_11_1257,59.6279682321,verb_norming_L1-swe_no_translation,001,804,
ILA,,,0,140,140,112,,,,,,,,,2018_Sep_11_1257,59.6279682321,verb_norming_L1-swe_no_translation,001,804,
TVINNA,Arm,arm,0,141,141,97,0,0,0,0,6,5.324,,,2018_Sep_11_1257,59.6279682321,verb_norming_L1-swe_no_translation,001,804,
TVINNA,Ben,ben,0,141,141,97,0,1,1,1,1,1.789,,,2018_Sep_11_1257,59.6279682321,verb_norming_L1-swe_no_translation,001,804,
TVINNA,,,0,141,141,97,,,,,,,,,2018_Sep_11_1257,59.6279682321,verb_norming_L1-swe_no_translation,001,804,
TRIPPA,Arm,arm,0,142,142,163,0,0,0,0,1,3.362,,,2018_Sep_11_1257,59.6279682321,verb_norming_L1-swe_no_translation,001,804,
TRIPPA,Ben,ben,0,142,142,163,0,1,1,1,7,0.565,,,2018_Sep_11_1257,59.6279682321,verb_norming_L1-swe_no_translation,001,804,
TRIPPA,,,0,142,142,163,,,,,,,,,2018_Sep_11_1257,59.6279682321,verb_norming_L1-swe_no_translation,001,804,
KRATSA,Arm,arm,0,143,143,42,0,0,0,0,4,4.452,,,2018_Sep_11_1257,59.6279682321,verb_norming_L1-swe_no_translation,001,804,
KRATSA,Ben,ben,0,143,143,42,0,1,1,1,4,0.732,,,2018_Sep_11_1257,59.6279682321,verb_norming_L1-swe_no_translation,001,804,
KRATSA,,,0,143,143,42,,,,,,,,,2018_Sep_11_1257,59.6279682321,verb_norming_L1-swe_no_translation,001,804,
KNATA,Arm,arm,0,144,144,120,0,0,0,0,1,2.541,,,2018_Sep_11_1257,59.6279682321,verb_norming_L1-swe_no_translation,001,804,
KNATA,Ben,ben,0,144,144,120,0,1,1,1,7,1.806,,,2018_Sep_11_1257,59.6279682321,verb_norming_L1-swe_no_translation,001,804,
KNATA,,,0,144,144,120,,,,,,,,,2018_Sep_11_1257,59.6279682321,verb_norming_L1-swe_no_translation,001,804,
SKUMMA,Arm,arm,0,145,145,76,0,0,0,0,6,4.15,,,2018_Sep_11_1257,59.6279682321,verb_norming_L1-swe_no_translation,001,804,
SKUMMA,Ben,ben,0,145,145,76,0,1,1,1,1,1.42,,,2018_Sep_11_1257,59.6279682321,verb_norming_L1-swe_no_translation,001,804,
SKUMMA,,,0,145,145,76,,,,,,,,,2018_Sep_11_1257,59.6279682321,verb_norming_L1-swe_no_translation,001,804,
STAPPLA,Arm,arm,0,146,146,149,0,0,0,0,1,3.427,,,2018_Sep_11_1257,59.6279682321,verb_norming_L1-swe_no_translation,001,804,
STAPPLA,Ben,ben,0,146,146,149,0,1,1,1,6,4.202,,,2018_Sep_11_1257,59.6279682321,verb_norming_L1-swe_no_translation,001,804,
STAPPLA,,,0,146,146,149,,,,,,,,,2018_Sep_11_1257,59.6279682321,verb_norming_L1-swe_no_translation,001,804,
STIGA,Arm,arm,0,147,147,151,0,0,0,0,1,7.235,,,2018_Sep_11_1257,59.6279682321,verb_norming_L1-swe_no_translation,001,804,
STIGA,Ben,ben,0,147,147,151,0,1,1,1,6,5.83,,,2018_Sep_11_1257,59.6279682321,verb_norming_L1-swe_no_translation,001,804,
STIGA,,,0,147,147,151,,,,,,,,,2018_Sep_11_1257,59.6279682321,verb_norming_L1-swe_no_translation,001,804,
FLANERA,Arm,arm,0,148,148,104,0,0,0,0,2,2.721,,,2018_Sep_11_1257,59.6279682321,verb_norming_L1-swe_no_translation,001,804,
FLANERA,Ben,ben,0,148,148,104,0,1,1,1,7,0.764,,,2018_Sep_11_1257,59.6279682321,verb_norming_L1-swe_no_translation,001,804,
FLANERA,,,0,148,148,104,,,,,,,,,2018_Sep_11_1257,59.6279682321,verb_norming_L1-swe_no_translation,001,804,
KILA,Arm,arm,0,149,149,115,0,0,0,0,7,2.472,,,2018_Sep_11_1257,59.6279682321,verb_norming_L1-swe_no_translation,001,804,
KILA,Ben,ben,0,149,149,115,0,1,1,1,1,3.012,,,2018_Sep_11_1257,59.6279682321,verb_norming_L1-swe_no_translation,001,804,
KILA,,,0,149,149,115,,,,,,,,,2018_Sep_11_1257,59.6279682321,verb_norming_L1-swe_no_translation,001,804,
KLAPPA,Arm,arm,0,150,150,31,0,0,0,0,7,1.633,,,2018_Sep_11_1257,59.6279682321,verb_norming_L1-swe_no_translation,001,804,
KLAPPA,Ben,ben,0,150,150,31,0,1,1,1,1,1.989,,,2018_Sep_11_1257,59.6279682321,verb_norming_L1-swe_no_translation,001,804,
KLAPPA,,,0,150,150,31,,,,,,,,,2018_Sep_11_1257,59.6279682321,verb_norming_L1-swe_no_translation,001,804,
RÄNNA,Arm,arm,0,151,151,131,0,0,0,0,1,3.095,,,2018_Sep_11_1257,59.6279682321,verb_norming_L1-swe_no_translation,001,804,
RÄNNA,Ben,ben,0,151,151,131,0,1,1,1,7,1.084,,,2018_Sep_11_1257,59.6279682321,verb_norming_L1-swe_no_translation,001,804,
RÄNNA,,,0,151,151,131,,,,,,,,,2018_Sep_11_1257,59.6279682321,verb_norming_L1-swe_no_translation,001,804,
STRÖVA,Arm,arm,0,152,152,153,0,0,0,0,1,2.91,,,2018_Sep_11_1257,59.6279682321,verb_norming_L1-swe_no_translation,001,804,
STRÖVA,Ben,ben,0,152,152,153,0,1,1,1,6,8.731,,,2018_Sep_11_1257,59.6279682321,verb_norming_L1-swe_no_translation,001,804,
STRÖVA,,,0,152,152,153,,,,,,,,,2018_Sep_11_1257,59.6279682321,verb_norming_L1-swe_no_translation,001,804,
BANKA,Arm,arm,0,153,153,1,0,0,0,0,7,1.719,,,2018_Sep_11_1257,59.6279682321,verb_norming_L1-swe_no_translation,001,804,
BANKA,Ben,ben,0,153,153,1,0,1,1,1,1,0.616,,,2018_Sep_11_1257,59.6279682321,verb_norming_L1-swe_no_translation,001,804,
BANKA,,,0,153,153,1,,,,,,,,,2018_Sep_11_1257,59.6279682321,verb_norming_L1-swe_no_translation,001,804,
SLIPA,Arm,arm,0,154,154,81,0,0,0,0,7,4.132,,,2018_Sep_11_1257,59.6279682321,verb_norming_L1-swe_no_translation,001,804,
SLIPA,Ben,ben,0,154,154,81,0,1,1,1,1,0.648,,,2018_Sep_11_1257,59.6279682321,verb_norming_L1-swe_no_translation,001,804,
SLIPA,,,0,154,154,81,,,,,,,,,2018_Sep_11_1257,59.6279682321,verb_norming_L1-swe_no_translation,001,804,
NORPA,Arm,arm,0,155,155,46,0,0,0,0,7,4.637,,,2018_Sep_11_1257,59.6279682321,verb_norming_L1-swe_no_translation,001,804,
NORPA,Ben,ben,0,155,155,46,0,1,1,1,1,1.957,,,2018_Sep_11_1257,59.6279682321,verb_norming_L1-swe_no_translation,001,804,
NORPA,,,0,155,155,46,,,,,,,,,2018_Sep_11_1257,59.6279682321,verb_norming_L1-swe_no_translation,001,804,
PROMENERA,Arm,arm,0,156,156,129,0,0,0,0,1,5.575,,,2018_Sep_11_1257,59.6279682321,verb_norming_L1-swe_no_translation,001,804,
PROMENERA,Ben,ben,0,156,156,129,0,1,1,1,7,0.446,,,2018_Sep_11_1257,59.6279682321,verb_norming_L1-swe_no_translation,001,804,
PROMENERA,,,0,156,156,129,,,,,,,,,2018_Sep_11_1257,59.6279682321,verb_norming_L1-swe_no_translation,001,804,
PLOCKA,Arm,arm,0,157,157,53,0,0,0,0,7,2.858,,,2018_Sep_11_1257,59.6279682321,verb_norming_L1-swe_no_translation,001,804,
PLOCKA,Ben,ben,0,157,157,53,0,1,1,1,1,2.626,,,2018_Sep_11_1257,59.6279682321,verb_norming_L1-swe_no_translation,001,804,
PLOCKA,,,0,157,157,53,,,,,,,,,2018_Sep_11_1257,59.6279682321,verb_norming_L1-swe_no_translation,001,804,
GNIDA,Arm,arm,0,158,158,14,0,0,0,0,6,5.81,,,2018_Sep_11_1257,59.6279682321,verb_norming_L1-swe_no_translation,001,804,
GNIDA,Ben,ben,0,158,158,14,0,1,1,1,3,2.811,,,2018_Sep_11_1257,59.6279682321,verb_norming_L1-swe_no_translation,001,804,
GNIDA,,,0,158,158,14,,,,,,,,,2018_Sep_11_1257,59.6279682321,verb_norming_L1-swe_no_translation,001,804,
BADDA,Arm,arm,0,159,159,0,0,0,0,0,7,2.373,,,2018_Sep_11_1257,59.6279682321,verb_norming_L1-swe_no_translation,001,804,
BADDA,Ben,ben,0,159,159,0,0,1,1,1,1,0.817,,,2018_Sep_11_1257,59.6279682321,verb_norming_L1-swe_no_translation,001,804,
BADDA,,,0,159,159,0,,,,,,,,,2018_Sep_11_1257,59.6279682321,verb_norming_L1-swe_no_translation,001,804,
RAGLA,Arm,arm,0,160,160,130,0,0,0,0,1,5.792,,,2018_Sep_11_1257,59.6279682321,verb_norming_L1-swe_no_translation,001,804,
RAGLA,Ben,ben,0,160,160,130,0,1,1,1,7,3.096,,,2018_Sep_11_1257,59.6279682321,verb_norming_L1-swe_no_translation,001,804,
RAGLA,,,0,160,160,130,,,,,,,,,2018_Sep_11_1257,59.6279682321,verb_norming_L1-swe_no_translation,001,804,
GLIDA,Arm,arm,0,161,161,107,0,0,0,0,1,6.212,,,2018_Sep_11_1257,59.6279682321,verb_norming_L1-swe_no_translation,001,804,
GLIDA,Ben,ben,0,161,161,107,0,1,1,1,5,4.22,,,2018_Sep_11_1257,59.6279682321,verb_norming_L1-swe_no_translation,001,804,
GLIDA,,,0,161,161,107,,,,,,,,,2018_Sep_11_1257,59.6279682321,verb_norming_L1-swe_no_translation,001,804,
SPRINTA,Arm,arm,0,162,162,146,0,0,0,0,3,6.448,,,2018_Sep_11_1257,59.6279682321,verb_norming_L1-swe_no_translation,001,804,
SPRINTA,Ben,ben,0,162,162,146,0,1,1,1,7,0.698,,,2018_Sep_11_1257,59.6279682321,verb_norming_L1-swe_no_translation,001,804,
SPRINTA,,,0,162,162,146,,,,,,,,,2018_Sep_11_1257,59.6279682321,verb_norming_L1-swe_no_translation,001,804,
SKRIDA,Arm,arm,0,163,163,136,0,0,0,0,1,5.359,,,2018_Sep_11_1257,59.6279682321,verb_norming_L1-swe_no_translation,001,804,
SKRIDA,Ben,ben,0,163,163,136,0,1,1,1,6,2.878,,,2018_Sep_11_1257,59.6279682321,verb_norming_L1-swe_no_translation,001,804,
SKRIDA,,,0,163,163,136,,,,,,,,,2018_Sep_11_1257,59.6279682321,verb_norming_L1-swe_no_translation,001,804,
KRYPA,Arm,arm,0,164,164,123,0,0,0,0,5,4.367,,,2018_Sep_11_1257,59.6279682321,verb_norming_L1-swe_no_translation,001,804,
KRYPA,Ben,ben,0,164,164,123,0,1,1,1,6,2.257,,,2018_Sep_11_1257,59.6279682321,verb_norming_L1-swe_no_translation,001,804,
KRYPA,,,0,164,164,123,,,,,,,,,2018_Sep_11_1257,59.6279682321,verb_norming_L1-swe_no_translation,001,804,
SKEJTA,Arm,arm,0,165,165,135,0,0,0,0,2,7.252,,,2018_Sep_11_1257,59.6279682321,verb_norming_L1-swe_no_translation,001,804,
SKEJTA,Ben,ben,0,165,165,135,0,1,1,1,7,1.737,,,2018_Sep_11_1257,59.6279682321,verb_norming_L1-swe_no_translation,001,804,
SKEJTA,,,0,165,165,135,,,,,,,,,2018_Sep_11_1257,59.6279682321,verb_norming_L1-swe_no_translation,001,804,
BINDA,Arm,arm,0,166,166,2,0,0,0,0,7,2.24,,,2018_Sep_11_1257,59.6279682321,verb_norming_L1-swe_no_translation,001,804,
BINDA,Ben,ben,0,166,166,2,0,1,1,1,1,2.427,,,2018_Sep_11_1257,59.6279682321,verb_norming_L1-swe_no_translation,001,804,
BINDA,,,0,166,166,2,,,,,,,,,2018_Sep_11_1257,59.6279682321,verb_norming_L1-swe_no_translation,001,804,
VINGLA,Arm,arm,0,167,167,168,0,0,0,0,3,8.912,,,2018_Sep_11_1257,59.6279682321,verb_norming_L1-swe_no_translation,001,804,
VINGLA,Ben,ben,0,167,167,168,0,1,1,1,7,0.53,,,2018_Sep_11_1257,59.6279682321,verb_norming_L1-swe_no_translation,001,804,
VINGLA,,,0,167,167,168,,,,,,,,,2018_Sep_11_1257,59.6279682321,verb_norming_L1-swe_no_translation,001,804,
PUTSA,Arm,arm,0,168,168,56,0,0,0,0,7,1.904,,,2018_Sep_11_1257,59.6279682321,verb_norming_L1-swe_no_translation,001,804,
PUTSA,Ben,ben,0,168,168,56,0,1,1,1,1,0.699,,,2018_Sep_11_1257,59.6279682321,verb_norming_L1-swe_no_translation,001,804,
PUTSA,,,0,168,168,56,,,,,,,,,2018_Sep_11_1257,59.6279682321,verb_norming_L1-swe_no_translation,001,804,
,,,,,,,,,,,,,space,27.9913031865,2018_Sep_11_1257,59.6279682321,verb_norming_L1-swe_no_translation,001,804,
