word,category,category_lowercase,trials.thisRepN,trials.thisTrialN,trials.thisN,trials.thisIndex,armleg_loop.thisRepN,armleg_loop.thisTrialN,armleg_loop.thisN,armleg_loop.thisIndex,rating.response,rating.rt,key_resp_7.keys,key_resp_7.rt,date,frameRate,expName,session,participant,
STOMP,Leg,leg,0,0,0,104,0,0,0,0,7,10.223,,,2018_Sep_12_1446,59.7045176296,verb_norming_L2-eng_oral_translation,001,805,
STOMP,Arm,arm,0,0,0,104,0,1,1,1,1,8.85,,,2018_Sep_12_1446,59.7045176296,verb_norming_L2-eng_oral_translation,001,805,
STOMP,,,0,0,0,104,,,,,,,return,10.5490008597,2018_Sep_12_1446,59.7045176296,verb_norming_L2-eng_oral_translation,001,805,
HOP,Leg,leg,0,1,1,71,0,0,0,0,7,10.911,,,2018_Sep_12_1446,59.7045176296,verb_norming_L2-eng_oral_translation,001,805,
HOP,Arm,arm,0,1,1,71,0,1,1,1,1,4.508,,,2018_Sep_12_1446,59.7045176296,verb_norming_L2-eng_oral_translation,001,805,
HOP,,,0,1,1,71,,,,,,,return,2.74959817873,2018_Sep_12_1446,59.7045176296,verb_norming_L2-eng_oral_translation,001,805,
CARVE,Leg,leg,0,2,2,4,0,0,0,0,1,12.871,,,2018_Sep_12_1446,59.7045176296,verb_norming_L2-eng_oral_translation,001,805,
CARVE,Arm,arm,0,2,2,4,0,1,1,1,6,4.205,,,2018_Sep_12_1446,59.7045176296,verb_norming_L2-eng_oral_translation,001,805,
CARVE,,,0,2,2,4,,,,,,,return,2.75087041521,2018_Sep_12_1446,59.7045176296,verb_norming_L2-eng_oral_translation,001,805,
PRANCE,Leg,leg,0,3,3,85,0,0,0,0,6,58.253,,,2018_Sep_12_1446,59.7045176296,verb_norming_L2-eng_oral_translation,001,805,
PRANCE,Arm,arm,0,3,3,85,0,1,1,1,2,1.236,,,2018_Sep_12_1446,59.7045176296,verb_norming_L2-eng_oral_translation,001,805,
PRANCE,,,0,3,3,85,,,,,,,return,3.92476499185,2018_Sep_12_1446,59.7045176296,verb_norming_L2-eng_oral_translation,001,805,
HUG,Leg,leg,0,4,4,23,0,0,0,0,2,4.939,,,2018_Sep_12_1446,59.7045176296,verb_norming_L2-eng_oral_translation,001,805,
HUG,Arm,arm,0,4,4,23,0,1,1,1,7,2.277,,,2018_Sep_12_1446,59.7045176296,verb_norming_L2-eng_oral_translation,001,805,
HUG,,,0,4,4,23,,,,,,,return,2.61661153642,2018_Sep_12_1446,59.7045176296,verb_norming_L2-eng_oral_translation,001,805,
SCOOP,Leg,leg,0,5,5,38,0,0,0,0,1,8.981,,,2018_Sep_12_1446,59.7045176296,verb_norming_L2-eng_oral_translation,001,805,
SCOOP,Arm,arm,0,5,5,38,0,1,1,1,7,2.863,,,2018_Sep_12_1446,59.7045176296,verb_norming_L2-eng_oral_translation,001,805,
SCOOP,,,0,5,5,38,,,,,,,return,3.42176930955,2018_Sep_12_1446,59.7045176296,verb_norming_L2-eng_oral_translation,001,805,
SNEAK,Leg,leg,0,6,6,97,0,0,0,0,7,4.638,,,2018_Sep_12_1446,59.7045176296,verb_norming_L2-eng_oral_translation,001,805,
SNEAK,Arm,arm,0,6,6,97,0,1,1,1,1,4.874,,,2018_Sep_12_1446,59.7045176296,verb_norming_L2-eng_oral_translation,001,805,
SNEAK,,,0,6,6,97,,,,,,,return,2.76736207692,2018_Sep_12_1446,59.7045176296,verb_norming_L2-eng_oral_translation,001,805,
STRUT,Leg,leg,0,7,7,109,0,0,0,0,7,5.61,,,2018_Sep_12_1446,59.7045176296,verb_norming_L2-eng_oral_translation,001,805,
STRUT,Arm,arm,0,7,7,109,0,1,1,1,3,3.752,,,2018_Sep_12_1446,59.7045176296,verb_norming_L2-eng_oral_translation,001,805,
STRUT,,,0,7,7,109,,,,,,,return,2.71725018333,2018_Sep_12_1446,59.7045176296,verb_norming_L2-eng_oral_translation,001,805,
SHAKE,Leg,leg,0,8,8,43,0,0,0,0,5,5.309,,,2018_Sep_12_1446,59.7045176296,verb_norming_L2-eng_oral_translation,001,805,
SHAKE,Arm,arm,0,8,8,43,0,1,1,1,7,3.466,,,2018_Sep_12_1446,59.7045176296,verb_norming_L2-eng_oral_translation,001,805,
SHAKE,,,0,8,8,43,,,,,,,return,3.65658978987,2018_Sep_12_1446,59.7045176296,verb_norming_L2-eng_oral_translation,001,805,
ROW,Leg,leg,0,9,9,36,0,0,0,0,1,6.869,,,2018_Sep_12_1446,59.7045176296,verb_norming_L2-eng_oral_translation,001,805,
ROW,Arm,arm,0,9,9,36,0,1,1,1,7,1.673,,,2018_Sep_12_1446,59.7045176296,verb_norming_L2-eng_oral_translation,001,805,
ROW,,,0,9,9,36,,,,,,,return,2.70176327235,2018_Sep_12_1446,59.7045176296,verb_norming_L2-eng_oral_translation,001,805,
KNEEL,Leg,leg,0,10,10,76,0,0,0,0,7,16.528,,,2018_Sep_12_1446,59.7045176296,verb_norming_L2-eng_oral_translation,001,805,
KNEEL,Arm,arm,0,10,10,76,0,1,1,1,1,1.052,,,2018_Sep_12_1446,59.7045176296,verb_norming_L2-eng_oral_translation,001,805,
KNEEL,,,0,10,10,76,,,,,,,return,4.36082602127,2018_Sep_12_1446,59.7045176296,verb_norming_L2-eng_oral_translation,001,805,
SQUEEZE,Leg,leg,0,11,11,48,0,0,0,0,3,6.743,,,2018_Sep_12_1446,59.7045176296,verb_norming_L2-eng_oral_translation,001,805,
SQUEEZE,Arm,arm,0,11,11,48,0,1,1,1,7,2.758,,,2018_Sep_12_1446,59.7045176296,verb_norming_L2-eng_oral_translation,001,805,
SQUEEZE,,,0,11,11,48,,,,,,,return,2.71731972172,2018_Sep_12_1446,59.7045176296,verb_norming_L2-eng_oral_translation,001,805,
WADDLE,Leg,leg,0,12,12,123,0,0,0,0,7,11.46,,,2018_Sep_12_1446,59.7045176296,verb_norming_L2-eng_oral_translation,001,805,
WADDLE,Arm,arm,0,12,12,123,0,1,1,1,1,4.555,,,2018_Sep_12_1446,59.7045176296,verb_norming_L2-eng_oral_translation,001,805,
WADDLE,,,0,12,12,123,,,,,,,return,3.00231175641,2018_Sep_12_1446,59.7045176296,verb_norming_L2-eng_oral_translation,001,805,
SWAY,Leg,leg,0,13,13,111,0,0,0,0,7,4.924,,,2018_Sep_12_1446,59.7045176296,verb_norming_L2-eng_oral_translation,001,805,
SWAY,Arm,arm,0,13,13,111,0,1,1,1,2,1.371,,,2018_Sep_12_1446,59.7045176296,verb_norming_L2-eng_oral_translation,001,805,
SWAY,,,0,13,13,111,,,,,,,return,2.95199954484,2018_Sep_12_1446,59.7045176296,verb_norming_L2-eng_oral_translation,001,805,
SCRAPE,Leg,leg,0,14,14,39,0,0,0,0,2,10.306,,,2018_Sep_12_1446,59.7045176296,verb_norming_L2-eng_oral_translation,001,805,
SCRAPE,Arm,arm,0,14,14,39,0,1,1,1,7,2.393,,,2018_Sep_12_1446,59.7045176296,verb_norming_L2-eng_oral_translation,001,805,
SCRAPE,,,0,14,14,39,,,,,,,return,2.55051055403,2018_Sep_12_1446,59.7045176296,verb_norming_L2-eng_oral_translation,001,805,
BRUSH,Leg,leg,0,15,15,3,0,0,0,0,3,4.487,,,2018_Sep_12_1446,59.7045176296,verb_norming_L2-eng_oral_translation,001,805,
BRUSH,Arm,arm,0,15,15,3,0,1,1,1,7,1.873,,,2018_Sep_12_1446,59.7045176296,verb_norming_L2-eng_oral_translation,001,805,
BRUSH,,,0,15,15,3,,,,,,,return,2.46575866385,2018_Sep_12_1446,59.7045176296,verb_norming_L2-eng_oral_translation,001,805,
TWINE,Leg,leg,0,16,16,55,0,0,0,0,2,5.476,,,2018_Sep_12_1446,59.7045176296,verb_norming_L2-eng_oral_translation,001,805,
TWINE,Arm,arm,0,16,16,55,0,1,1,1,7,1.085,,,2018_Sep_12_1446,59.7045176296,verb_norming_L2-eng_oral_translation,001,805,
TWINE,,,0,16,16,55,,,,,,,return,2.197436483,2018_Sep_12_1446,59.7045176296,verb_norming_L2-eng_oral_translation,001,805,
SAUNTER,Leg,leg,0,17,17,90,0,0,0,0,6,13.927,,,2018_Sep_12_1446,59.7045176296,verb_norming_L2-eng_oral_translation,001,805,
SAUNTER,Arm,arm,0,17,17,90,0,1,1,1,2,8.245,,,2018_Sep_12_1446,59.7045176296,verb_norming_L2-eng_oral_translation,001,805,
SAUNTER,,,0,17,17,90,,,,,,,return,3.94145539112,2018_Sep_12_1446,59.7045176296,verb_norming_L2-eng_oral_translation,001,805,
PEEL,Leg,leg,0,18,18,28,0,0,0,0,1,5.359,,,2018_Sep_12_1446,59.7045176296,verb_norming_L2-eng_oral_translation,001,805,
PEEL,Arm,arm,0,18,18,28,0,1,1,1,7,1.655,,,2018_Sep_12_1446,59.7045176296,verb_norming_L2-eng_oral_translation,001,805,
PEEL,,,0,18,18,28,,,,,,,return,2.14711044277,2018_Sep_12_1446,59.7045176296,verb_norming_L2-eng_oral_translation,001,805,
TRUDGE,Leg,leg,0,19,19,122,0,0,0,0,4,9.868,,,2018_Sep_12_1446,59.7045176296,verb_norming_L2-eng_oral_translation,001,805,
TRUDGE,Arm,arm,0,19,19,122,0,1,1,1,4,0.933,,,2018_Sep_12_1446,59.7045176296,verb_norming_L2-eng_oral_translation,001,805,
TRUDGE,,,0,19,19,122,,,,,,,return,3.25389889118,2018_Sep_12_1446,59.7045176296,verb_norming_L2-eng_oral_translation,001,805,
GLIDE,Leg,leg,0,20,20,67,0,0,0,0,5,12.25,,,2018_Sep_12_1446,59.7045176296,verb_norming_L2-eng_oral_translation,001,805,
GLIDE,Arm,arm,0,20,20,67,0,1,1,1,2,3.331,,,2018_Sep_12_1446,59.7045176296,verb_norming_L2-eng_oral_translation,001,805,
GLIDE,,,0,20,20,67,,,,,,,return,2.66707941916,2018_Sep_12_1446,59.7045176296,verb_norming_L2-eng_oral_translation,001,805,
NIP,Leg,leg,0,21,21,26,0,0,0,0,1,8.63,,,2018_Sep_12_1446,59.7045176296,verb_norming_L2-eng_oral_translation,001,805,
NIP,Arm,arm,0,21,21,26,0,1,1,1,7,1.086,,,2018_Sep_12_1446,59.7045176296,verb_norming_L2-eng_oral_translation,001,805,
NIP,,,0,21,21,26,,,,,,,return,2.09676227669,2018_Sep_12_1446,59.7045176296,verb_norming_L2-eng_oral_translation,001,805,
TUG,Leg,leg,0,22,22,54,0,0,0,0,1,5.226,,,2018_Sep_12_1446,59.7045176296,verb_norming_L2-eng_oral_translation,001,805,
TUG,Arm,arm,0,22,22,54,0,1,1,1,7,6.084,,,2018_Sep_12_1446,59.7045176296,verb_norming_L2-eng_oral_translation,001,805,
TUG,,,0,22,22,54,,,,,,,return,2.4155278438,2018_Sep_12_1446,59.7045176296,verb_norming_L2-eng_oral_translation,001,805,
STUMBLE,Leg,leg,0,23,23,110,0,0,0,0,7,17.785,,,2018_Sep_12_1446,59.7045176296,verb_norming_L2-eng_oral_translation,001,805,
STUMBLE,Arm,arm,0,23,23,110,0,1,1,1,1,11.093,,,2018_Sep_12_1446,59.7045176296,verb_norming_L2-eng_oral_translation,001,805,
STUMBLE,,,0,23,23,110,,,,,,,return,3.50545481269,2018_Sep_12_1446,59.7045176296,verb_norming_L2-eng_oral_translation,001,805,
WHIP,Leg,leg,0,24,24,57,0,0,0,0,1,3.464,,,2018_Sep_12_1446,59.7045176296,verb_norming_L2-eng_oral_translation,001,805,
WHIP,Arm,arm,0,24,24,57,0,1,1,1,7,1.337,,,2018_Sep_12_1446,59.7045176296,verb_norming_L2-eng_oral_translation,001,805,
WHIP,,,0,24,24,57,,,,,,,return,2.53270793559,2018_Sep_12_1446,59.7045176296,verb_norming_L2-eng_oral_translation,001,805,
TRAMPLE,Leg,leg,0,25,25,117,0,0,0,0,7,5.961,,,2018_Sep_12_1446,59.7045176296,verb_norming_L2-eng_oral_translation,001,805,
TRAMPLE,Arm,arm,0,25,25,117,0,1,1,1,1,3.852,,,2018_Sep_12_1446,59.7045176296,verb_norming_L2-eng_oral_translation,001,805,
TRAMPLE,,,0,25,25,117,,,,,,,return,2.75079178941,2018_Sep_12_1446,59.7045176296,verb_norming_L2-eng_oral_translation,001,805,
INCH,Leg,leg,0,26,26,72,0,0,0,0,4,16.026,,,2018_Sep_12_1446,59.7045176296,verb_norming_L2-eng_oral_translation,001,805,
INCH,Arm,arm,0,26,26,72,0,1,1,1,4,0.515,,,2018_Sep_12_1446,59.7045176296,verb_norming_L2-eng_oral_translation,001,805,
INCH,,,0,26,26,72,,,,,,,return,2.44886202003,2018_Sep_12_1446,59.7045176296,verb_norming_L2-eng_oral_translation,001,805,
PULL,Leg,leg,0,27,27,33,0,0,0,0,2,9.334,,,2018_Sep_12_1446,59.7045176296,verb_norming_L2-eng_oral_translation,001,805,
PULL,Arm,arm,0,27,27,33,0,1,1,1,7,2.545,,,2018_Sep_12_1446,59.7045176296,verb_norming_L2-eng_oral_translation,001,805,
PULL,,,0,27,27,33,,,,,,,return,4.69615713464,2018_Sep_12_1446,59.7045176296,verb_norming_L2-eng_oral_translation,001,805,
SIGN,Leg,leg,0,28,28,44,0,0,0,0,1,6.114,,,2018_Sep_12_1446,59.7045176296,verb_norming_L2-eng_oral_translation,001,805,
SIGN,Arm,arm,0,28,28,44,0,1,1,1,7,0.801,,,2018_Sep_12_1446,59.7045176296,verb_norming_L2-eng_oral_translation,001,805,
SIGN,,,0,28,28,44,,,,,,,return,3.43834157258,2018_Sep_12_1446,59.7045176296,verb_norming_L2-eng_oral_translation,001,805,
GRATE,Leg,leg,0,29,29,20,0,0,0,0,4,9.149,,,2018_Sep_12_1446,59.7045176296,verb_norming_L2-eng_oral_translation,001,805,
GRATE,Arm,arm,0,29,29,20,0,1,1,1,4,0.481,,,2018_Sep_12_1446,59.7045176296,verb_norming_L2-eng_oral_translation,001,805,
GRATE,,,0,29,29,20,,,,,,,return,2.53285135853,2018_Sep_12_1446,59.7045176296,verb_norming_L2-eng_oral_translation,001,805,
STAGGER,Leg,leg,0,30,30,100,0,0,0,0,7,20.787,,,2018_Sep_12_1446,59.7045176296,verb_norming_L2-eng_oral_translation,001,805,
STAGGER,Arm,arm,0,30,30,100,0,1,1,1,2,3.416,,,2018_Sep_12_1446,59.7045176296,verb_norming_L2-eng_oral_translation,001,805,
STAGGER,,,0,30,30,100,,,,,,,return,4.76325970693,2018_Sep_12_1446,59.7045176296,verb_norming_L2-eng_oral_translation,001,805,
GRIP,Leg,leg,0,31,31,21,0,0,0,0,1,3.565,,,2018_Sep_12_1446,59.7045176296,verb_norming_L2-eng_oral_translation,001,805,
GRIP,Arm,arm,0,31,31,21,0,1,1,1,7,1.606,,,2018_Sep_12_1446,59.7045176296,verb_norming_L2-eng_oral_translation,001,805,
GRIP,,,0,31,31,21,,,,,,,return,3.80738300166,2018_Sep_12_1446,59.7045176296,verb_norming_L2-eng_oral_translation,001,805,
STEP,Leg,leg,0,32,32,103,0,0,0,0,7,4.571,,,2018_Sep_12_1446,59.7045176296,verb_norming_L2-eng_oral_translation,001,805,
STEP,Arm,arm,0,32,32,103,0,1,1,1,1,3.853,,,2018_Sep_12_1446,59.7045176296,verb_norming_L2-eng_oral_translation,001,805,
STEP,,,0,32,32,103,,,,,,,return,3.33790363875,2018_Sep_12_1446,59.7045176296,verb_norming_L2-eng_oral_translation,001,805,
FLEE,Leg,leg,0,33,33,66,0,0,0,0,7,3.447,,,2018_Sep_12_1446,59.7045176296,verb_norming_L2-eng_oral_translation,001,805,
FLEE,Arm,arm,0,33,33,66,0,1,1,1,1,0.985,,,2018_Sep_12_1446,59.7045176296,verb_norming_L2-eng_oral_translation,001,805,
FLEE,,,0,33,33,66,,,,,,,return,2.90167113398,2018_Sep_12_1446,59.7045176296,verb_norming_L2-eng_oral_translation,001,805,
SNATCH,Leg,leg,0,34,34,47,0,0,0,0,1,3.262,,,2018_Sep_12_1446,59.7045176296,verb_norming_L2-eng_oral_translation,001,805,
SNATCH,Arm,arm,0,34,34,47,0,1,1,1,7,0.867,,,2018_Sep_12_1446,59.7045176296,verb_norming_L2-eng_oral_translation,001,805,
SNATCH,,,0,34,34,47,,,,,,,return,2.09681719621,2018_Sep_12_1446,59.7045176296,verb_norming_L2-eng_oral_translation,001,805,
DIG,Leg,leg,0,35,35,13,0,0,0,0,1,4.001,,,2018_Sep_12_1446,59.7045176296,verb_norming_L2-eng_oral_translation,001,805,
DIG,Arm,arm,0,35,35,13,0,1,1,1,7,1.454,,,2018_Sep_12_1446,59.7045176296,verb_norming_L2-eng_oral_translation,001,805,
DIG,,,0,35,35,13,,,,,,,return,1.77787304186,2018_Sep_12_1446,59.7045176296,verb_norming_L2-eng_oral_translation,001,805,
PLUCK,Leg,leg,0,36,36,30,0,0,0,0,1,5.778,,,2018_Sep_12_1446,59.7045176296,verb_norming_L2-eng_oral_translation,001,805,
PLUCK,Arm,arm,0,36,36,30,0,1,1,1,7,1.219,,,2018_Sep_12_1446,59.7045176296,verb_norming_L2-eng_oral_translation,001,805,
PLUCK,,,0,36,36,30,,,,,,,return,2.3315203305,2018_Sep_12_1446,59.7045176296,verb_norming_L2-eng_oral_translation,001,805,
TODDLE,Leg,leg,0,37,37,113,0,0,0,0,4,6.48,,,2018_Sep_12_1446,59.7045176296,verb_norming_L2-eng_oral_translation,001,805,
TODDLE,Arm,arm,0,37,37,113,0,1,1,1,5,2.827,,,2018_Sep_12_1446,59.7045176296,verb_norming_L2-eng_oral_translation,001,805,
TODDLE,,,0,37,37,113,,,,,,,return,1.99607424172,2018_Sep_12_1446,59.7045176296,verb_norming_L2-eng_oral_translation,001,805,
WASH,Leg,leg,0,38,38,56,0,0,0,0,4,5.644,,,2018_Sep_12_1446,59.7045176296,verb_norming_L2-eng_oral_translation,001,805,
WASH,Arm,arm,0,38,38,56,0,1,1,1,7,1.673,,,2018_Sep_12_1446,59.7045176296,verb_norming_L2-eng_oral_translation,001,805,
WASH,,,0,38,38,56,,,,,,,return,2.88494912634,2018_Sep_12_1446,59.7045176296,verb_norming_L2-eng_oral_translation,001,805,
BASH,Leg,leg,0,39,39,0,0,0,0,0,3,6.265,,,2018_Sep_12_1446,59.7045176296,verb_norming_L2-eng_oral_translation,001,805,
BASH,Arm,arm,0,39,39,0,0,1,1,1,7,1.79,,,2018_Sep_12_1446,59.7045176296,verb_norming_L2-eng_oral_translation,001,805,
BASH,,,0,39,39,0,,,,,,,return,2.11366405687,2018_Sep_12_1446,59.7045176296,verb_norming_L2-eng_oral_translation,001,805,
STIR,Leg,leg,0,40,40,50,0,0,0,0,1,7.389,,,2018_Sep_12_1446,59.7045176296,verb_norming_L2-eng_oral_translation,001,805,
STIR,Arm,arm,0,40,40,50,0,1,1,1,7,1.438,,,2018_Sep_12_1446,59.7045176296,verb_norming_L2-eng_oral_translation,001,805,
STIR,,,0,40,40,50,,,,,,,return,2.83537892102,2018_Sep_12_1446,59.7045176296,verb_norming_L2-eng_oral_translation,001,805,
CLUTCH,Leg,leg,0,41,41,11,0,0,0,0,3,7.891,,,2018_Sep_12_1446,59.7045176296,verb_norming_L2-eng_oral_translation,001,805,
CLUTCH,Arm,arm,0,41,41,11,0,1,1,1,5,0.9,,,2018_Sep_12_1446,59.7045176296,verb_norming_L2-eng_oral_translation,001,805,
CLUTCH,,,0,41,41,11,,,,,,,return,2.85143162164,2018_Sep_12_1446,59.7045176296,verb_norming_L2-eng_oral_translation,001,805,
SKATE,Leg,leg,0,42,42,92,0,0,0,0,7,13.778,,,2018_Sep_12_1446,59.7045176296,verb_norming_L2-eng_oral_translation,001,805,
SKATE,Arm,arm,0,42,42,92,0,1,1,1,1,1.001,,,2018_Sep_12_1446,59.7045176296,verb_norming_L2-eng_oral_translation,001,805,
SKATE,,,0,42,42,92,,,,,,,return,3.52232616983,2018_Sep_12_1446,59.7045176296,verb_norming_L2-eng_oral_translation,001,805,
FILE,Leg,leg,0,43,43,15,0,0,0,0,1,5.124,,,2018_Sep_12_1446,59.7045176296,verb_norming_L2-eng_oral_translation,001,805,
FILE,Arm,arm,0,43,43,15,0,1,1,1,7,0.851,,,2018_Sep_12_1446,59.7045176296,verb_norming_L2-eng_oral_translation,001,805,
FILE,,,0,43,43,15,,,,,,,return,2.61670003983,2018_Sep_12_1446,59.7045176296,verb_norming_L2-eng_oral_translation,001,805,
CREEP,Leg,leg,0,44,44,61,0,0,0,0,6,7.841,,,2018_Sep_12_1446,59.7045176296,verb_norming_L2-eng_oral_translation,001,805,
CREEP,Arm,arm,0,44,44,61,0,1,1,1,2,5.847,,,2018_Sep_12_1446,59.7045176296,verb_norming_L2-eng_oral_translation,001,805,
CREEP,,,0,44,44,61,,,,,,,return,3.03470360841,2018_Sep_12_1446,59.7045176296,verb_norming_L2-eng_oral_translation,001,805,
CLICK,Leg,leg,0,45,45,10,0,0,0,0,1,2.793,,,2018_Sep_12_1446,59.7045176296,verb_norming_L2-eng_oral_translation,001,805,
CLICK,Arm,arm,0,45,45,10,0,1,1,1,7,1.303,,,2018_Sep_12_1446,59.7045176296,verb_norming_L2-eng_oral_translation,001,805,
CLICK,,,0,45,45,10,,,,,,,return,2.13024422199,2018_Sep_12_1446,59.7045176296,verb_norming_L2-eng_oral_translation,001,805,
TOTTER,Leg,leg,0,46,46,114,0,0,0,0,5,6.247,,,2018_Sep_12_1446,59.7045176296,verb_norming_L2-eng_oral_translation,001,805,
TOTTER,Arm,arm,0,46,46,114,0,1,1,1,3,1.907,,,2018_Sep_12_1446,59.7045176296,verb_norming_L2-eng_oral_translation,001,805,
TOTTER,,,0,46,46,114,,,,,,,return,2.23093818353,2018_Sep_12_1446,59.7045176296,verb_norming_L2-eng_oral_translation,001,805,
PUSH,Leg,leg,0,47,47,35,0,0,0,0,5,5.125,,,2018_Sep_12_1446,59.7045176296,verb_norming_L2-eng_oral_translation,001,805,
PUSH,Arm,arm,0,47,47,35,0,1,1,1,7,1.656,,,2018_Sep_12_1446,59.7045176296,verb_norming_L2-eng_oral_translation,001,805,
PUSH,,,0,47,47,35,,,,,,,return,2.583136703,2018_Sep_12_1446,59.7045176296,verb_norming_L2-eng_oral_translation,001,805,
SQUAT,Leg,leg,0,48,48,99,0,0,0,0,7,5.894,,,2018_Sep_12_1446,59.7045176296,verb_norming_L2-eng_oral_translation,001,805,
SQUAT,Arm,arm,0,48,48,99,0,1,1,1,1,2.409,,,2018_Sep_12_1446,59.7045176296,verb_norming_L2-eng_oral_translation,001,805,
SQUAT,,,0,48,48,99,,,,,,,return,3.58944652182,2018_Sep_12_1446,59.7045176296,verb_norming_L2-eng_oral_translation,001,805,
STAND,Leg,leg,0,49,49,102,0,0,0,0,7,4.972,,,2018_Sep_12_1446,59.7045176296,verb_norming_L2-eng_oral_translation,001,805,
STAND,Arm,arm,0,49,49,102,0,1,1,1,1,1.402,,,2018_Sep_12_1446,59.7045176296,verb_norming_L2-eng_oral_translation,001,805,
STAND,,,0,49,49,102,,,,,,,return,3.08607193431,2018_Sep_12_1446,59.7045176296,verb_norming_L2-eng_oral_translation,001,805,
WOBBLE,Leg,leg,0,50,50,127,0,0,0,0,7,8.461,,,2018_Sep_12_1446,59.7045176296,verb_norming_L2-eng_oral_translation,001,805,
WOBBLE,Arm,arm,0,50,50,127,0,1,1,1,1,1.503,,,2018_Sep_12_1446,59.7045176296,verb_norming_L2-eng_oral_translation,001,805,
WOBBLE,,,0,50,50,127,,,,,,,return,2.78416350056,2018_Sep_12_1446,59.7045176296,verb_norming_L2-eng_oral_translation,001,805,
GRAB,Leg,leg,0,51,51,18,0,0,0,0,1,3.615,,,2018_Sep_12_1446,59.7045176296,verb_norming_L2-eng_oral_translation,001,805,
GRAB,Arm,arm,0,51,51,18,0,1,1,1,7,0.834,,,2018_Sep_12_1446,59.7045176296,verb_norming_L2-eng_oral_translation,001,805,
GRAB,,,0,51,51,18,,,,,,,return,2.19735153553,2018_Sep_12_1446,59.7045176296,verb_norming_L2-eng_oral_translation,001,805,
SLITHER,Leg,leg,0,52,52,96,0,0,0,0,3,12.016,,,2018_Sep_12_1446,59.7045176296,verb_norming_L2-eng_oral_translation,001,805,
SLITHER,Arm,arm,0,52,52,96,0,1,1,1,5,1.252,,,2018_Sep_12_1446,59.7045176296,verb_norming_L2-eng_oral_translation,001,805,
SLITHER,,,0,52,52,96,,,,,,,return,2.59966431922,2018_Sep_12_1446,59.7045176296,verb_norming_L2-eng_oral_translation,001,805,
TOSS,Leg,leg,0,53,53,53,0,0,0,0,1,2.559,,,2018_Sep_12_1446,59.7045176296,verb_norming_L2-eng_oral_translation,001,805,
TOSS,Arm,arm,0,53,53,53,0,1,1,1,7,1.086,,,2018_Sep_12_1446,59.7045176296,verb_norming_L2-eng_oral_translation,001,805,
TOSS,,,0,53,53,53,,,,,,,return,2.21424106748,2018_Sep_12_1446,59.7045176296,verb_norming_L2-eng_oral_translation,001,805,
RAMBLE,Leg,leg,0,54,54,86,0,0,0,0,4,29.458,,,2018_Sep_12_1446,59.7045176296,verb_norming_L2-eng_oral_translation,001,805,
RAMBLE,Arm,arm,0,54,54,86,0,1,1,1,4,13.982,,,2018_Sep_12_1446,59.7045176296,verb_norming_L2-eng_oral_translation,001,805,
RAMBLE,,,0,54,54,86,,,,,,,return,2.21400677051,2018_Sep_12_1446,59.7045176296,verb_norming_L2-eng_oral_translation,001,805,
LIMP,Leg,leg,0,55,55,78,0,0,0,0,7,7.188,,,2018_Sep_12_1446,59.7045176296,verb_norming_L2-eng_oral_translation,001,805,
LIMP,Arm,arm,0,55,55,78,0,1,1,1,1,4.169,,,2018_Sep_12_1446,59.7045176296,verb_norming_L2-eng_oral_translation,001,805,
LIMP,,,0,55,55,78,,,,,,,return,2.46577999949,2018_Sep_12_1446,59.7045176296,verb_norming_L2-eng_oral_translation,001,805,
JUMP,Leg,leg,0,56,56,74,0,0,0,0,7,3.344,,,2018_Sep_12_1446,59.7045176296,verb_norming_L2-eng_oral_translation,001,805,
JUMP,Arm,arm,0,56,56,74,0,1,1,1,1,3.231,,,2018_Sep_12_1446,59.7045176296,verb_norming_L2-eng_oral_translation,001,805,
JUMP,,,0,56,56,74,,,,,,,return,2.31491290316,2018_Sep_12_1446,59.7045176296,verb_norming_L2-eng_oral_translation,001,805,
TRAMP,Leg,leg,0,57,57,116,0,0,0,0,4,32.695,,,2018_Sep_12_1446,59.7045176296,verb_norming_L2-eng_oral_translation,001,805,
TRAMP,Arm,arm,0,57,57,116,0,1,1,1,4,0.716,,,2018_Sep_12_1446,59.7045176296,verb_norming_L2-eng_oral_translation,001,805,
TRAMP,,,0,57,57,116,,,,,,,return,2.75077005867,2018_Sep_12_1446,59.7045176296,verb_norming_L2-eng_oral_translation,001,805,
TREAD,Leg,leg,0,58,58,118,0,0,0,0,1,8.024,,,2018_Sep_12_1446,59.7045176296,verb_norming_L2-eng_oral_translation,001,805,
TREAD,Arm,arm,0,58,58,118,0,1,1,1,7,0.916,,,2018_Sep_12_1446,59.7045176296,verb_norming_L2-eng_oral_translation,001,805,
TREAD,,,0,58,58,118,,,,,,,return,2.73395836231,2018_Sep_12_1446,59.7045176296,verb_norming_L2-eng_oral_translation,001,805,
SPRINT,Leg,leg,0,59,59,98,0,0,0,0,7,5.392,,,2018_Sep_12_1446,59.7045176296,verb_norming_L2-eng_oral_translation,001,805,
SPRINT,Arm,arm,0,59,59,98,0,1,1,1,1,1.001,,,2018_Sep_12_1446,59.7045176296,verb_norming_L2-eng_oral_translation,001,805,
SPRINT,,,0,59,59,98,,,,,,,return,1.99598929425,2018_Sep_12_1446,59.7045176296,verb_norming_L2-eng_oral_translation,001,805,
CUT,Leg,leg,0,60,60,12,0,0,0,0,1,3.431,,,2018_Sep_12_1446,59.7045176296,verb_norming_L2-eng_oral_translation,001,805,
CUT,Arm,arm,0,60,60,12,0,1,1,1,7,0.616,,,2018_Sep_12_1446,59.7045176296,verb_norming_L2-eng_oral_translation,001,805,
CUT,,,0,60,60,12,,,,,,,return,2.16406121591,2018_Sep_12_1446,59.7045176296,verb_norming_L2-eng_oral_translation,001,805,
SCRATCH,Leg,leg,0,61,61,40,0,0,0,0,1,5.508,,,2018_Sep_12_1446,59.7045176296,verb_norming_L2-eng_oral_translation,001,805,
SCRATCH,Arm,arm,0,61,61,40,0,1,1,1,7,0.698,,,2018_Sep_12_1446,59.7045176296,verb_norming_L2-eng_oral_translation,001,805,
SCRATCH,,,0,61,61,40,,,,,,,return,2.56637716043,2018_Sep_12_1446,59.7045176296,verb_norming_L2-eng_oral_translation,001,805,
CLEAN,Leg,leg,0,62,62,9,0,0,0,0,3,4.051,,,2018_Sep_12_1446,59.7045176296,verb_norming_L2-eng_oral_translation,001,805,
CLEAN,Arm,arm,0,62,62,9,0,1,1,1,7,1.688,,,2018_Sep_12_1446,59.7045176296,verb_norming_L2-eng_oral_translation,001,805,
CLEAN,,,0,62,62,9,,,,,,,return,5.4173721916,2018_Sep_12_1446,59.7045176296,verb_norming_L2-eng_oral_translation,001,805,
CYCLE,Leg,leg,0,63,63,63,0,0,0,0,6,16.293,,,2018_Sep_12_1446,59.7045176296,verb_norming_L2-eng_oral_translation,001,805,
CYCLE,Arm,arm,0,63,63,63,0,1,1,1,3,2.964,,,2018_Sep_12_1446,59.7045176296,verb_norming_L2-eng_oral_translation,001,805,
CYCLE,,,0,63,63,63,,,,,,,return,2.31469124954,2018_Sep_12_1446,59.7045176296,verb_norming_L2-eng_oral_translation,001,805,
LEAP,Leg,leg,0,64,64,77,0,0,0,0,7,7.842,,,2018_Sep_12_1446,59.7045176296,verb_norming_L2-eng_oral_translation,001,805,
LEAP,Arm,arm,0,64,64,77,0,1,1,1,1,0.715,,,2018_Sep_12_1446,59.7045176296,verb_norming_L2-eng_oral_translation,001,805,
LEAP,,,0,64,64,77,,,,,,,return,2.48256759448,2018_Sep_12_1446,59.7045176296,verb_norming_L2-eng_oral_translation,001,805,
CATCH,Leg,leg,0,65,65,5,0,0,0,0,1,2.592,,,2018_Sep_12_1446,59.7045176296,verb_norming_L2-eng_oral_translation,001,805,
CATCH,Arm,arm,0,65,65,5,0,1,1,1,7,0.666,,,2018_Sep_12_1446,59.7045176296,verb_norming_L2-eng_oral_translation,001,805,
CATCH,,,0,65,65,5,,,,,,,return,2.01243275321,2018_Sep_12_1446,59.7045176296,verb_norming_L2-eng_oral_translation,001,805,
STAB,Leg,leg,0,66,66,49,0,0,0,0,1,4.218,,,2018_Sep_12_1446,59.7045176296,verb_norming_L2-eng_oral_translation,001,805,
STAB,Arm,arm,0,66,66,49,0,1,1,1,7,1.589,,,2018_Sep_12_1446,59.7045176296,verb_norming_L2-eng_oral_translation,001,805,
STAB,,,0,66,66,49,,,,,,,return,3.20370125991,2018_Sep_12_1446,59.7045176296,verb_norming_L2-eng_oral_translation,001,805,
SCRUB,Leg,leg,0,67,67,41,0,0,0,0,1,4.906,,,2018_Sep_12_1446,59.7045176296,verb_norming_L2-eng_oral_translation,001,805,
SCRUB,Arm,arm,0,67,67,41,0,1,1,1,7,0.7,,,2018_Sep_12_1446,59.7045176296,verb_norming_L2-eng_oral_translation,001,805,
SCRUB,,,0,67,67,41,,,,,,,return,2.61648470788,2018_Sep_12_1446,59.7045176296,verb_norming_L2-eng_oral_translation,001,805,
BIND,Leg,leg,0,68,68,1,0,0,0,0,1,1.937,,,2018_Sep_12_1446,59.7045176296,verb_norming_L2-eng_oral_translation,001,805,
BIND,Arm,arm,0,68,68,1,0,1,1,1,7,0.624,,,2018_Sep_12_1446,59.7045176296,verb_norming_L2-eng_oral_translation,001,805,
BIND,,,0,68,68,1,,,,,,,return,2.14696227858,2018_Sep_12_1446,59.7045176296,verb_norming_L2-eng_oral_translation,001,805,
MOUNT,Leg,leg,0,69,69,81,0,0,0,0,7,6.197,,,2018_Sep_12_1446,59.7045176296,verb_norming_L2-eng_oral_translation,001,805,
MOUNT,Arm,arm,0,69,69,81,0,1,1,1,1,0.616,,,2018_Sep_12_1446,59.7045176296,verb_norming_L2-eng_oral_translation,001,805,
MOUNT,,,0,69,69,81,,,,,,,return,2.59989545535,2018_Sep_12_1446,59.7045176296,verb_norming_L2-eng_oral_translation,001,805,
POKE,Leg,leg,0,70,70,31,0,0,0,0,3,4.353,,,2018_Sep_12_1446,59.7045176296,verb_norming_L2-eng_oral_translation,001,805,
POKE,Arm,arm,0,70,70,31,0,1,1,1,7,1.119,,,2018_Sep_12_1446,59.7045176296,verb_norming_L2-eng_oral_translation,001,805,
POKE,,,0,70,70,31,,,,,,,return,3.25385147864,2018_Sep_12_1446,59.7045176296,verb_norming_L2-eng_oral_translation,001,805,
SWITCH,Leg,leg,0,71,71,51,0,0,0,0,4,13.006,,,2018_Sep_12_1446,59.7045176296,verb_norming_L2-eng_oral_translation,001,805,
SWITCH,Arm,arm,0,71,71,51,0,1,1,1,4,0.699,,,2018_Sep_12_1446,59.7045176296,verb_norming_L2-eng_oral_translation,001,805,
SWITCH,,,0,71,71,51,,,,,,,return,1.99598099705,2018_Sep_12_1446,59.7045176296,verb_norming_L2-eng_oral_translation,001,805,
STRAY,Leg,leg,0,72,72,106,0,0,0,0,7,5.392,,,2018_Sep_12_1446,59.7045176296,verb_norming_L2-eng_oral_translation,001,805,
STRAY,Arm,arm,0,72,72,106,0,1,1,1,1,1.672,,,2018_Sep_12_1446,59.7045176296,verb_norming_L2-eng_oral_translation,001,805,
STRAY,,,0,72,72,106,,,,,,,return,2.58305531147,2018_Sep_12_1446,59.7045176296,verb_norming_L2-eng_oral_translation,001,805,
KICK,Leg,leg,0,73,73,75,0,0,0,0,7,1.955,,,2018_Sep_12_1446,59.7045176296,verb_norming_L2-eng_oral_translation,001,805,
KICK,Arm,arm,0,73,73,75,0,1,1,1,1,2.694,,,2018_Sep_12_1446,59.7045176296,verb_norming_L2-eng_oral_translation,001,805,
KICK,,,0,73,73,75,,,,,,,return,2.39856205669,2018_Sep_12_1446,59.7045176296,verb_norming_L2-eng_oral_translation,001,805,
THROW,Leg,leg,0,74,74,52,0,0,0,0,1,3.414,,,2018_Sep_12_1446,59.7045176296,verb_norming_L2-eng_oral_translation,001,805,
THROW,Arm,arm,0,74,74,52,0,1,1,1,7,1.739,,,2018_Sep_12_1446,59.7045176296,verb_norming_L2-eng_oral_translation,001,805,
THROW,,,0,74,74,52,,,,,,,return,2.02984184757,2018_Sep_12_1446,59.7045176296,verb_norming_L2-eng_oral_translation,001,805,
WADE,Leg,leg,0,75,75,124,0,0,0,0,6,5.995,,,2018_Sep_12_1446,59.7045176296,verb_norming_L2-eng_oral_translation,001,805,
WADE,Arm,arm,0,75,75,124,0,1,1,1,1,0.85,,,2018_Sep_12_1446,59.7045176296,verb_norming_L2-eng_oral_translation,001,805,
WADE,,,0,75,75,124,,,,,,,return,1.97937040889,2018_Sep_12_1446,59.7045176296,verb_norming_L2-eng_oral_translation,001,805,
GRASP,Leg,leg,0,76,76,19,0,0,0,0,1,3.498,,,2018_Sep_12_1446,59.7045176296,verb_norming_L2-eng_oral_translation,001,805,
GRASP,Arm,arm,0,76,76,19,0,1,1,1,7,3.349,,,2018_Sep_12_1446,59.7045176296,verb_norming_L2-eng_oral_translation,001,805,
GRASP,,,0,76,76,19,,,,,,,return,2.26449322317,2018_Sep_12_1446,59.7045176296,verb_norming_L2-eng_oral_translation,001,805,
SKIP,Leg,leg,0,77,77,93,0,0,0,0,5,14.097,,,2018_Sep_12_1446,59.7045176296,verb_norming_L2-eng_oral_translation,001,805,
SKIP,Arm,arm,0,77,77,93,0,1,1,1,1,3.601,,,2018_Sep_12_1446,59.7045176296,verb_norming_L2-eng_oral_translation,001,805,
SKIP,,,0,77,77,93,,,,,,,return,4.20981313138,2018_Sep_12_1446,59.7045176296,verb_norming_L2-eng_oral_translation,001,805,
CLAW,Leg,leg,0,78,78,8,0,0,0,0,1,14.499,,,2018_Sep_12_1446,59.7045176296,verb_norming_L2-eng_oral_translation,001,805,
CLAW,Arm,arm,0,78,78,8,0,1,1,1,6,9.304,,,2018_Sep_12_1446,59.7045176296,verb_norming_L2-eng_oral_translation,001,805,
CLAW,,,0,78,78,8,,,,,,,return,3.18692749358,2018_Sep_12_1446,59.7045176296,verb_norming_L2-eng_oral_translation,001,805,
STRIDE,Leg,leg,0,79,79,107,0,0,0,0,6,16.727,,,2018_Sep_12_1446,59.7045176296,verb_norming_L2-eng_oral_translation,001,805,
STRIDE,Arm,arm,0,79,79,107,0,1,1,1,1,2.139,,,2018_Sep_12_1446,59.7045176296,verb_norming_L2-eng_oral_translation,001,805,
STRIDE,,,0,79,79,107,,,,,,,return,2.90186315477,2018_Sep_12_1446,59.7045176296,verb_norming_L2-eng_oral_translation,001,805,
WIPE,Leg,leg,0,80,80,58,0,0,0,0,1,3.264,,,2018_Sep_12_1446,59.7045176296,verb_norming_L2-eng_oral_translation,001,805,
WIPE,Arm,arm,0,80,80,58,0,1,1,1,7,1.723,,,2018_Sep_12_1446,59.7045176296,verb_norming_L2-eng_oral_translation,001,805,
WIPE,,,0,80,80,58,,,,,,,return,3.15327802397,2018_Sep_12_1446,59.7045176296,verb_norming_L2-eng_oral_translation,001,805,
CROUCH,Leg,leg,0,81,81,62,0,0,0,0,4,16.125,,,2018_Sep_12_1446,59.7045176296,verb_norming_L2-eng_oral_translation,001,805,
CROUCH,Arm,arm,0,81,81,62,0,1,1,1,2,2.41,,,2018_Sep_12_1446,59.7045176296,verb_norming_L2-eng_oral_translation,001,805,
CROUCH,,,0,81,81,62,,,,,,,return,3.43842731026,2018_Sep_12_1446,59.7045176296,verb_norming_L2-eng_oral_translation,001,805,
DASH,Leg,leg,0,82,82,65,0,0,0,0,1,4.671,,,2018_Sep_12_1446,59.7045176296,verb_norming_L2-eng_oral_translation,001,805,
DASH,Arm,arm,0,82,82,65,0,1,1,1,7,0.865,,,2018_Sep_12_1446,59.7045176296,verb_norming_L2-eng_oral_translation,001,805,
DASH,,,0,82,82,65,,,,,,,return,1.96256621951,2018_Sep_12_1446,59.7045176296,verb_norming_L2-eng_oral_translation,001,805,
PUNCH,Leg,leg,0,83,83,34,0,0,0,0,2,2.575,,,2018_Sep_12_1446,59.7045176296,verb_norming_L2-eng_oral_translation,001,805,
PUNCH,Arm,arm,0,83,83,34,0,1,1,1,7,0.934,,,2018_Sep_12_1446,59.7045176296,verb_norming_L2-eng_oral_translation,001,805,
PUNCH,,,0,83,83,34,,,,,,,return,3.03591420859,2018_Sep_12_1446,59.7045176296,verb_norming_L2-eng_oral_translation,001,805,
LUMBER,Leg,leg,0,84,84,79,0,0,0,0,1,4.47,,,2018_Sep_12_1446,59.7045176296,verb_norming_L2-eng_oral_translation,001,805,
LUMBER,Arm,arm,0,84,84,79,0,1,1,1,6,10.006,,,2018_Sep_12_1446,59.7045176296,verb_norming_L2-eng_oral_translation,001,805,
LUMBER,,,0,84,84,79,,,,,,,return,3.57263996182,2018_Sep_12_1446,59.7045176296,verb_norming_L2-eng_oral_translation,001,805,
PAT,Leg,leg,0,85,85,27,0,0,0,0,1,6.349,,,2018_Sep_12_1446,59.7045176296,verb_norming_L2-eng_oral_translation,001,805,
PAT,Arm,arm,0,85,85,27,0,1,1,1,7,0.482,,,2018_Sep_12_1446,59.7045176296,verb_norming_L2-eng_oral_translation,001,805,
PAT,,,0,85,85,27,,,,,,,return,1.928758313,2018_Sep_12_1446,59.7045176296,verb_norming_L2-eng_oral_translation,001,805,
FOLD,Leg,leg,0,86,86,16,0,0,0,0,1,2.071,,,2018_Sep_12_1446,59.7045176296,verb_norming_L2-eng_oral_translation,001,805,
FOLD,Arm,arm,0,86,86,16,0,1,1,1,7,0.983,,,2018_Sep_12_1446,59.7045176296,verb_norming_L2-eng_oral_translation,001,805,
FOLD,,,0,86,86,16,,,,,,,return,2.31412111375,2018_Sep_12_1446,59.7045176296,verb_norming_L2-eng_oral_translation,001,805,
CLAP,Leg,leg,0,87,87,7,0,0,0,0,1,6.013,,,2018_Sep_12_1446,59.7045176296,verb_norming_L2-eng_oral_translation,001,805,
CLAP,Arm,arm,0,87,87,7,0,1,1,1,7,1.908,,,2018_Sep_12_1446,59.7045176296,verb_norming_L2-eng_oral_translation,001,805,
CLAP,,,0,87,87,7,,,,,,,return,2.51613172152,2018_Sep_12_1446,59.7045176296,verb_norming_L2-eng_oral_translation,001,805,
GROVEL,Leg,leg,0,88,88,68,0,0,0,0,4,5.543,,,2018_Sep_12_1446,59.7045176296,verb_norming_L2-eng_oral_translation,001,805,
GROVEL,Arm,arm,0,88,88,68,0,1,1,1,4,0.648,,,2018_Sep_12_1446,59.7045176296,verb_norming_L2-eng_oral_translation,001,805,
GROVEL,,,0,88,88,68,,,,,,,return,2.04654093915,2018_Sep_12_1446,59.7045176296,verb_norming_L2-eng_oral_translation,001,805,
JOG,Leg,leg,0,89,89,73,0,0,0,0,7,2.172,,,2018_Sep_12_1446,59.7045176296,verb_norming_L2-eng_oral_translation,001,805,
JOG,Arm,arm,0,89,89,73,0,1,1,1,1,0.582,,,2018_Sep_12_1446,59.7045176296,verb_norming_L2-eng_oral_translation,001,805,
JOG,,,0,89,89,73,,,,,,,return,2.01294204291,2018_Sep_12_1446,59.7045176296,verb_norming_L2-eng_oral_translation,001,805,
SLIP,Leg,leg,0,90,90,95,0,0,0,0,7,2.894,,,2018_Sep_12_1446,59.7045176296,verb_norming_L2-eng_oral_translation,001,805,
SLIP,Arm,arm,0,90,90,95,0,1,1,1,3,2.444,,,2018_Sep_12_1446,59.7045176296,verb_norming_L2-eng_oral_translation,001,805,
SLIP,,,0,90,90,95,,,,,,,return,2.29805656,2018_Sep_12_1446,59.7045176296,verb_norming_L2-eng_oral_translation,001,805,
WALK,Leg,leg,0,91,91,125,0,0,0,0,7,2.003,,,2018_Sep_12_1446,59.7045176296,verb_norming_L2-eng_oral_translation,001,805,
WALK,Arm,arm,0,91,91,125,0,1,1,1,1,0.717,,,2018_Sep_12_1446,59.7045176296,verb_norming_L2-eng_oral_translation,001,805,
WALK,,,0,91,91,125,,,,,,,return,3.0514212699,2018_Sep_12_1446,59.7045176296,verb_norming_L2-eng_oral_translation,001,805,
TRAIPSE,Leg,leg,0,92,92,115,0,0,0,0,4,5.995,,,2018_Sep_12_1446,59.7045176296,verb_norming_L2-eng_oral_translation,001,805,
TRAIPSE,Arm,arm,0,92,92,115,0,1,1,1,4,0.699,,,2018_Sep_12_1446,59.7045176296,verb_norming_L2-eng_oral_translation,001,805,
TRAIPSE,,,0,92,92,115,,,,,,,return,1.45945161076,2018_Sep_12_1446,59.7045176296,verb_norming_L2-eng_oral_translation,001,805,
PLOD,Leg,leg,0,93,93,84,0,0,0,0,4,6.582,,,2018_Sep_12_1446,59.7045176296,verb_norming_L2-eng_oral_translation,001,805,
PLOD,Arm,arm,0,93,93,84,0,1,1,1,4,0.497,,,2018_Sep_12_1446,59.7045176296,verb_norming_L2-eng_oral_translation,001,805,
PLOD,,,0,93,93,84,,,,,,,return,1.66187075658,2018_Sep_12_1446,59.7045176296,verb_norming_L2-eng_oral_translation,001,805,
STAMP,Leg,leg,0,94,94,101,0,0,0,0,1,19.295,,,2018_Sep_12_1446,59.7045176296,verb_norming_L2-eng_oral_translation,001,805,
STAMP,Arm,arm,0,94,94,101,0,1,1,1,7,10.292,,,2018_Sep_12_1446,59.7045176296,verb_norming_L2-eng_oral_translation,001,805,
STAMP,,,0,94,94,101,,,,,,,return,2.76727515393,2018_Sep_12_1446,59.7045176296,verb_norming_L2-eng_oral_translation,001,805,
PEDAL,Leg,leg,0,95,95,83,0,0,0,0,7,9.332,,,2018_Sep_12_1446,59.7045176296,verb_norming_L2-eng_oral_translation,001,805,
PEDAL,Arm,arm,0,95,95,83,0,1,1,1,1,0.614,,,2018_Sep_12_1446,59.7045176296,verb_norming_L2-eng_oral_translation,001,805,
PEDAL,,,0,95,95,83,,,,,,,return,1.42591790677,2018_Sep_12_1446,59.7045176296,verb_norming_L2-eng_oral_translation,001,805,
TIPTOE,Leg,leg,0,96,96,112,0,0,0,0,7,7.354,,,2018_Sep_12_1446,59.7045176296,verb_norming_L2-eng_oral_translation,001,805,
TIPTOE,Arm,arm,0,96,96,112,0,1,1,1,1,0.8,,,2018_Sep_12_1446,59.7045176296,verb_norming_L2-eng_oral_translation,001,805,
TIPTOE,,,0,96,96,112,,,,,,,return,2.41549346971,2018_Sep_12_1446,59.7045176296,verb_norming_L2-eng_oral_translation,001,805,
SKIM,Leg,leg,0,97,97,45,0,0,0,0,1,25.92,,,2018_Sep_12_1446,59.7045176296,verb_norming_L2-eng_oral_translation,001,805,
SKIM,Arm,arm,0,97,97,45,0,1,1,1,2,1.103,,,2018_Sep_12_1446,59.7045176296,verb_norming_L2-eng_oral_translation,001,805,
SKIM,,,0,97,97,45,,,,,,,return,4.46141488501,2018_Sep_12_1446,59.7045176296,verb_norming_L2-eng_oral_translation,001,805,
KNOCK,Leg,leg,0,98,98,24,0,0,0,0,2,3.699,,,2018_Sep_12_1446,59.7045176296,verb_norming_L2-eng_oral_translation,001,805,
KNOCK,Arm,arm,0,98,98,24,0,1,1,1,7,4.591,,,2018_Sep_12_1446,59.7045176296,verb_norming_L2-eng_oral_translation,001,805,
KNOCK,,,0,98,98,24,,,,,,,return,1.44275291429,2018_Sep_12_1446,59.7045176296,verb_norming_L2-eng_oral_translation,001,805,
RUSH,Leg,leg,0,99,99,89,0,0,0,0,5,4.118,,,2018_Sep_12_1446,59.7045176296,verb_norming_L2-eng_oral_translation,001,805,
RUSH,Arm,arm,0,99,99,89,0,1,1,1,1,1.153,,,2018_Sep_12_1446,59.7045176296,verb_norming_L2-eng_oral_translation,001,805,
RUSH,,,0,99,99,89,,,,,,,return,1.54336271857,2018_Sep_12_1446,59.7045176296,verb_norming_L2-eng_oral_translation,001,805,
WANDER,Leg,leg,0,100,100,126,0,0,0,0,7,10.118,,,2018_Sep_12_1446,59.7045176296,verb_norming_L2-eng_oral_translation,001,805,
WANDER,Arm,arm,0,100,100,126,0,1,1,1,1,0.748,,,2018_Sep_12_1446,59.7045176296,verb_norming_L2-eng_oral_translation,001,805,
WANDER,,,0,100,100,126,,,,,,,return,1.72776905036,2018_Sep_12_1446,59.7045176296,verb_norming_L2-eng_oral_translation,001,805,
DANCE,Leg,leg,0,101,101,64,0,0,0,0,6,5.593,,,2018_Sep_12_1446,59.7045176296,verb_norming_L2-eng_oral_translation,001,805,
DANCE,Arm,arm,0,101,101,64,0,1,1,1,5,1.369,,,2018_Sep_12_1446,59.7045176296,verb_norming_L2-eng_oral_translation,001,805,
DANCE,,,0,101,101,64,,,,,,,return,1.79484633596,2018_Sep_12_1446,59.7045176296,verb_norming_L2-eng_oral_translation,001,805,
DUNK,Leg,leg,0,102,102,14,0,0,0,0,5,5.693,,,2018_Sep_12_1446,59.7045176296,verb_norming_L2-eng_oral_translation,001,805,
DUNK,Arm,arm,0,102,102,14,0,1,1,1,7,1.051,,,2018_Sep_12_1446,59.7045176296,verb_norming_L2-eng_oral_translation,001,805,
DUNK,,,0,102,102,14,,,,,,,return,3.11976526052,2018_Sep_12_1446,59.7045176296,verb_norming_L2-eng_oral_translation,001,805,
GESTURE,Leg,leg,0,103,103,17,0,0,0,0,4,9.148,,,2018_Sep_12_1446,59.7045176296,verb_norming_L2-eng_oral_translation,001,805,
GESTURE,Arm,arm,0,103,103,17,0,1,1,1,7,1.151,,,2018_Sep_12_1446,59.7045176296,verb_norming_L2-eng_oral_translation,001,805,
GESTURE,,,0,103,103,17,,,,,,,return,2.49912879458,2018_Sep_12_1446,59.7045176296,verb_norming_L2-eng_oral_translation,001,805,
HIKE,Leg,leg,0,104,104,69,0,0,0,0,7,8.311,,,2018_Sep_12_1446,59.7045176296,verb_norming_L2-eng_oral_translation,001,805,
HIKE,Arm,arm,0,104,104,69,0,1,1,1,1,1.488,,,2018_Sep_12_1446,59.7045176296,verb_norming_L2-eng_oral_translation,001,805,
HIKE,,,0,104,104,69,,,,,,,return,2.14708989734,2018_Sep_12_1446,59.7045176296,verb_norming_L2-eng_oral_translation,001,805,
STRADDLE,Leg,leg,0,105,105,105,0,0,0,0,4,7.871,,,2018_Sep_12_1446,59.7045176296,verb_norming_L2-eng_oral_translation,001,805,
STRADDLE,Arm,arm,0,105,105,105,0,1,1,1,4,0.708,,,2018_Sep_12_1446,59.7045176296,verb_norming_L2-eng_oral_translation,001,805,
STRADDLE,,,0,105,105,105,,,,,,,return,1.86170117773,2018_Sep_12_1446,59.7045176296,verb_norming_L2-eng_oral_translation,001,805,
WRAP,Leg,leg,0,106,106,59,0,0,0,0,1,4.101,,,2018_Sep_12_1446,59.7045176296,verb_norming_L2-eng_oral_translation,001,805,
WRAP,Arm,arm,0,106,106,59,0,1,1,1,6,0.917,,,2018_Sep_12_1446,59.7045176296,verb_norming_L2-eng_oral_translation,001,805,
WRAP,,,0,106,106,59,,,,,,,return,1.7782456254,2018_Sep_12_1446,59.7045176296,verb_norming_L2-eng_oral_translation,001,805,
HACK,Leg,leg,0,107,107,22,0,0,0,0,1,20.42,,,2018_Sep_12_1446,59.7045176296,verb_norming_L2-eng_oral_translation,001,805,
HACK,Arm,arm,0,107,107,22,0,1,1,1,3,2.662,,,2018_Sep_12_1446,59.7045176296,verb_norming_L2-eng_oral_translation,001,805,
HACK,,,0,107,107,22,,,,,,,return,2.46554609763,2018_Sep_12_1446,59.7045176296,verb_norming_L2-eng_oral_translation,001,805,
ROAM,Leg,leg,0,108,108,87,0,0,0,0,4,16.63,,,2018_Sep_12_1446,59.7045176296,verb_norming_L2-eng_oral_translation,001,805,
ROAM,Arm,arm,0,108,108,87,0,1,1,1,1,2.945,,,2018_Sep_12_1446,59.7045176296,verb_norming_L2-eng_oral_translation,001,805,
ROAM,,,0,108,108,87,,,,,,,return,2.2811449022,2018_Sep_12_1446,59.7045176296,verb_norming_L2-eng_oral_translation,001,805,
STROLL,Leg,leg,0,109,109,108,0,0,0,0,7,13.089,,,2018_Sep_12_1446,59.7045176296,verb_norming_L2-eng_oral_translation,001,805,
STROLL,Arm,arm,0,109,109,108,0,1,1,1,1,5.813,,,2018_Sep_12_1446,59.7045176296,verb_norming_L2-eng_oral_translation,001,805,
STROLL,,,0,109,109,108,,,,,,,return,2.65016657606,2018_Sep_12_1446,59.7045176296,verb_norming_L2-eng_oral_translation,001,805,
MARCH,Leg,leg,0,110,110,80,0,0,0,0,7,2.172,,,2018_Sep_12_1446,59.7045176296,verb_norming_L2-eng_oral_translation,001,805,
MARCH,Arm,arm,0,110,110,80,0,1,1,1,1,0.65,,,2018_Sep_12_1446,59.7045176296,verb_norming_L2-eng_oral_translation,001,805,
MARCH,,,0,110,110,80,,,,,,,return,2.70056729104,2018_Sep_12_1446,59.7045176296,verb_norming_L2-eng_oral_translation,001,805,
SLIDE,Leg,leg,0,111,111,94,0,0,0,0,2,19.143,,,2018_Sep_12_1446,59.7045176296,verb_norming_L2-eng_oral_translation,001,805,
SLIDE,Arm,arm,0,111,111,94,0,1,1,1,6,5.863,,,2018_Sep_12_1446,59.7045176296,verb_norming_L2-eng_oral_translation,001,805,
SLIDE,,,0,111,111,94,,,,,,,return,5.08206992085,2018_Sep_12_1446,59.7045176296,verb_norming_L2-eng_oral_translation,001,805,
LIFT,Leg,leg,0,112,112,25,0,0,0,0,4,4.068,,,2018_Sep_12_1446,59.7045176296,verb_norming_L2-eng_oral_translation,001,805,
LIFT,Arm,arm,0,112,112,25,0,1,1,1,7,1.136,,,2018_Sep_12_1446,59.7045176296,verb_norming_L2-eng_oral_translation,001,805,
LIFT,,,0,112,112,25,,,,,,,return,1.862023583,2018_Sep_12_1446,59.7045176296,verb_norming_L2-eng_oral_translation,001,805,
RUN,Leg,leg,0,113,113,88,0,0,0,0,7,1.653,,,2018_Sep_12_1446,59.7045176296,verb_norming_L2-eng_oral_translation,001,805,
RUN,Arm,arm,0,113,113,88,0,1,1,1,1,1.086,,,2018_Sep_12_1446,59.7045176296,verb_norming_L2-eng_oral_translation,001,805,
RUN,,,0,113,113,88,,,,,,,return,1.49303746855,2018_Sep_12_1446,59.7045176296,verb_norming_L2-eng_oral_translation,001,805,
BRAID,Leg,leg,0,114,114,2,0,0,0,0,1,3.009,,,2018_Sep_12_1446,59.7045176296,verb_norming_L2-eng_oral_translation,001,805,
BRAID,Arm,arm,0,114,114,2,0,1,1,1,7,0.748,,,2018_Sep_12_1446,59.7045176296,verb_norming_L2-eng_oral_translation,001,805,
BRAID,,,0,114,114,2,,,,,,,return,2.08005014666,2018_Sep_12_1446,59.7045176296,verb_norming_L2-eng_oral_translation,001,805,
TREK,Leg,leg,0,115,115,119,0,0,0,0,5,10.877,,,2018_Sep_12_1446,59.7045176296,verb_norming_L2-eng_oral_translation,001,805,
TREK,Arm,arm,0,115,115,119,0,1,1,1,1,0.784,,,2018_Sep_12_1446,59.7045176296,verb_norming_L2-eng_oral_translation,001,805,
TREK,,,0,115,115,119,,,,,,,return,1.89553990239,2018_Sep_12_1446,59.7045176296,verb_norming_L2-eng_oral_translation,001,805,
SEIZE,Leg,leg,0,116,116,42,0,0,0,0,5,9.366,,,2018_Sep_12_1446,59.7045176296,verb_norming_L2-eng_oral_translation,001,805,
SEIZE,Arm,arm,0,116,116,42,0,1,1,1,1,0.732,,,2018_Sep_12_1446,59.7045176296,verb_norming_L2-eng_oral_translation,001,805,
SEIZE,,,0,116,116,42,,,,,,,return,2.36505561491,2018_Sep_12_1446,59.7045176296,verb_norming_L2-eng_oral_translation,001,805,
PINCH,Leg,leg,0,117,117,29,0,0,0,0,1,3.229,,,2018_Sep_12_1446,59.7045176296,verb_norming_L2-eng_oral_translation,001,805,
PINCH,Arm,arm,0,117,117,29,0,1,1,1,7,1.32,,,2018_Sep_12_1446,59.7045176296,verb_norming_L2-eng_oral_translation,001,805,
PINCH,,,0,117,117,29,,,,,,,return,1.77820611495,2018_Sep_12_1446,59.7045176296,verb_norming_L2-eng_oral_translation,001,805,
TRIP,Leg,leg,0,118,118,120,0,0,0,0,7,2.005,,,2018_Sep_12_1446,59.7045176296,verb_norming_L2-eng_oral_translation,001,805,
TRIP,Arm,arm,0,118,118,120,0,1,1,1,1,0.432,,,2018_Sep_12_1446,59.7045176296,verb_norming_L2-eng_oral_translation,001,805,
TRIP,,,0,118,118,120,,,,,,,return,1.61044118949,2018_Sep_12_1446,59.7045176296,verb_norming_L2-eng_oral_translation,001,805,
SLAP,Leg,leg,0,119,119,46,0,0,0,0,1,5.795,,,2018_Sep_12_1446,59.7045176296,verb_norming_L2-eng_oral_translation,001,805,
SLAP,Arm,arm,0,119,119,46,0,1,1,1,7,0.733,,,2018_Sep_12_1446,59.7045176296,verb_norming_L2-eng_oral_translation,001,805,
SLAP,,,0,119,119,46,,,,,,,return,2.51608391387,2018_Sep_12_1446,59.7045176296,verb_norming_L2-eng_oral_translation,001,805,
POLISH,Leg,leg,0,120,120,32,0,0,0,0,1,2.96,,,2018_Sep_12_1446,59.7045176296,verb_norming_L2-eng_oral_translation,001,805,
POLISH,Arm,arm,0,120,120,32,0,1,1,1,7,0.984,,,2018_Sep_12_1446,59.7045176296,verb_norming_L2-eng_oral_translation,001,805,
POLISH,,,0,120,120,32,,,,,,,return,1.56015347439,2018_Sep_12_1446,59.7045176296,verb_norming_L2-eng_oral_translation,001,805,
BOUNCE,Leg,leg,0,121,121,60,0,0,0,0,2,4.436,,,2018_Sep_12_1446,59.7045176296,verb_norming_L2-eng_oral_translation,001,805,
BOUNCE,Arm,arm,0,121,121,60,0,1,1,1,7,1.269,,,2018_Sep_12_1446,59.7045176296,verb_norming_L2-eng_oral_translation,001,805,
BOUNCE,,,0,121,121,60,,,,,,,return,2.04632126105,2018_Sep_12_1446,59.7045176296,verb_norming_L2-eng_oral_translation,001,805,
PACE,Leg,leg,0,122,122,82,0,0,0,0,5,17.031,,,2018_Sep_12_1446,59.7045176296,verb_norming_L2-eng_oral_translation,001,805,
PACE,Arm,arm,0,122,122,82,0,1,1,1,2,1.874,,,2018_Sep_12_1446,59.7045176296,verb_norming_L2-eng_oral_translation,001,805,
PACE,,,0,122,122,82,,,,,,,return,3.01910922901,2018_Sep_12_1446,59.7045176296,verb_norming_L2-eng_oral_translation,001,805,
HOBBLE,Leg,leg,0,123,123,70,0,0,0,0,4,2.859,,,2018_Sep_12_1446,59.7045176296,verb_norming_L2-eng_oral_translation,001,805,
HOBBLE,Arm,arm,0,123,123,70,0,1,1,1,4,0.565,,,2018_Sep_12_1446,59.7045176296,verb_norming_L2-eng_oral_translation,001,805,
HOBBLE,,,0,123,123,70,,,,,,,return,1.94586870836,2018_Sep_12_1446,59.7045176296,verb_norming_L2-eng_oral_translation,001,805,
RUB,Leg,leg,0,124,124,37,0,0,0,0,2,2.374,,,2018_Sep_12_1446,59.7045176296,verb_norming_L2-eng_oral_translation,001,805,
RUB,Arm,arm,0,124,124,37,0,1,1,1,7,2.864,,,2018_Sep_12_1446,59.7045176296,verb_norming_L2-eng_oral_translation,001,805,
RUB,,,0,124,124,37,,,,,,,return,1.61045501814,2018_Sep_12_1446,59.7045176296,verb_norming_L2-eng_oral_translation,001,805,
CHOP,Leg,leg,0,125,125,6,0,0,0,0,1,12.89,,,2018_Sep_12_1446,59.7045176296,verb_norming_L2-eng_oral_translation,001,805,
CHOP,Arm,arm,0,125,125,6,0,1,1,1,7,0.482,,,2018_Sep_12_1446,59.7045176296,verb_norming_L2-eng_oral_translation,001,805,
CHOP,,,0,125,125,6,,,,,,,return,5.18266273564,2018_Sep_12_1446,59.7045176296,verb_norming_L2-eng_oral_translation,001,805,
SHAMBLE,Leg,leg,0,126,126,91,0,0,0,0,4,3.295,,,2018_Sep_12_1446,59.7045176296,verb_norming_L2-eng_oral_translation,001,805,
SHAMBLE,Arm,arm,0,126,126,91,0,1,1,1,4,0.497,,,2018_Sep_12_1446,59.7045176296,verb_norming_L2-eng_oral_translation,001,805,
SHAMBLE,,,0,126,126,91,,,,,,,return,1.92909928818,2018_Sep_12_1446,59.7045176296,verb_norming_L2-eng_oral_translation,001,805,
TROT,Leg,leg,0,127,127,121,0,0,0,0,4,3.229,,,2018_Sep_12_1446,59.7045176296,verb_norming_L2-eng_oral_translation,001,805,
TROT,Arm,arm,0,127,127,121,0,1,1,1,4,0.465,,,2018_Sep_12_1446,59.7045176296,verb_norming_L2-eng_oral_translation,001,805,
TROT,,,0,127,127,121,,,,,,,return,2.53269608246,2018_Sep_12_1446,59.7045176296,verb_norming_L2-eng_oral_translation,001,805,
