word,category,category_lowercase,trials.thisRepN,trials.thisTrialN,trials.thisN,trials.thisIndex,armleg_loop.thisRepN,armleg_loop.thisTrialN,armleg_loop.thisN,armleg_loop.thisIndex,rating.response,rating.rt,key_resp_8.keys,key_resp_8.rt,date,frameRate,expName,session,participant,
KNIPA,Ben/fötter,ben/fötter,0,0,0,37,0,0,0,0,6,14.911,,,2018_Sep_12_1529,59.6289821748,verb_norming_L1-swe_no_translation,001,805,
KNIPA,Armar/händer,armar/händer,0,0,0,37,0,1,1,1,4,5.939,,,2018_Sep_12_1529,59.6289821748,verb_norming_L1-swe_no_translation,001,805,
KNIPA,,,0,0,0,37,,,,,,,,,2018_Sep_12_1529,59.6289821748,verb_norming_L1-swe_no_translation,001,805,
NAPPA,Ben/fötter,ben/fötter,0,1,1,45,0,0,0,0,1,12.043,,,2018_Sep_12_1529,59.6289821748,verb_norming_L1-swe_no_translation,001,805,
NAPPA,Armar/händer,armar/händer,0,1,1,45,0,1,1,1,2,5.537,,,2018_Sep_12_1529,59.6289821748,verb_norming_L1-swe_no_translation,001,805,
NAPPA,,,0,1,1,45,,,,,,,,,2018_Sep_12_1529,59.6289821748,verb_norming_L1-swe_no_translation,001,805,
RÖRA,Ben/fötter,ben/fötter,0,2,2,65,0,0,0,0,5,4.244,,,2018_Sep_12_1529,59.6289821748,verb_norming_L1-swe_no_translation,001,805,
RÖRA,Armar/händer,armar/händer,0,2,2,65,0,1,1,1,7,2.098,,,2018_Sep_12_1529,59.6289821748,verb_norming_L1-swe_no_translation,001,805,
RÖRA,,,0,2,2,65,,,,,,,,,2018_Sep_12_1529,59.6289821748,verb_norming_L1-swe_no_translation,001,805,
PRESSA,Ben/fötter,ben/fötter,0,3,3,55,0,0,0,0,6,5.852,,,2018_Sep_12_1529,59.6289821748,verb_norming_L1-swe_no_translation,001,805,
PRESSA,Armar/händer,armar/händer,0,3,3,55,0,1,1,1,6,0.941,,,2018_Sep_12_1529,59.6289821748,verb_norming_L1-swe_no_translation,001,805,
PRESSA,,,0,3,3,55,,,,,,,,,2018_Sep_12_1529,59.6289821748,verb_norming_L1-swe_no_translation,001,805,
KARVA,Ben/fötter,ben/fötter,0,4,4,26,0,0,0,0,1,4.345,,,2018_Sep_12_1529,59.6289821748,verb_norming_L1-swe_no_translation,001,805,
KARVA,Armar/händer,armar/händer,0,4,4,26,0,1,1,1,7,1.411,,,2018_Sep_12_1529,59.6289821748,verb_norming_L1-swe_no_translation,001,805,
KARVA,,,0,4,4,26,,,,,,,,,2018_Sep_12_1529,59.6289821748,verb_norming_L1-swe_no_translation,001,805,
NORPA,Ben/fötter,ben/fötter,0,5,5,46,0,0,0,0,1,2.769,,,2018_Sep_12_1529,59.6289821748,verb_norming_L1-swe_no_translation,001,805,
NORPA,Armar/händer,armar/händer,0,5,5,46,0,1,1,1,5,2.266,,,2018_Sep_12_1529,59.6289821748,verb_norming_L1-swe_no_translation,001,805,
NORPA,,,0,5,5,46,,,,,,,,,2018_Sep_12_1529,59.6289821748,verb_norming_L1-swe_no_translation,001,805,
VADA,Ben/fötter,ben/fötter,0,6,6,165,0,0,0,0,6,2.786,,,2018_Sep_12_1529,59.6289821748,verb_norming_L1-swe_no_translation,001,805,
VADA,Armar/händer,armar/händer,0,6,6,165,0,1,1,1,1,1.26,,,2018_Sep_12_1529,59.6289821748,verb_norming_L1-swe_no_translation,001,805,
VADA,,,0,6,6,165,,,,,,,,,2018_Sep_12_1529,59.6289821748,verb_norming_L1-swe_no_translation,001,805,
VANKA,Ben/fötter,ben/fötter,0,7,7,167,0,0,0,0,7,2.232,,,2018_Sep_12_1529,59.6289821748,verb_norming_L1-swe_no_translation,001,805,
VANKA,Armar/händer,armar/händer,0,7,7,167,0,1,1,1,1,1.478,,,2018_Sep_12_1529,59.6289821748,verb_norming_L1-swe_no_translation,001,805,
VANKA,,,0,7,7,167,,,,,,,,,2018_Sep_12_1529,59.6289821748,verb_norming_L1-swe_no_translation,001,805,
STÅ,Ben/fötter,ben/fötter,0,8,8,147,0,0,0,0,7,1.795,,,2018_Sep_12_1529,59.6289821748,verb_norming_L1-swe_no_translation,001,805,
STÅ,Armar/händer,armar/händer,0,8,8,147,0,1,1,1,1,1.276,,,2018_Sep_12_1529,59.6289821748,verb_norming_L1-swe_no_translation,001,805,
STÅ,,,0,8,8,147,,,,,,,,,2018_Sep_12_1529,59.6289821748,verb_norming_L1-swe_no_translation,001,805,
RAFSA,Ben/fötter,ben/fötter,0,9,9,58,0,0,0,0,1,2.551,,,2018_Sep_12_1529,59.6289821748,verb_norming_L1-swe_no_translation,001,805,
RAFSA,Armar/händer,armar/händer,0,9,9,58,0,1,1,1,7,2.535,,,2018_Sep_12_1529,59.6289821748,verb_norming_L1-swe_no_translation,001,805,
RAFSA,,,0,9,9,58,,,,,,,,,2018_Sep_12_1529,59.6289821748,verb_norming_L1-swe_no_translation,001,805,
SKEJTA,Ben/fötter,ben/fötter,0,10,10,135,0,0,0,0,7,5.919,,,2018_Sep_12_1529,59.6289821748,verb_norming_L1-swe_no_translation,001,805,
SKEJTA,Armar/händer,armar/händer,0,10,10,135,0,1,1,1,1,1.376,,,2018_Sep_12_1529,59.6289821748,verb_norming_L1-swe_no_translation,001,805,
SKEJTA,,,0,10,10,135,,,,,,,,,2018_Sep_12_1529,59.6289821748,verb_norming_L1-swe_no_translation,001,805,
SMÄLLA,Ben/fötter,ben/fötter,0,11,11,84,0,0,0,0,1,3.638,,,2018_Sep_12_1529,59.6289821748,verb_norming_L1-swe_no_translation,001,805,
SMÄLLA,Armar/händer,armar/händer,0,11,11,84,0,1,1,1,3,4.999,,,2018_Sep_12_1529,59.6289821748,verb_norming_L1-swe_no_translation,001,805,
SMÄLLA,,,0,11,11,84,,,,,,,,,2018_Sep_12_1529,59.6289821748,verb_norming_L1-swe_no_translation,001,805,
IRRA,Ben/fötter,ben/fötter,0,12,12,113,0,0,0,0,7,4.278,,,2018_Sep_12_1529,59.6289821748,verb_norming_L1-swe_no_translation,001,805,
IRRA,Armar/händer,armar/händer,0,12,12,113,0,1,1,1,1,0.825,,,2018_Sep_12_1529,59.6289821748,verb_norming_L1-swe_no_translation,001,805,
IRRA,,,0,12,12,113,,,,,,,,,2018_Sep_12_1529,59.6289821748,verb_norming_L1-swe_no_translation,001,805,
SKYNDA,Ben/fötter,ben/fötter,0,13,13,138,0,0,0,0,4,5.515,,,2018_Sep_12_1529,59.6289821748,verb_norming_L1-swe_no_translation,001,805,
SKYNDA,Armar/händer,armar/händer,0,13,13,138,0,1,1,1,1,1.324,,,2018_Sep_12_1529,59.6289821748,verb_norming_L1-swe_no_translation,001,805,
SKYNDA,,,0,13,13,138,,,,,,,,,2018_Sep_12_1529,59.6289821748,verb_norming_L1-swe_no_translation,001,805,
KLIA,Ben/fötter,ben/fötter,0,14,14,32,0,0,0,0,1,3.709,,,2018_Sep_12_1529,59.6289821748,verb_norming_L1-swe_no_translation,001,805,
KLIA,Armar/händer,armar/händer,0,14,14,32,0,1,1,1,7,1.311,,,2018_Sep_12_1529,59.6289821748,verb_norming_L1-swe_no_translation,001,805,
KLIA,,,0,14,14,32,,,,,,,,,2018_Sep_12_1529,59.6289821748,verb_norming_L1-swe_no_translation,001,805,
PADDLA,Ben/fötter,ben/fötter,0,15,15,49,0,0,0,0,1,2.198,,,2018_Sep_12_1529,59.6289821748,verb_norming_L1-swe_no_translation,001,805,
PADDLA,Armar/händer,armar/händer,0,15,15,49,0,1,1,1,7,1.98,,,2018_Sep_12_1529,59.6289821748,verb_norming_L1-swe_no_translation,001,805,
PADDLA,,,0,15,15,49,,,,,,,,,2018_Sep_12_1529,59.6289821748,verb_norming_L1-swe_no_translation,001,805,
ILA,Ben/fötter,ben/fötter,0,16,16,112,0,0,0,0,6,3.189,,,2018_Sep_12_1529,59.6289821748,verb_norming_L1-swe_no_translation,001,805,
ILA,Armar/händer,armar/händer,0,16,16,112,0,1,1,1,1,1.244,,,2018_Sep_12_1529,59.6289821748,verb_norming_L1-swe_no_translation,001,805,
ILA,,,0,16,16,112,,,,,,,,,2018_Sep_12_1529,59.6289821748,verb_norming_L1-swe_no_translation,001,805,
SMEKA,Ben/fötter,ben/fötter,0,17,17,85,0,0,0,0,2,2.433,,,2018_Sep_12_1529,59.6289821748,verb_norming_L1-swe_no_translation,001,805,
SMEKA,Armar/händer,armar/händer,0,17,17,85,0,1,1,1,7,1.646,,,2018_Sep_12_1529,59.6289821748,verb_norming_L1-swe_no_translation,001,805,
SMEKA,,,0,17,17,85,,,,,,,,,2018_Sep_12_1529,59.6289821748,verb_norming_L1-swe_no_translation,001,805,
PETA,Ben/fötter,ben/fötter,0,18,18,50,0,0,0,0,4,3.457,,,2018_Sep_12_1529,59.6289821748,verb_norming_L1-swe_no_translation,001,805,
PETA,Armar/händer,armar/händer,0,18,18,50,0,1,1,1,7,0.925,,,2018_Sep_12_1529,59.6289821748,verb_norming_L1-swe_no_translation,001,805,
PETA,,,0,18,18,50,,,,,,,,,2018_Sep_12_1529,59.6289821748,verb_norming_L1-swe_no_translation,001,805,
GESTIKULERA,Ben/fötter,ben/fötter,0,19,19,13,0,0,0,0,3,5.059,,,2018_Sep_12_1529,59.6289821748,verb_norming_L1-swe_no_translation,001,805,
GESTIKULERA,Armar/händer,armar/händer,0,19,19,13,0,1,1,1,7,1.556,,,2018_Sep_12_1529,59.6289821748,verb_norming_L1-swe_no_translation,001,805,
GESTIKULERA,,,0,19,19,13,,,,,,,,,2018_Sep_12_1529,59.6289821748,verb_norming_L1-swe_no_translation,001,805,
HISSA,Ben/fötter,ben/fötter,0,20,20,23,0,0,0,0,1,7.834,,,2018_Sep_12_1529,59.6289821748,verb_norming_L1-swe_no_translation,001,805,
HISSA,Armar/händer,armar/händer,0,20,20,23,0,1,1,1,6,2.904,,,2018_Sep_12_1529,59.6289821748,verb_norming_L1-swe_no_translation,001,805,
HISSA,,,0,20,20,23,,,,,,,,,2018_Sep_12_1529,59.6289821748,verb_norming_L1-swe_no_translation,001,805,
STRUTTA,Ben/fötter,ben/fötter,0,21,21,154,0,0,0,0,6,2.816,,,2018_Sep_12_1529,59.6289821748,verb_norming_L1-swe_no_translation,001,805,
STRUTTA,Armar/händer,armar/händer,0,21,21,154,0,1,1,1,1,1.106,,,2018_Sep_12_1529,59.6289821748,verb_norming_L1-swe_no_translation,001,805,
STRUTTA,,,0,21,21,154,,,,,,,,,2018_Sep_12_1529,59.6289821748,verb_norming_L1-swe_no_translation,001,805,
POLERA,Ben/fötter,ben/fötter,0,22,22,54,0,0,0,0,1,1.88,,,2018_Sep_12_1529,59.6289821748,verb_norming_L1-swe_no_translation,001,805,
POLERA,Armar/händer,armar/händer,0,22,22,54,0,1,1,1,7,0.873,,,2018_Sep_12_1529,59.6289821748,verb_norming_L1-swe_no_translation,001,805,
POLERA,,,0,22,22,54,,,,,,,,,2018_Sep_12_1529,59.6289821748,verb_norming_L1-swe_no_translation,001,805,
GÅ,Ben/fötter,ben/fötter,0,23,23,106,0,0,0,0,7,1.712,,,2018_Sep_12_1529,59.6289821748,verb_norming_L1-swe_no_translation,001,805,
GÅ,Armar/händer,armar/händer,0,23,23,106,0,1,1,1,1,0.589,,,2018_Sep_12_1529,59.6289821748,verb_norming_L1-swe_no_translation,001,805,
GÅ,,,0,23,23,106,,,,,,,,,2018_Sep_12_1529,59.6289821748,verb_norming_L1-swe_no_translation,001,805,
SLINTA,Ben/fötter,ben/fötter,0,24,24,140,0,0,0,0,2,3.238,,,2018_Sep_12_1529,59.6289821748,verb_norming_L1-swe_no_translation,001,805,
SLINTA,Armar/händer,armar/händer,0,24,24,140,0,1,1,1,6,1.141,,,2018_Sep_12_1529,59.6289821748,verb_norming_L1-swe_no_translation,001,805,
SLINTA,,,0,24,24,140,,,,,,,,,2018_Sep_12_1529,59.6289821748,verb_norming_L1-swe_no_translation,001,805,
STRÖVA,Ben/fötter,ben/fötter,0,25,25,153,0,0,0,0,7,3.64,,,2018_Sep_12_1529,59.6289821748,verb_norming_L1-swe_no_translation,001,805,
STRÖVA,Armar/händer,armar/händer,0,25,25,153,0,1,1,1,1,1.31,,,2018_Sep_12_1529,59.6289821748,verb_norming_L1-swe_no_translation,001,805,
STRÖVA,,,0,25,25,153,,,,,,,,,2018_Sep_12_1529,59.6289821748,verb_norming_L1-swe_no_translation,001,805,
FLACKA,Ben/fötter,ben/fötter,0,26,26,103,0,0,0,0,3,9.339,,,2018_Sep_12_1529,59.6289821748,verb_norming_L1-swe_no_translation,001,805,
FLACKA,Armar/händer,armar/händer,0,26,26,103,0,1,1,1,1,0.905,,,2018_Sep_12_1529,59.6289821748,verb_norming_L1-swe_no_translation,001,805,
FLACKA,,,0,26,26,103,,,,,,,,,2018_Sep_12_1529,59.6289821748,verb_norming_L1-swe_no_translation,001,805,
KASTA,Ben/fötter,ben/fötter,0,27,27,27,0,0,0,0,1,2.467,,,2018_Sep_12_1529,59.6289821748,verb_norming_L1-swe_no_translation,001,805,
KASTA,Armar/händer,armar/händer,0,27,27,27,0,1,1,1,7,1.527,,,2018_Sep_12_1529,59.6289821748,verb_norming_L1-swe_no_translation,001,805,
KASTA,,,0,27,27,27,,,,,,,,,2018_Sep_12_1529,59.6289821748,verb_norming_L1-swe_no_translation,001,805,
PUTSA,Ben/fötter,ben/fötter,0,28,28,56,0,0,0,0,1,1.81,,,2018_Sep_12_1529,59.6289821748,verb_norming_L1-swe_no_translation,001,805,
PUTSA,Armar/händer,armar/händer,0,28,28,56,0,1,1,1,7,0.688,,,2018_Sep_12_1529,59.6289821748,verb_norming_L1-swe_no_translation,001,805,
PUTSA,,,0,28,28,56,,,,,,,,,2018_Sep_12_1529,59.6289821748,verb_norming_L1-swe_no_translation,001,805,
GREPPA,Ben/fötter,ben/fötter,0,29,29,18,0,0,0,0,1,2.208,,,2018_Sep_12_1529,59.6289821748,verb_norming_L1-swe_no_translation,001,805,
GREPPA,Armar/händer,armar/händer,0,29,29,18,0,1,1,1,7,0.873,,,2018_Sep_12_1529,59.6289821748,verb_norming_L1-swe_no_translation,001,805,
GREPPA,,,0,29,29,18,,,,,,,,,2018_Sep_12_1529,59.6289821748,verb_norming_L1-swe_no_translation,001,805,
DRA,Ben/fötter,ben/fötter,0,30,30,6,0,0,0,0,2,4.195,,,2018_Sep_12_1529,59.6289821748,verb_norming_L1-swe_no_translation,001,805,
DRA,Armar/händer,armar/händer,0,30,30,6,0,1,1,1,7,1.898,,,2018_Sep_12_1529,59.6289821748,verb_norming_L1-swe_no_translation,001,805,
DRA,,,0,30,30,6,,,,,,,,,2018_Sep_12_1529,59.6289821748,verb_norming_L1-swe_no_translation,001,805,
KLIPPA,Ben/fötter,ben/fötter,0,31,31,34,0,0,0,0,1,1.561,,,2018_Sep_12_1529,59.6289821748,verb_norming_L1-swe_no_translation,001,805,
KLIPPA,Armar/händer,armar/händer,0,31,31,34,0,1,1,1,7,0.907,,,2018_Sep_12_1529,59.6289821748,verb_norming_L1-swe_no_translation,001,805,
KLIPPA,,,0,31,31,34,,,,,,,,,2018_Sep_12_1529,59.6289821748,verb_norming_L1-swe_no_translation,001,805,
PILLA,Ben/fötter,ben/fötter,0,32,32,51,0,0,0,0,1,3.104,,,2018_Sep_12_1529,59.6289821748,verb_norming_L1-swe_no_translation,001,805,
PILLA,Armar/händer,armar/händer,0,32,32,51,0,1,1,1,7,0.656,,,2018_Sep_12_1529,59.6289821748,verb_norming_L1-swe_no_translation,001,805,
PILLA,,,0,32,32,51,,,,,,,,,2018_Sep_12_1529,59.6289821748,verb_norming_L1-swe_no_translation,001,805,
FÖSA,Ben/fötter,ben/fötter,0,33,33,12,0,0,0,0,3,3.407,,,2018_Sep_12_1529,59.6289821748,verb_norming_L1-swe_no_translation,001,805,
FÖSA,Armar/händer,armar/händer,0,33,33,12,0,1,1,1,7,1.211,,,2018_Sep_12_1529,59.6289821748,verb_norming_L1-swe_no_translation,001,805,
FÖSA,,,0,33,33,12,,,,,,,,,2018_Sep_12_1529,59.6289821748,verb_norming_L1-swe_no_translation,001,805,
HOPPA,Ben/fötter,ben/fötter,0,34,34,111,0,0,0,0,7,1.343,,,2018_Sep_12_1529,59.6289821748,verb_norming_L1-swe_no_translation,001,805,
HOPPA,Armar/händer,armar/händer,0,34,34,111,0,1,1,1,1,0.958,,,2018_Sep_12_1529,59.6289821748,verb_norming_L1-swe_no_translation,001,805,
HOPPA,,,0,34,34,111,,,,,,,,,2018_Sep_12_1529,59.6289821748,verb_norming_L1-swe_no_translation,001,805,
TRYCKA,Ben/fötter,ben/fötter,0,35,35,95,0,0,0,0,6,6.708,,,2018_Sep_12_1529,59.6289821748,verb_norming_L1-swe_no_translation,001,805,
TRYCKA,Armar/händer,armar/händer,0,35,35,95,0,1,1,1,7,0.504,,,2018_Sep_12_1529,59.6289821748,verb_norming_L1-swe_no_translation,001,805,
TRYCKA,,,0,35,35,95,,,,,,,,,2018_Sep_12_1529,59.6289821748,verb_norming_L1-swe_no_translation,001,805,
STAPPLA,Ben/fötter,ben/fötter,0,36,36,149,0,0,0,0,7,2.516,,,2018_Sep_12_1529,59.6289821748,verb_norming_L1-swe_no_translation,001,805,
STAPPLA,Armar/händer,armar/händer,0,36,36,149,0,1,1,1,1,0.554,,,2018_Sep_12_1529,59.6289821748,verb_norming_L1-swe_no_translation,001,805,
STAPPLA,,,0,36,36,149,,,,,,,,,2018_Sep_12_1529,59.6289821748,verb_norming_L1-swe_no_translation,001,805,
KLÄMMA,Ben/fötter,ben/fötter,0,37,37,30,0,0,0,0,3,2.919,,,2018_Sep_12_1529,59.6289821748,verb_norming_L1-swe_no_translation,001,805,
KLÄMMA,Armar/händer,armar/händer,0,37,37,30,0,1,1,1,7,1.762,,,2018_Sep_12_1529,59.6289821748,verb_norming_L1-swe_no_translation,001,805,
KLÄMMA,,,0,37,37,30,,,,,,,,,2018_Sep_12_1529,59.6289821748,verb_norming_L1-swe_no_translation,001,805,
HAFFA,Ben/fötter,ben/fötter,0,38,38,21,0,0,0,0,1,4.161,,,2018_Sep_12_1529,59.6289821748,verb_norming_L1-swe_no_translation,001,805,
HAFFA,Armar/händer,armar/händer,0,38,38,21,0,1,1,1,5,1.511,,,2018_Sep_12_1529,59.6289821748,verb_norming_L1-swe_no_translation,001,805,
HAFFA,,,0,38,38,21,,,,,,,,,2018_Sep_12_1529,59.6289821748,verb_norming_L1-swe_no_translation,001,805,
KELA,Ben/fötter,ben/fötter,0,39,39,28,0,0,0,0,3,3.441,,,2018_Sep_12_1529,59.6289821748,verb_norming_L1-swe_no_translation,001,805,
KELA,Armar/händer,armar/händer,0,39,39,28,0,1,1,1,6,1.998,,,2018_Sep_12_1529,59.6289821748,verb_norming_L1-swe_no_translation,001,805,
KELA,,,0,39,39,28,,,,,,,,,2018_Sep_12_1529,59.6289821748,verb_norming_L1-swe_no_translation,001,805,
SKUMMA,Ben/fötter,ben/fötter,0,40,40,76,0,0,0,0,1,4.293,,,2018_Sep_12_1529,59.6289821748,verb_norming_L1-swe_no_translation,001,805,
SKUMMA,Armar/händer,armar/händer,0,40,40,76,0,1,1,1,5,4.612,,,2018_Sep_12_1529,59.6289821748,verb_norming_L1-swe_no_translation,001,805,
SKUMMA,,,0,40,40,76,,,,,,,,,2018_Sep_12_1529,59.6289821748,verb_norming_L1-swe_no_translation,001,805,
KNÄA,Ben/fötter,ben/fötter,0,41,41,118,0,0,0,0,7,5.653,,,2018_Sep_12_1529,59.6289821748,verb_norming_L1-swe_no_translation,001,805,
KNÄA,Armar/händer,armar/händer,0,41,41,118,0,1,1,1,1,12.715,,,2018_Sep_12_1529,59.6289821748,verb_norming_L1-swe_no_translation,001,805,
KNÄA,,,0,41,41,118,,,,,,,,,2018_Sep_12_1529,59.6289821748,verb_norming_L1-swe_no_translation,001,805,
RASPA,Ben/fötter,ben/fötter,0,42,42,60,0,0,0,0,3,3.439,,,2018_Sep_12_1529,59.6289821748,verb_norming_L1-swe_no_translation,001,805,
RASPA,Armar/händer,armar/händer,0,42,42,60,0,1,1,1,7,2.887,,,2018_Sep_12_1529,59.6289821748,verb_norming_L1-swe_no_translation,001,805,
RASPA,,,0,42,42,60,,,,,,,,,2018_Sep_12_1529,59.6289821748,verb_norming_L1-swe_no_translation,001,805,
RULLA,Ben/fötter,ben/fötter,0,43,43,132,0,0,0,0,4,8.553,,,2018_Sep_12_1529,59.6289821748,verb_norming_L1-swe_no_translation,001,805,
RULLA,Armar/händer,armar/händer,0,43,43,132,0,1,1,1,6,1.828,,,2018_Sep_12_1529,59.6289821748,verb_norming_L1-swe_no_translation,001,805,
RULLA,,,0,43,43,132,,,,,,,,,2018_Sep_12_1529,59.6289821748,verb_norming_L1-swe_no_translation,001,805,
TRAMPA,Ben/fötter,ben/fötter,0,44,44,161,0,0,0,0,7,2.834,,,2018_Sep_12_1529,59.6289821748,verb_norming_L1-swe_no_translation,001,805,
TRAMPA,Armar/händer,armar/händer,0,44,44,161,0,1,1,1,1,0.589,,,2018_Sep_12_1529,59.6289821748,verb_norming_L1-swe_no_translation,001,805,
TRAMPA,,,0,44,44,161,,,,,,,,,2018_Sep_12_1529,59.6289821748,verb_norming_L1-swe_no_translation,001,805,
LINDA,Ben/fötter,ben/fötter,0,45,45,43,0,0,0,0,2,4.111,,,2018_Sep_12_1529,59.6289821748,verb_norming_L1-swe_no_translation,001,805,
LINDA,Armar/händer,armar/händer,0,45,45,43,0,1,1,1,7,2.501,,,2018_Sep_12_1529,59.6289821748,verb_norming_L1-swe_no_translation,001,805,
LINDA,,,0,45,45,43,,,,,,,,,2018_Sep_12_1529,59.6289821748,verb_norming_L1-swe_no_translation,001,805,
KRAVLA,Ben/fötter,ben/fötter,0,46,46,122,0,0,0,0,6,5.032,,,2018_Sep_12_1529,59.6289821748,verb_norming_L1-swe_no_translation,001,805,
KRAVLA,Armar/händer,armar/händer,0,46,46,122,0,1,1,1,6,0.639,,,2018_Sep_12_1529,59.6289821748,verb_norming_L1-swe_no_translation,001,805,
KRAVLA,,,0,46,46,122,,,,,,,,,2018_Sep_12_1529,59.6289821748,verb_norming_L1-swe_no_translation,001,805,
PISKA,Ben/fötter,ben/fötter,0,47,47,52,0,0,0,0,1,1.729,,,2018_Sep_12_1529,59.6289821748,verb_norming_L1-swe_no_translation,001,805,
PISKA,Armar/händer,armar/händer,0,47,47,52,0,1,1,1,7,0.538,,,2018_Sep_12_1529,59.6289821748,verb_norming_L1-swe_no_translation,001,805,
PISKA,,,0,47,47,52,,,,,,,,,2018_Sep_12_1529,59.6289821748,verb_norming_L1-swe_no_translation,001,805,
TA,Ben/fötter,ben/fötter,0,48,48,92,0,0,0,0,1,5.001,,,2018_Sep_12_1529,59.6289821748,verb_norming_L1-swe_no_translation,001,805,
TA,Armar/händer,armar/händer,0,48,48,92,0,1,1,1,7,0.491,,,2018_Sep_12_1529,59.6289821748,verb_norming_L1-swe_no_translation,001,805,
TA,,,0,48,48,92,,,,,,,,,2018_Sep_12_1529,59.6289821748,verb_norming_L1-swe_no_translation,001,805,
VACKLA,Ben/fötter,ben/fötter,0,49,49,164,0,0,0,0,7,3.018,,,2018_Sep_12_1529,59.6289821748,verb_norming_L1-swe_no_translation,001,805,
VACKLA,Armar/händer,armar/händer,0,49,49,164,0,1,1,1,1,0.671,,,2018_Sep_12_1529,59.6289821748,verb_norming_L1-swe_no_translation,001,805,
VACKLA,,,0,49,49,164,,,,,,,,,2018_Sep_12_1529,59.6289821748,verb_norming_L1-swe_no_translation,001,805,
HALKA,Ben/fötter,ben/fötter,0,50,50,109,0,0,0,0,7,1.729,,,2018_Sep_12_1529,59.6289821748,verb_norming_L1-swe_no_translation,001,805,
HALKA,Armar/händer,armar/händer,0,50,50,109,0,1,1,1,1,0.657,,,2018_Sep_12_1529,59.6289821748,verb_norming_L1-swe_no_translation,001,805,
HALKA,,,0,50,50,109,,,,,,,,,2018_Sep_12_1529,59.6289821748,verb_norming_L1-swe_no_translation,001,805,
KRAMA,Ben/fötter,ben/fötter,0,51,51,41,0,0,0,0,1,1.427,,,2018_Sep_12_1529,59.6289821748,verb_norming_L1-swe_no_translation,001,805,
KRAMA,Armar/händer,armar/händer,0,51,51,41,0,1,1,1,7,1.126,,,2018_Sep_12_1529,59.6289821748,verb_norming_L1-swe_no_translation,001,805,
KRAMA,,,0,51,51,41,,,,,,,,,2018_Sep_12_1529,59.6289821748,verb_norming_L1-swe_no_translation,001,805,
SLEVA,Ben/fötter,ben/fötter,0,52,52,80,0,0,0,0,1,1.897,,,2018_Sep_12_1529,59.6289821748,verb_norming_L1-swe_no_translation,001,805,
SLEVA,Armar/händer,armar/händer,0,52,52,80,0,1,1,1,7,0.556,,,2018_Sep_12_1529,59.6289821748,verb_norming_L1-swe_no_translation,001,805,
SLEVA,,,0,52,52,80,,,,,,,,,2018_Sep_12_1529,59.6289821748,verb_norming_L1-swe_no_translation,001,805,
PLOCKA,Ben/fötter,ben/fötter,0,53,53,53,0,0,0,0,1,4.679,,,2018_Sep_12_1529,59.6289821748,verb_norming_L1-swe_no_translation,001,805,
PLOCKA,Armar/händer,armar/händer,0,53,53,53,0,1,1,1,7,0.621,,,2018_Sep_12_1529,59.6289821748,verb_norming_L1-swe_no_translation,001,805,
PLOCKA,,,0,53,53,53,,,,,,,,,2018_Sep_12_1529,59.6289821748,verb_norming_L1-swe_no_translation,001,805,
TRÄDA,Ben/fötter,ben/fötter,0,54,54,160,0,0,0,0,4,11.457,,,2018_Sep_12_1529,59.6289821748,verb_norming_L1-swe_no_translation,001,805,
TRÄDA,Armar/händer,armar/händer,0,54,54,160,0,1,1,1,4,0.874,,,2018_Sep_12_1529,59.6289821748,verb_norming_L1-swe_no_translation,001,805,
TRÄDA,,,0,54,54,160,,,,,,,,,2018_Sep_12_1529,59.6289821748,verb_norming_L1-swe_no_translation,001,805,
RISTA,Ben/fötter,ben/fötter,0,55,55,62,0,0,0,0,1,4.429,,,2018_Sep_12_1529,59.6289821748,verb_norming_L1-swe_no_translation,001,805,
RISTA,Armar/händer,armar/händer,0,55,55,62,0,1,1,1,7,1.092,,,2018_Sep_12_1529,59.6289821748,verb_norming_L1-swe_no_translation,001,805,
RISTA,,,0,55,55,62,,,,,,,,,2018_Sep_12_1529,59.6289821748,verb_norming_L1-swe_no_translation,001,805,
HACKA,Ben/fötter,ben/fötter,0,56,56,20,0,0,0,0,1,1.375,,,2018_Sep_12_1529,59.6289821748,verb_norming_L1-swe_no_translation,001,805,
HACKA,Armar/händer,armar/händer,0,56,56,20,0,1,1,1,7,2.281,,,2018_Sep_12_1529,59.6289821748,verb_norming_L1-swe_no_translation,001,805,
HACKA,,,0,56,56,20,,,,,,,,,2018_Sep_12_1529,59.6289821748,verb_norming_L1-swe_no_translation,001,805,
ROTA,Ben/fötter,ben/fötter,0,57,57,66,0,0,0,0,2,3.524,,,2018_Sep_12_1529,59.6289821748,verb_norming_L1-swe_no_translation,001,805,
ROTA,Armar/händer,armar/händer,0,57,57,66,0,1,1,1,6,1.663,,,2018_Sep_12_1529,59.6289821748,verb_norming_L1-swe_no_translation,001,805,
ROTA,,,0,57,57,66,,,,,,,,,2018_Sep_12_1529,59.6289821748,verb_norming_L1-swe_no_translation,001,805,
SKYFFLA,Ben/fötter,ben/fötter,0,58,58,78,0,0,0,0,1,2.431,,,2018_Sep_12_1529,59.6289821748,verb_norming_L1-swe_no_translation,001,805,
SKYFFLA,Armar/händer,armar/händer,0,58,58,78,0,1,1,1,7,0.519,,,2018_Sep_12_1529,59.6289821748,verb_norming_L1-swe_no_translation,001,805,
SKYFFLA,,,0,58,58,78,,,,,,,,,2018_Sep_12_1529,59.6289821748,verb_norming_L1-swe_no_translation,001,805,
KLAPPA,Ben/fötter,ben/fötter,0,59,59,31,0,0,0,0,1,2.969,,,2018_Sep_12_1529,59.6289821748,verb_norming_L1-swe_no_translation,001,805,
KLAPPA,Armar/händer,armar/händer,0,59,59,31,0,1,1,1,7,0.421,,,2018_Sep_12_1529,59.6289821748,verb_norming_L1-swe_no_translation,001,805,
KLAPPA,,,0,59,59,31,,,,,,,,,2018_Sep_12_1529,59.6289821748,verb_norming_L1-swe_no_translation,001,805,
HÖJA,Ben/fötter,ben/fötter,0,60,60,25,0,0,0,0,1,3.91,,,2018_Sep_12_1529,59.6289821748,verb_norming_L1-swe_no_translation,001,805,
HÖJA,Armar/händer,armar/händer,0,60,60,25,0,1,1,1,5,1.025,,,2018_Sep_12_1529,59.6289821748,verb_norming_L1-swe_no_translation,001,805,
HÖJA,,,0,60,60,25,,,,,,,,,2018_Sep_12_1529,59.6289821748,verb_norming_L1-swe_no_translation,001,805,
TRIPPA,Ben/fötter,ben/fötter,0,61,61,163,0,0,0,0,7,1.51,,,2018_Sep_12_1529,59.6289821748,verb_norming_L1-swe_no_translation,001,805,
TRIPPA,Armar/händer,armar/händer,0,61,61,163,0,1,1,1,1,0.488,,,2018_Sep_12_1529,59.6289821748,verb_norming_L1-swe_no_translation,001,805,
TRIPPA,,,0,61,61,163,,,,,,,,,2018_Sep_12_1529,59.6289821748,verb_norming_L1-swe_no_translation,001,805,
RAKA,Ben/fötter,ben/fötter,0,62,62,59,0,0,0,0,2,4.01,,,2018_Sep_12_1529,59.6289821748,verb_norming_L1-swe_no_translation,001,805,
RAKA,Armar/händer,armar/händer,0,62,62,59,0,1,1,1,6,3.407,,,2018_Sep_12_1529,59.6289821748,verb_norming_L1-swe_no_translation,001,805,
RAKA,,,0,62,62,59,,,,,,,,,2018_Sep_12_1529,59.6289821748,verb_norming_L1-swe_no_translation,001,805,
HALTA,Ben/fötter,ben/fötter,0,63,63,110,0,0,0,0,7,2.467,,,2018_Sep_12_1529,59.6289821748,verb_norming_L1-swe_no_translation,001,805,
HALTA,Armar/händer,armar/händer,0,63,63,110,0,1,1,1,1,0.539,,,2018_Sep_12_1529,59.6289821748,verb_norming_L1-swe_no_translation,001,805,
HALTA,,,0,63,63,110,,,,,,,,,2018_Sep_12_1529,59.6289821748,verb_norming_L1-swe_no_translation,001,805,
HÅVA,Ben/fötter,ben/fötter,0,64,64,22,0,0,0,0,1,6.56,,,2018_Sep_12_1529,59.6289821748,verb_norming_L1-swe_no_translation,001,805,
HÅVA,Armar/händer,armar/händer,0,64,64,22,0,1,1,1,7,0.405,,,2018_Sep_12_1529,59.6289821748,verb_norming_L1-swe_no_translation,001,805,
HÅVA,,,0,64,64,22,,,,,,,,,2018_Sep_12_1529,59.6289821748,verb_norming_L1-swe_no_translation,001,805,
GRÄVA,Ben/fötter,ben/fötter,0,65,65,17,0,0,0,0,1,1.308,,,2018_Sep_12_1529,59.6289821748,verb_norming_L1-swe_no_translation,001,805,
GRÄVA,Armar/händer,armar/händer,0,65,65,17,0,1,1,1,7,2.749,,,2018_Sep_12_1529,59.6289821748,verb_norming_L1-swe_no_translation,001,805,
GRÄVA,,,0,65,65,17,,,,,,,,,2018_Sep_12_1529,59.6289821748,verb_norming_L1-swe_no_translation,001,805,
VANDRA,Ben/fötter,ben/fötter,0,66,66,166,0,0,0,0,7,2.064,,,2018_Sep_12_1529,59.6289821748,verb_norming_L1-swe_no_translation,001,805,
VANDRA,Armar/händer,armar/händer,0,66,66,166,0,1,1,1,1,0.672,,,2018_Sep_12_1529,59.6289821748,verb_norming_L1-swe_no_translation,001,805,
VANDRA,,,0,66,66,166,,,,,,,,,2018_Sep_12_1529,59.6289821748,verb_norming_L1-swe_no_translation,001,805,
BADDA,Ben/fötter,ben/fötter,0,67,67,0,0,0,0,0,1,2.098,,,2018_Sep_12_1529,59.6289821748,verb_norming_L1-swe_no_translation,001,805,
BADDA,Armar/händer,armar/händer,0,67,67,0,0,1,1,1,7,0.538,,,2018_Sep_12_1529,59.6289821748,verb_norming_L1-swe_no_translation,001,805,
BADDA,,,0,67,67,0,,,,,,,,,2018_Sep_12_1529,59.6289821748,verb_norming_L1-swe_no_translation,001,805,
SKOPA,Ben/fötter,ben/fötter,0,68,68,73,0,0,0,0,1,1.696,,,2018_Sep_12_1529,59.6289821748,verb_norming_L1-swe_no_translation,001,805,
SKOPA,Armar/händer,armar/händer,0,68,68,73,0,1,1,1,7,0.472,,,2018_Sep_12_1529,59.6289821748,verb_norming_L1-swe_no_translation,001,805,
SKOPA,,,0,68,68,73,,,,,,,,,2018_Sep_12_1529,59.6289821748,verb_norming_L1-swe_no_translation,001,805,
STÄDA,Ben/fötter,ben/fötter,0,69,69,88,0,0,0,0,1,1.494,,,2018_Sep_12_1529,59.6289821748,verb_norming_L1-swe_no_translation,001,805,
STÄDA,Armar/händer,armar/händer,0,69,69,88,0,1,1,1,7,0.589,,,2018_Sep_12_1529,59.6289821748,verb_norming_L1-swe_no_translation,001,805,
STÄDA,,,0,69,69,88,,,,,,,,,2018_Sep_12_1529,59.6289821748,verb_norming_L1-swe_no_translation,001,805,
KOPPLA,Ben/fötter,ben/fötter,0,70,70,40,0,0,0,0,1,2.869,,,2018_Sep_12_1529,59.6289821748,verb_norming_L1-swe_no_translation,001,805,
KOPPLA,Armar/händer,armar/händer,0,70,70,40,0,1,1,1,5,1.796,,,2018_Sep_12_1529,59.6289821748,verb_norming_L1-swe_no_translation,001,805,
KOPPLA,,,0,70,70,40,,,,,,,,,2018_Sep_12_1529,59.6289821748,verb_norming_L1-swe_no_translation,001,805,
BINDA,Ben/fötter,ben/fötter,0,71,71,2,0,0,0,0,1,1.712,,,2018_Sep_12_1529,59.6289821748,verb_norming_L1-swe_no_translation,001,805,
BINDA,Armar/händer,armar/händer,0,71,71,2,0,1,1,1,7,0.706,,,2018_Sep_12_1529,59.6289821748,verb_norming_L1-swe_no_translation,001,805,
BINDA,,,0,71,71,2,,,,,,,,,2018_Sep_12_1529,59.6289821748,verb_norming_L1-swe_no_translation,001,805,
GLIDA,Ben/fötter,ben/fötter,0,72,72,107,0,0,0,0,5,5.165,,,2018_Sep_12_1529,59.6289821748,verb_norming_L1-swe_no_translation,001,805,
GLIDA,Armar/händer,armar/händer,0,72,72,107,0,1,1,1,3,4.696,,,2018_Sep_12_1529,59.6289821748,verb_norming_L1-swe_no_translation,001,805,
GLIDA,,,0,72,72,107,,,,,,,,,2018_Sep_12_1529,59.6289821748,verb_norming_L1-swe_no_translation,001,805,
SVEPA,Ben/fötter,ben/fötter,0,73,73,91,0,0,0,0,3,4.764,,,2018_Sep_12_1529,59.6289821748,verb_norming_L1-swe_no_translation,001,805,
SVEPA,Armar/händer,armar/händer,0,73,73,91,0,1,1,1,3,1.595,,,2018_Sep_12_1529,59.6289821748,verb_norming_L1-swe_no_translation,001,805,
SVEPA,,,0,73,73,91,,,,,,,,,2018_Sep_12_1529,59.6289821748,verb_norming_L1-swe_no_translation,001,805,
PUTTA,Ben/fötter,ben/fötter,0,74,74,57,0,0,0,0,3,2.817,,,2018_Sep_12_1529,59.6289821748,verb_norming_L1-swe_no_translation,001,805,
PUTTA,Armar/händer,armar/händer,0,74,74,57,0,1,1,1,7,2.348,,,2018_Sep_12_1529,59.6289821748,verb_norming_L1-swe_no_translation,001,805,
PUTTA,,,0,74,74,57,,,,,,,,,2018_Sep_12_1529,59.6289821748,verb_norming_L1-swe_no_translation,001,805,
TRUMMA,Ben/fötter,ben/fötter,0,75,75,94,0,0,0,0,1,5.484,,,2018_Sep_12_1529,59.6289821748,verb_norming_L1-swe_no_translation,001,805,
TRUMMA,Armar/händer,armar/händer,0,75,75,94,0,1,1,1,7,1.225,,,2018_Sep_12_1529,59.6289821748,verb_norming_L1-swe_no_translation,001,805,
TRUMMA,,,0,75,75,94,,,,,,,,,2018_Sep_12_1529,59.6289821748,verb_norming_L1-swe_no_translation,001,805,
KNYCKA,Ben/fötter,ben/fötter,0,76,76,39,0,0,0,0,1,4.309,,,2018_Sep_12_1529,59.6289821748,verb_norming_L1-swe_no_translation,001,805,
KNYCKA,Armar/händer,armar/händer,0,76,76,39,0,1,1,1,5,1.61,,,2018_Sep_12_1529,59.6289821748,verb_norming_L1-swe_no_translation,001,805,
KNYCKA,,,0,76,76,39,,,,,,,,,2018_Sep_12_1529,59.6289821748,verb_norming_L1-swe_no_translation,001,805,
ÅLA,Ben/fötter,ben/fötter,0,77,77,100,0,0,0,0,5,3.96,,,2018_Sep_12_1529,59.6289821748,verb_norming_L1-swe_no_translation,001,805,
ÅLA,Armar/händer,armar/händer,0,77,77,100,0,1,1,1,5,0.44,,,2018_Sep_12_1529,59.6289821748,verb_norming_L1-swe_no_translation,001,805,
ÅLA,,,0,77,77,100,,,,,,,,,2018_Sep_12_1529,59.6289821748,verb_norming_L1-swe_no_translation,001,805,
KNACKA,Ben/fötter,ben/fötter,0,78,78,36,0,0,0,0,1,4.075,,,2018_Sep_12_1529,59.6289821748,verb_norming_L1-swe_no_translation,001,805,
KNACKA,Armar/händer,armar/händer,0,78,78,36,0,1,1,1,7,0.989,,,2018_Sep_12_1529,59.6289821748,verb_norming_L1-swe_no_translation,001,805,
KNACKA,,,0,78,78,36,,,,,,,,,2018_Sep_12_1529,59.6289821748,verb_norming_L1-swe_no_translation,001,805,
GNIDA,Ben/fötter,ben/fötter,0,79,79,14,0,0,0,0,2,9.744,,,2018_Sep_12_1529,59.6289821748,verb_norming_L1-swe_no_translation,001,805,
GNIDA,Armar/händer,armar/händer,0,79,79,14,0,1,1,1,6,5.501,,,2018_Sep_12_1529,59.6289821748,verb_norming_L1-swe_no_translation,001,805,
GNIDA,,,0,79,79,14,,,,,,,,,2018_Sep_12_1529,59.6289821748,verb_norming_L1-swe_no_translation,001,805,
SMYGA,Ben/fötter,ben/fötter,0,80,80,141,0,0,0,0,7,5.618,,,2018_Sep_12_1529,59.6289821748,verb_norming_L1-swe_no_translation,001,805,
SMYGA,Armar/händer,armar/händer,0,80,80,141,0,1,1,1,1,2.415,,,2018_Sep_12_1529,59.6289821748,verb_norming_L1-swe_no_translation,001,805,
SMYGA,,,0,80,80,141,,,,,,,,,2018_Sep_12_1529,59.6289821748,verb_norming_L1-swe_no_translation,001,805,
SKRAPA,Ben/fötter,ben/fötter,0,81,81,74,0,0,0,0,2,2.801,,,2018_Sep_12_1529,59.6289821748,verb_norming_L1-swe_no_translation,001,805,
SKRAPA,Armar/händer,armar/händer,0,81,81,74,0,1,1,1,7,0.74,,,2018_Sep_12_1529,59.6289821748,verb_norming_L1-swe_no_translation,001,805,
SKRAPA,,,0,81,81,74,,,,,,,,,2018_Sep_12_1529,59.6289821748,verb_norming_L1-swe_no_translation,001,805,
STÖTA,Ben/fötter,ben/fötter,0,82,82,89,0,0,0,0,2,3.691,,,2018_Sep_12_1529,59.6289821748,verb_norming_L1-swe_no_translation,001,805,
STÖTA,Armar/händer,armar/händer,0,82,82,89,0,1,1,1,7,0.556,,,2018_Sep_12_1529,59.6289821748,verb_norming_L1-swe_no_translation,001,805,
STÖTA,,,0,82,82,89,,,,,,,,,2018_Sep_12_1529,59.6289821748,verb_norming_L1-swe_no_translation,001,805,
SIGNERA,Ben/fötter,ben/fötter,0,83,83,68,0,0,0,0,1,2.347,,,2018_Sep_12_1529,59.6289821748,verb_norming_L1-swe_no_translation,001,805,
SIGNERA,Armar/händer,armar/händer,0,83,83,68,0,1,1,1,7,0.671,,,2018_Sep_12_1529,59.6289821748,verb_norming_L1-swe_no_translation,001,805,
SIGNERA,,,0,83,83,68,,,,,,,,,2018_Sep_12_1529,59.6289821748,verb_norming_L1-swe_no_translation,001,805,
FLY,Ben/fötter,ben/fötter,0,84,84,105,0,0,0,0,7,3.674,,,2018_Sep_12_1529,59.6289821748,verb_norming_L1-swe_no_translation,001,805,
FLY,Armar/händer,armar/händer,0,84,84,105,0,1,1,1,1,1.813,,,2018_Sep_12_1529,59.6289821748,verb_norming_L1-swe_no_translation,001,805,
FLY,,,0,84,84,105,,,,,,,,,2018_Sep_12_1529,59.6289821748,verb_norming_L1-swe_no_translation,001,805,
PROMENERA,Ben/fötter,ben/fötter,0,85,85,129,0,0,0,0,7,5.584,,,2018_Sep_12_1529,59.6289821748,verb_norming_L1-swe_no_translation,001,805,
PROMENERA,Armar/händer,armar/händer,0,85,85,129,0,1,1,1,1,0.705,,,2018_Sep_12_1529,59.6289821748,verb_norming_L1-swe_no_translation,001,805,
PROMENERA,,,0,85,85,129,,,,,,,,,2018_Sep_12_1529,59.6289821748,verb_norming_L1-swe_no_translation,001,805,
BULTA,Ben/fötter,ben/fötter,0,86,86,4,0,0,0,0,1,4.66,,,2018_Sep_12_1529,59.6289821748,verb_norming_L1-swe_no_translation,001,805,
BULTA,Armar/händer,armar/händer,0,86,86,4,0,1,1,1,2,1.124,,,2018_Sep_12_1529,59.6289821748,verb_norming_L1-swe_no_translation,001,805,
BULTA,,,0,86,86,4,,,,,,,,,2018_Sep_12_1529,59.6289821748,verb_norming_L1-swe_no_translation,001,805,
SVABBA,Ben/fötter,ben/fötter,0,87,87,90,0,0,0,0,1,4.009,,,2018_Sep_12_1529,59.6289821748,verb_norming_L1-swe_no_translation,001,805,
SVABBA,Armar/händer,armar/händer,0,87,87,90,0,1,1,1,7,2.45,,,2018_Sep_12_1529,59.6289821748,verb_norming_L1-swe_no_translation,001,805,
SVABBA,,,0,87,87,90,,,,,,,,,2018_Sep_12_1529,59.6289821748,verb_norming_L1-swe_no_translation,001,805,
RYCKA,Ben/fötter,ben/fötter,0,88,88,67,0,0,0,0,2,6.172,,,2018_Sep_12_1529,59.6289821748,verb_norming_L1-swe_no_translation,001,805,
RYCKA,Armar/händer,armar/händer,0,88,88,67,0,1,1,1,5,1.828,,,2018_Sep_12_1529,59.6289821748,verb_norming_L1-swe_no_translation,001,805,
RYCKA,,,0,88,88,67,,,,,,,,,2018_Sep_12_1529,59.6289821748,verb_norming_L1-swe_no_translation,001,805,
RÄNNA,Ben/fötter,ben/fötter,0,89,89,131,0,0,0,0,6,5.905,,,2018_Sep_12_1529,59.6289821748,verb_norming_L1-swe_no_translation,001,805,
RÄNNA,Armar/händer,armar/händer,0,89,89,131,0,1,1,1,1,6.09,,,2018_Sep_12_1529,59.6289821748,verb_norming_L1-swe_no_translation,001,805,
RÄNNA,,,0,89,89,131,,,,,,,,,2018_Sep_12_1529,59.6289821748,verb_norming_L1-swe_no_translation,001,805,
LÖPA,Ben/fötter,ben/fötter,0,90,90,125,0,0,0,0,7,1.78,,,2018_Sep_12_1529,59.6289821748,verb_norming_L1-swe_no_translation,001,805,
LÖPA,Armar/händer,armar/händer,0,90,90,125,0,1,1,1,1,0.556,,,2018_Sep_12_1529,59.6289821748,verb_norming_L1-swe_no_translation,001,805,
LÖPA,,,0,90,90,125,,,,,,,,,2018_Sep_12_1529,59.6289821748,verb_norming_L1-swe_no_translation,001,805,
SNUBBLA,Ben/fötter,ben/fötter,0,91,91,143,0,0,0,0,7,1.441,,,2018_Sep_12_1529,59.6289821748,verb_norming_L1-swe_no_translation,001,805,
SNUBBLA,Armar/händer,armar/händer,0,91,91,143,0,1,1,1,1,2.045,,,2018_Sep_12_1529,59.6289821748,verb_norming_L1-swe_no_translation,001,805,
SNUBBLA,,,0,91,91,143,,,,,,,,,2018_Sep_12_1529,59.6289821748,verb_norming_L1-swe_no_translation,001,805,
KRATSA,Ben/fötter,ben/fötter,0,92,92,42,0,0,0,0,4,21.887,,,2018_Sep_12_1529,59.6289821748,verb_norming_L1-swe_no_translation,001,805,
KRATSA,Armar/händer,armar/händer,0,92,92,42,0,1,1,1,4,0.622,,,2018_Sep_12_1529,59.6289821748,verb_norming_L1-swe_no_translation,001,805,
KRATSA,,,0,92,92,42,,,,,,,,,2018_Sep_12_1529,59.6289821748,verb_norming_L1-swe_no_translation,001,805,
FLANERA,Ben/fötter,ben/fötter,0,93,93,104,0,0,0,0,7,3.824,,,2018_Sep_12_1529,59.6289821748,verb_norming_L1-swe_no_translation,001,805,
FLANERA,Armar/händer,armar/händer,0,93,93,104,0,1,1,1,1,0.806,,,2018_Sep_12_1529,59.6289821748,verb_norming_L1-swe_no_translation,001,805,
FLANERA,,,0,93,93,104,,,,,,,,,2018_Sep_12_1529,59.6289821748,verb_norming_L1-swe_no_translation,001,805,
RAGLA,Ben/fötter,ben/fötter,0,94,94,130,0,0,0,0,7,2.8,,,2018_Sep_12_1529,59.6289821748,verb_norming_L1-swe_no_translation,001,805,
RAGLA,Armar/händer,armar/händer,0,94,94,130,0,1,1,1,1,1.124,,,2018_Sep_12_1529,59.6289821748,verb_norming_L1-swe_no_translation,001,805,
RAGLA,,,0,94,94,130,,,,,,,,,2018_Sep_12_1529,59.6289821748,verb_norming_L1-swe_no_translation,001,805,
STAMPA,Ben/fötter,ben/fötter,0,95,95,148,0,0,0,0,7,2.08,,,2018_Sep_12_1529,59.6289821748,verb_norming_L1-swe_no_translation,001,805,
STAMPA,Armar/händer,armar/händer,0,95,95,148,0,1,1,1,1,1.678,,,2018_Sep_12_1529,59.6289821748,verb_norming_L1-swe_no_translation,001,805,
STAMPA,,,0,95,95,148,,,,,,,,,2018_Sep_12_1529,59.6289821748,verb_norming_L1-swe_no_translation,001,805,
SVASSA,Ben/fötter,ben/fötter,0,96,96,157,0,0,0,0,7,2.517,,,2018_Sep_12_1529,59.6289821748,verb_norming_L1-swe_no_translation,001,805,
SVASSA,Armar/händer,armar/händer,0,96,96,157,0,1,1,1,1,0.604,,,2018_Sep_12_1529,59.6289821748,verb_norming_L1-swe_no_translation,001,805,
SVASSA,,,0,96,96,157,,,,,,,,,2018_Sep_12_1529,59.6289821748,verb_norming_L1-swe_no_translation,001,805,
LINKA,Ben/fötter,ben/fötter,0,97,97,124,0,0,0,0,1,5.838,,,2018_Sep_12_1529,59.6289821748,verb_norming_L1-swe_no_translation,001,805,
LINKA,Armar/händer,armar/händer,0,97,97,124,0,1,1,1,4,2.534,,,2018_Sep_12_1529,59.6289821748,verb_norming_L1-swe_no_translation,001,805,
LINKA,,,0,97,97,124,,,,,,,,,2018_Sep_12_1529,59.6289821748,verb_norming_L1-swe_no_translation,001,805,
TRASKA,Ben/fötter,ben/fötter,0,98,98,162,0,0,0,0,7,1.93,,,2018_Sep_12_1529,59.6289821748,verb_norming_L1-swe_no_translation,001,805,
TRASKA,Armar/händer,armar/händer,0,98,98,162,0,1,1,1,1,1.041,,,2018_Sep_12_1529,59.6289821748,verb_norming_L1-swe_no_translation,001,805,
TRASKA,,,0,98,98,162,,,,,,,,,2018_Sep_12_1529,59.6289821748,verb_norming_L1-swe_no_translation,001,805,
TVÄTTA,Ben/fötter,ben/fötter,0,99,99,96,0,0,0,0,1,2.684,,,2018_Sep_12_1529,59.6289821748,verb_norming_L1-swe_no_translation,001,805,
TVÄTTA,Armar/händer,armar/händer,0,99,99,96,0,1,1,1,7,1.025,,,2018_Sep_12_1529,59.6289821748,verb_norming_L1-swe_no_translation,001,805,
TVÄTTA,,,0,99,99,96,,,,,,,,,2018_Sep_12_1529,59.6289821748,verb_norming_L1-swe_no_translation,001,805,
SNO,Ben/fötter,ben/fötter,0,100,100,87,0,0,0,0,1,3.24,,,2018_Sep_12_1529,59.6289821748,verb_norming_L1-swe_no_translation,001,805,
SNO,Armar/händer,armar/händer,0,100,100,87,0,1,1,1,6,1.362,,,2018_Sep_12_1529,59.6289821748,verb_norming_L1-swe_no_translation,001,805,
SNO,,,0,100,100,87,,,,,,,,,2018_Sep_12_1529,59.6289821748,verb_norming_L1-swe_no_translation,001,805,
VIRA,Ben/fötter,ben/fötter,0,101,101,99,0,0,0,0,2,12.446,,,2018_Sep_12_1529,59.6289821748,verb_norming_L1-swe_no_translation,001,805,
VIRA,Armar/händer,armar/händer,0,101,101,99,0,1,1,1,6,0.808,,,2018_Sep_12_1529,59.6289821748,verb_norming_L1-swe_no_translation,001,805,
VIRA,,,0,101,101,99,,,,,,,,,2018_Sep_12_1529,59.6289821748,verb_norming_L1-swe_no_translation,001,805,
SKUTTA,Ben/fötter,ben/fötter,0,102,102,137,0,0,0,0,7,4.008,,,2018_Sep_12_1529,59.6289821748,verb_norming_L1-swe_no_translation,001,805,
SKUTTA,Armar/händer,armar/händer,0,102,102,137,0,1,1,1,1,0.436,,,2018_Sep_12_1529,59.6289821748,verb_norming_L1-swe_no_translation,001,805,
SKUTTA,,,0,102,102,137,,,,,,,,,2018_Sep_12_1529,59.6289821748,verb_norming_L1-swe_no_translation,001,805,
JOGGA,Ben/fötter,ben/fötter,0,103,103,114,0,0,0,0,7,3.387,,,2018_Sep_12_1529,59.6289821748,verb_norming_L1-swe_no_translation,001,805,
JOGGA,Armar/händer,armar/händer,0,103,103,114,0,1,1,1,1,0.57,,,2018_Sep_12_1529,59.6289821748,verb_norming_L1-swe_no_translation,001,805,
JOGGA,,,0,103,103,114,,,,,,,,,2018_Sep_12_1529,59.6289821748,verb_norming_L1-swe_no_translation,001,805,
KNATA,Ben/fötter,ben/fötter,0,104,104,120,0,0,0,0,7,2.534,,,2018_Sep_12_1529,59.6289821748,verb_norming_L1-swe_no_translation,001,805,
KNATA,Armar/händer,armar/händer,0,104,104,120,0,1,1,1,1,0.472,,,2018_Sep_12_1529,59.6289821748,verb_norming_L1-swe_no_translation,001,805,
KNATA,,,0,104,104,120,,,,,,,,,2018_Sep_12_1529,59.6289821748,verb_norming_L1-swe_no_translation,001,805,
LUNKA,Ben/fötter,ben/fötter,0,105,105,126,0,0,0,0,7,1.509,,,2018_Sep_12_1529,59.6289821748,verb_norming_L1-swe_no_translation,001,805,
LUNKA,Armar/händer,armar/händer,0,105,105,126,0,1,1,1,1,0.805,,,2018_Sep_12_1529,59.6289821748,verb_norming_L1-swe_no_translation,001,805,
LUNKA,,,0,105,105,126,,,,,,,,,2018_Sep_12_1529,59.6289821748,verb_norming_L1-swe_no_translation,001,805,
FLÄTA,Ben/fötter,ben/fötter,0,106,106,11,0,0,0,0,1,1.477,,,2018_Sep_12_1529,59.6289821748,verb_norming_L1-swe_no_translation,001,805,
FLÄTA,Armar/händer,armar/händer,0,106,106,11,0,1,1,1,7,0.455,,,2018_Sep_12_1529,59.6289821748,verb_norming_L1-swe_no_translation,001,805,
FLÄTA,,,0,106,106,11,,,,,,,,,2018_Sep_12_1529,59.6289821748,verb_norming_L1-swe_no_translation,001,805,
SNAVA,Ben/fötter,ben/fötter,0,107,107,142,0,0,0,0,7,1.694,,,2018_Sep_12_1529,59.6289821748,verb_norming_L1-swe_no_translation,001,805,
SNAVA,Armar/händer,armar/händer,0,107,107,142,0,1,1,1,1,1.428,,,2018_Sep_12_1529,59.6289821748,verb_norming_L1-swe_no_translation,001,805,
SNAVA,,,0,107,107,142,,,,,,,,,2018_Sep_12_1529,59.6289821748,verb_norming_L1-swe_no_translation,001,805,
KILA,Ben/fötter,ben/fötter,0,108,108,115,0,0,0,0,6,3.407,,,2018_Sep_12_1529,59.6289821748,verb_norming_L1-swe_no_translation,001,805,
KILA,Armar/händer,armar/händer,0,108,108,115,0,1,1,1,1,1.546,,,2018_Sep_12_1529,59.6289821748,verb_norming_L1-swe_no_translation,001,805,
KILA,,,0,108,108,115,,,,,,,,,2018_Sep_12_1529,59.6289821748,verb_norming_L1-swe_no_translation,001,805,
VINGLA,Ben/fötter,ben/fötter,0,109,109,168,0,0,0,0,7,1.811,,,2018_Sep_12_1529,59.6289821748,verb_norming_L1-swe_no_translation,001,805,
VINGLA,Armar/händer,armar/händer,0,109,109,168,0,1,1,1,1,0.604,,,2018_Sep_12_1529,59.6289821748,verb_norming_L1-swe_no_translation,001,805,
VINGLA,,,0,109,109,168,,,,,,,,,2018_Sep_12_1529,59.6289821748,verb_norming_L1-swe_no_translation,001,805,
SLÄNTRA,Ben/fötter,ben/fötter,0,110,110,139,0,0,0,0,6,3.791,,,2018_Sep_12_1529,59.6289821748,verb_norming_L1-swe_no_translation,001,805,
SLÄNTRA,Armar/händer,armar/händer,0,110,110,139,0,1,1,1,1,0.62,,,2018_Sep_12_1529,59.6289821748,verb_norming_L1-swe_no_translation,001,805,
SLÄNTRA,,,0,110,110,139,,,,,,,,,2018_Sep_12_1529,59.6289821748,verb_norming_L1-swe_no_translation,001,805,
DANSA,Ben/fötter,ben/fötter,0,111,111,102,0,0,0,0,5,4.597,,,2018_Sep_12_1529,59.6289821748,verb_norming_L1-swe_no_translation,001,805,
DANSA,Armar/händer,armar/händer,0,111,111,102,0,1,1,1,5,0.522,,,2018_Sep_12_1529,59.6289821748,verb_norming_L1-swe_no_translation,001,805,
DANSA,,,0,111,111,102,,,,,,,,,2018_Sep_12_1529,59.6289821748,verb_norming_L1-swe_no_translation,001,805,
SKJUTA,Ben/fötter,ben/fötter,0,112,112,72,0,0,0,0,2,9.677,,,2018_Sep_12_1529,59.6289821748,verb_norming_L1-swe_no_translation,001,805,
SKJUTA,Armar/händer,armar/händer,0,112,112,72,0,1,1,1,6,1.643,,,2018_Sep_12_1529,59.6289821748,verb_norming_L1-swe_no_translation,001,805,
SKJUTA,,,0,112,112,72,,,,,,,,,2018_Sep_12_1529,59.6289821748,verb_norming_L1-swe_no_translation,001,805,
TÅGA,Ben/fötter,ben/fötter,0,113,113,158,0,0,0,0,7,2.298,,,2018_Sep_12_1529,59.6289821748,verb_norming_L1-swe_no_translation,001,805,
TÅGA,Armar/händer,armar/händer,0,113,113,158,0,1,1,1,1,2.349,,,2018_Sep_12_1529,59.6289821748,verb_norming_L1-swe_no_translation,001,805,
TÅGA,,,0,113,113,158,,,,,,,,,2018_Sep_12_1529,59.6289821748,verb_norming_L1-swe_no_translation,001,805,
LYFTA,Ben/fötter,ben/fötter,0,114,114,44,0,0,0,0,2,7.127,,,2018_Sep_12_1529,59.6289821748,verb_norming_L1-swe_no_translation,001,805,
LYFTA,Armar/händer,armar/händer,0,114,114,44,0,1,1,1,6,1.308,,,2018_Sep_12_1529,59.6289821748,verb_norming_L1-swe_no_translation,001,805,
LYFTA,,,0,114,114,44,,,,,,,,,2018_Sep_12_1529,59.6289821748,verb_norming_L1-swe_no_translation,001,805,
RO,Ben/fötter,ben/fötter,0,115,115,64,0,0,0,0,1,2.116,,,2018_Sep_12_1529,59.6289821748,verb_norming_L1-swe_no_translation,001,805,
RO,Armar/händer,armar/händer,0,115,115,64,0,1,1,1,7,0.59,,,2018_Sep_12_1529,59.6289821748,verb_norming_L1-swe_no_translation,001,805,
RO,,,0,115,115,64,,,,,,,,,2018_Sep_12_1529,59.6289821748,verb_norming_L1-swe_no_translation,001,805,
TORKA,Ben/fötter,ben/fötter,0,116,116,93,0,0,0,0,1,1.897,,,2018_Sep_12_1529,59.6289821748,verb_norming_L1-swe_no_translation,001,805,
TORKA,Armar/händer,armar/händer,0,116,116,93,0,1,1,1,7,0.688,,,2018_Sep_12_1529,59.6289821748,verb_norming_L1-swe_no_translation,001,805,
TORKA,,,0,116,116,93,,,,,,,,,2018_Sep_12_1529,59.6289821748,verb_norming_L1-swe_no_translation,001,805,
RIVA,Ben/fötter,ben/fötter,0,117,117,63,0,0,0,0,2,3.843,,,2018_Sep_12_1529,59.6289821748,verb_norming_L1-swe_no_translation,001,805,
RIVA,Armar/händer,armar/händer,0,117,117,63,0,1,1,1,7,0.521,,,2018_Sep_12_1529,59.6289821748,verb_norming_L1-swe_no_translation,001,805,
RIVA,,,0,117,117,63,,,,,,,,,2018_Sep_12_1529,59.6289821748,verb_norming_L1-swe_no_translation,001,805,
KLIVA,Ben/fötter,ben/fötter,0,118,118,117,0,0,0,0,7,3.893,,,2018_Sep_12_1529,59.6289821748,verb_norming_L1-swe_no_translation,001,805,
KLIVA,Armar/händer,armar/händer,0,118,118,117,0,1,1,1,1,0.723,,,2018_Sep_12_1529,59.6289821748,verb_norming_L1-swe_no_translation,001,805,
KLIVA,,,0,118,118,117,,,,,,,,,2018_Sep_12_1529,59.6289821748,verb_norming_L1-swe_no_translation,001,805,
CYKLA,Ben/fötter,ben/fötter,0,119,119,101,0,0,0,0,7,3.908,,,2018_Sep_12_1529,59.6289821748,verb_norming_L1-swe_no_translation,001,805,
CYKLA,Armar/händer,armar/händer,0,119,119,101,0,1,1,1,2,2.701,,,2018_Sep_12_1529,59.6289821748,verb_norming_L1-swe_no_translation,001,805,
CYKLA,,,0,119,119,101,,,,,,,,,2018_Sep_12_1529,59.6289821748,verb_norming_L1-swe_no_translation,001,805,
ÖSA,Ben/fötter,ben/fötter,0,120,120,48,0,0,0,0,1,2.367,,,2018_Sep_12_1529,59.6289821748,verb_norming_L1-swe_no_translation,001,805,
ÖSA,Armar/händer,armar/händer,0,120,120,48,0,1,1,1,7,0.993,,,2018_Sep_12_1529,59.6289821748,verb_norming_L1-swe_no_translation,001,805,
ÖSA,,,0,120,120,48,,,,,,,,,2018_Sep_12_1529,59.6289821748,verb_norming_L1-swe_no_translation,001,805,
SPRINTA,Ben/fötter,ben/fötter,0,121,121,146,0,0,0,0,7,2.331,,,2018_Sep_12_1529,59.6289821748,verb_norming_L1-swe_no_translation,001,805,
SPRINTA,Armar/händer,armar/händer,0,121,121,146,0,1,1,1,1,0.437,,,2018_Sep_12_1529,59.6289821748,verb_norming_L1-swe_no_translation,001,805,
SPRINTA,,,0,121,121,146,,,,,,,,,2018_Sep_12_1529,59.6289821748,verb_norming_L1-swe_no_translation,001,805,
SLITA,Ben/fötter,ben/fötter,0,122,122,82,0,0,0,0,1,7.582,,,2018_Sep_12_1529,59.6289821748,verb_norming_L1-swe_no_translation,001,805,
SLITA,Armar/händer,armar/händer,0,122,122,82,0,1,1,1,7,1.696,,,2018_Sep_12_1529,59.6289821748,verb_norming_L1-swe_no_translation,001,805,
SLITA,,,0,122,122,82,,,,,,,,,2018_Sep_12_1529,59.6289821748,verb_norming_L1-swe_no_translation,001,805,
RUSA,Ben/fötter,ben/fötter,0,123,123,134,0,0,0,0,7,1.426,,,2018_Sep_12_1529,59.6289821748,verb_norming_L1-swe_no_translation,001,805,
RUSA,Armar/händer,armar/händer,0,123,123,134,0,1,1,1,1,0.939,,,2018_Sep_12_1529,59.6289821748,verb_norming_L1-swe_no_translation,001,805,
RUSA,,,0,123,123,134,,,,,,,,,2018_Sep_12_1529,59.6289821748,verb_norming_L1-swe_no_translation,001,805,
SPRINGA,Ben/fötter,ben/fötter,0,124,124,145,0,0,0,0,7,2.984,,,2018_Sep_12_1529,59.6289821748,verb_norming_L1-swe_no_translation,001,805,
SPRINGA,Armar/händer,armar/händer,0,124,124,145,0,1,1,1,1,0.502,,,2018_Sep_12_1529,59.6289821748,verb_norming_L1-swe_no_translation,001,805,
SPRINGA,,,0,124,124,145,,,,,,,,,2018_Sep_12_1529,59.6289821748,verb_norming_L1-swe_no_translation,001,805,
NYPA,Ben/fötter,ben/fötter,0,125,125,47,0,0,0,0,1,1.946,,,2018_Sep_12_1529,59.6289821748,verb_norming_L1-swe_no_translation,001,805,
NYPA,Armar/händer,armar/händer,0,125,125,47,0,1,1,1,7,0.554,,,2018_Sep_12_1529,59.6289821748,verb_norming_L1-swe_no_translation,001,805,
NYPA,,,0,125,125,47,,,,,,,,,2018_Sep_12_1529,59.6289821748,verb_norming_L1-swe_no_translation,001,805,
BANKA,Ben/fötter,ben/fötter,0,126,126,1,0,0,0,0,1,8.722,,,2018_Sep_12_1529,59.6289821748,verb_norming_L1-swe_no_translation,001,805,
BANKA,Armar/händer,armar/händer,0,126,126,1,0,1,1,1,7,1.276,,,2018_Sep_12_1529,59.6289821748,verb_norming_L1-swe_no_translation,001,805,
BANKA,,,0,126,126,1,,,,,,,,,2018_Sep_12_1529,59.6289821748,verb_norming_L1-swe_no_translation,001,805,
HIVA,Ben/fötter,ben/fötter,0,127,127,24,0,0,0,0,1,2.669,,,2018_Sep_12_1529,59.6289821748,verb_norming_L1-swe_no_translation,001,805,
HIVA,Armar/händer,armar/händer,0,127,127,24,0,1,1,1,7,0.573,,,2018_Sep_12_1529,59.6289821748,verb_norming_L1-swe_no_translation,001,805,
HIVA,,,0,127,127,24,,,,,,,,,2018_Sep_12_1529,59.6289821748,verb_norming_L1-swe_no_translation,001,805,
FÅNGA,Ben/fötter,ben/fötter,0,128,128,8,0,0,0,0,1,2.061,,,2018_Sep_12_1529,59.6289821748,verb_norming_L1-swe_no_translation,001,805,
FÅNGA,Armar/händer,armar/händer,0,128,128,8,0,1,1,1,7,0.437,,,2018_Sep_12_1529,59.6289821748,verb_norming_L1-swe_no_translation,001,805,
FÅNGA,,,0,128,128,8,,,,,,,,,2018_Sep_12_1529,59.6289821748,verb_norming_L1-swe_no_translation,001,805,
KNOGA,Ben/fötter,ben/fötter,0,129,129,121,0,0,0,0,1,4.763,,,2018_Sep_12_1529,59.6289821748,verb_norming_L1-swe_no_translation,001,805,
KNOGA,Armar/händer,armar/händer,0,129,129,121,0,1,1,1,6,0.821,,,2018_Sep_12_1529,59.6289821748,verb_norming_L1-swe_no_translation,001,805,
KNOGA,,,0,129,129,121,,,,,,,,,2018_Sep_12_1529,59.6289821748,verb_norming_L1-swe_no_translation,001,805,
SLUNGA,Ben/fötter,ben/fötter,0,130,130,83,0,0,0,0,1,11.453,,,2018_Sep_12_1529,59.6289821748,verb_norming_L1-swe_no_translation,001,805,
SLUNGA,Armar/händer,armar/händer,0,130,130,83,0,1,1,1,6,0.737,,,2018_Sep_12_1529,59.6289821748,verb_norming_L1-swe_no_translation,001,805,
SLUNGA,,,0,130,130,83,,,,,,,,,2018_Sep_12_1529,59.6289821748,verb_norming_L1-swe_no_translation,001,805,
BORSTA,Ben/fötter,ben/fötter,0,131,131,3,0,0,0,0,1,2.416,,,2018_Sep_12_1529,59.6289821748,verb_norming_L1-swe_no_translation,001,805,
BORSTA,Armar/händer,armar/händer,0,131,131,3,0,1,1,1,7,1.595,,,2018_Sep_12_1529,59.6289821748,verb_norming_L1-swe_no_translation,001,805,
BORSTA,,,0,131,131,3,,,,,,,,,2018_Sep_12_1529,59.6289821748,verb_norming_L1-swe_no_translation,001,805,
GNUGGA,Ben/fötter,ben/fötter,0,132,132,15,0,0,0,0,1,2.414,,,2018_Sep_12_1529,59.6289821748,verb_norming_L1-swe_no_translation,001,805,
GNUGGA,Armar/händer,armar/händer,0,132,132,15,0,1,1,1,7,1.107,,,2018_Sep_12_1529,59.6289821748,verb_norming_L1-swe_no_translation,001,805,
GNUGGA,,,0,132,132,15,,,,,,,,,2018_Sep_12_1529,59.6289821748,verb_norming_L1-swe_no_translation,001,805,
SLÅ,Ben/fötter,ben/fötter,0,133,133,79,0,0,0,0,1,1.831,,,2018_Sep_12_1529,59.6289821748,verb_norming_L1-swe_no_translation,001,805,
SLÅ,Armar/händer,armar/händer,0,133,133,79,0,1,1,1,7,0.423,,,2018_Sep_12_1529,59.6289821748,verb_norming_L1-swe_no_translation,001,805,
SLÅ,,,0,133,133,79,,,,,,,,,2018_Sep_12_1529,59.6289821748,verb_norming_L1-swe_no_translation,001,805,
TVINNA,Ben/fötter,ben/fötter,0,134,134,97,0,0,0,0,1,2.718,,,2018_Sep_12_1529,59.6289821748,verb_norming_L1-swe_no_translation,001,805,
TVINNA,Armar/händer,armar/händer,0,134,134,97,0,1,1,1,7,0.924,,,2018_Sep_12_1529,59.6289821748,verb_norming_L1-swe_no_translation,001,805,
TVINNA,,,0,134,134,97,,,,,,,,,2018_Sep_12_1529,59.6289821748,verb_norming_L1-swe_no_translation,001,805,
KNIVHUGGA,Ben/fötter,ben/fötter,0,135,135,38,0,0,0,0,1,4.341,,,2018_Sep_12_1529,59.6289821748,verb_norming_L1-swe_no_translation,001,805,
KNIVHUGGA,Armar/händer,armar/händer,0,135,135,38,0,1,1,1,7,0.619,,,2018_Sep_12_1529,59.6289821748,verb_norming_L1-swe_no_translation,001,805,
KNIVHUGGA,,,0,135,135,38,,,,,,,,,2018_Sep_12_1529,59.6289821748,verb_norming_L1-swe_no_translation,001,805,
KLÄTTRA,Ben/fötter,ben/fötter,0,136,136,116,0,0,0,0,5,4.328,,,2018_Sep_12_1529,59.6289821748,verb_norming_L1-swe_no_translation,001,805,
KLÄTTRA,Armar/händer,armar/händer,0,136,136,116,0,1,1,1,6,1.426,,,2018_Sep_12_1529,59.6289821748,verb_norming_L1-swe_no_translation,001,805,
KLÄTTRA,,,0,136,136,116,,,,,,,,,2018_Sep_12_1529,59.6289821748,verb_norming_L1-swe_no_translation,001,805,
KLICKA,Ben/fötter,ben/fötter,0,137,137,33,0,0,0,0,1,2.179,,,2018_Sep_12_1529,59.6289821748,verb_norming_L1-swe_no_translation,001,805,
KLICKA,Armar/händer,armar/händer,0,137,137,33,0,1,1,1,7,0.554,,,2018_Sep_12_1529,59.6289821748,verb_norming_L1-swe_no_translation,001,805,
KLICKA,,,0,137,137,33,,,,,,,,,2018_Sep_12_1529,59.6289821748,verb_norming_L1-swe_no_translation,001,805,
FATTA,Ben/fötter,ben/fötter,0,138,138,9,0,0,0,0,1,4.161,,,2018_Sep_12_1529,59.6289821748,verb_norming_L1-swe_no_translation,001,805,
FATTA,Armar/händer,armar/händer,0,138,138,9,0,1,1,1,5,2.685,,,2018_Sep_12_1529,59.6289821748,verb_norming_L1-swe_no_translation,001,805,
FATTA,,,0,138,138,9,,,,,,,,,2018_Sep_12_1529,59.6289821748,verb_norming_L1-swe_no_translation,001,805,
SKAKA,Ben/fötter,ben/fötter,0,139,139,69,0,0,0,0,4,3.825,,,2018_Sep_12_1529,59.6289821748,verb_norming_L1-swe_no_translation,001,805,
SKAKA,Armar/händer,armar/händer,0,139,139,69,0,1,1,1,6,1.545,,,2018_Sep_12_1529,59.6289821748,verb_norming_L1-swe_no_translation,001,805,
SKAKA,,,0,139,139,69,,,,,,,,,2018_Sep_12_1529,59.6289821748,verb_norming_L1-swe_no_translation,001,805,
SVAJA,Ben/fötter,ben/fötter,0,140,140,156,0,0,0,0,6,3.239,,,2018_Sep_12_1529,59.6289821748,verb_norming_L1-swe_no_translation,001,805,
SVAJA,Armar/händer,armar/händer,0,140,140,156,0,1,1,1,2,1.126,,,2018_Sep_12_1529,59.6289821748,verb_norming_L1-swe_no_translation,001,805,
SVAJA,,,0,140,140,156,,,,,,,,,2018_Sep_12_1529,59.6289821748,verb_norming_L1-swe_no_translation,001,805,
DASKA,Ben/fötter,ben/fötter,0,141,141,5,0,0,0,0,1,2.316,,,2018_Sep_12_1529,59.6289821748,verb_norming_L1-swe_no_translation,001,805,
DASKA,Armar/händer,armar/händer,0,141,141,5,0,1,1,1,7,0.707,,,2018_Sep_12_1529,59.6289821748,verb_norming_L1-swe_no_translation,001,805,
DASKA,,,0,141,141,5,,,,,,,,,2018_Sep_12_1529,59.6289821748,verb_norming_L1-swe_no_translation,001,805,
KNALLA,Ben/fötter,ben/fötter,0,142,142,119,0,0,0,0,7,3.288,,,2018_Sep_12_1529,59.6289821748,verb_norming_L1-swe_no_translation,001,805,
KNALLA,Armar/händer,armar/händer,0,142,142,119,0,1,1,1,1,0.622,,,2018_Sep_12_1529,59.6289821748,verb_norming_L1-swe_no_translation,001,805,
KNALLA,,,0,142,142,119,,,,,,,,,2018_Sep_12_1529,59.6289821748,verb_norming_L1-swe_no_translation,001,805,
KLÖSA,Ben/fötter,ben/fötter,0,143,143,35,0,0,0,0,1,1.779,,,2018_Sep_12_1529,59.6289821748,verb_norming_L1-swe_no_translation,001,805,
KLÖSA,Armar/händer,armar/händer,0,143,143,35,0,1,1,1,7,1.864,,,2018_Sep_12_1529,59.6289821748,verb_norming_L1-swe_no_translation,001,805,
KLÖSA,,,0,143,143,35,,,,,,,,,2018_Sep_12_1529,59.6289821748,verb_norming_L1-swe_no_translation,001,805,
RULTA,Ben/fötter,ben/fötter,0,144,144,133,0,0,0,0,6,10.498,,,2018_Sep_12_1529,59.6289821748,verb_norming_L1-swe_no_translation,001,805,
RULTA,Armar/händer,armar/händer,0,144,144,133,0,1,1,1,3,0.99,,,2018_Sep_12_1529,59.6289821748,verb_norming_L1-swe_no_translation,001,805,
RULTA,,,0,144,144,133,,,,,,,,,2018_Sep_12_1529,59.6289821748,verb_norming_L1-swe_no_translation,001,805,
GRABBA,Ben/fötter,ben/fötter,0,145,145,16,0,0,0,0,1,4.008,,,2018_Sep_12_1529,59.6289821748,verb_norming_L1-swe_no_translation,001,805,
GRABBA,Armar/händer,armar/händer,0,145,145,16,0,1,1,1,7,0.889,,,2018_Sep_12_1529,59.6289821748,verb_norming_L1-swe_no_translation,001,805,
GRABBA,,,0,145,145,16,,,,,,,,,2018_Sep_12_1529,59.6289821748,verb_norming_L1-swe_no_translation,001,805,
DUNKA,Ben/fötter,ben/fötter,0,146,146,7,0,0,0,0,3,7.647,,,2018_Sep_12_1529,59.6289821748,verb_norming_L1-swe_no_translation,001,805,
DUNKA,Armar/händer,armar/händer,0,146,146,7,0,1,1,1,6,2.264,,,2018_Sep_12_1529,59.6289821748,verb_norming_L1-swe_no_translation,001,805,
DUNKA,,,0,146,146,7,,,,,,,,,2018_Sep_12_1529,59.6289821748,verb_norming_L1-swe_no_translation,001,805,
SKURA,Ben/fötter,ben/fötter,0,147,147,77,0,0,0,0,1,14.675,,,2018_Sep_12_1529,59.6289821748,verb_norming_L1-swe_no_translation,001,805,
SKURA,Armar/händer,armar/händer,0,147,147,77,0,1,1,1,7,1.258,,,2018_Sep_12_1529,59.6289821748,verb_norming_L1-swe_no_translation,001,805,
SKURA,,,0,147,147,77,,,,,,,,,2018_Sep_12_1529,59.6289821748,verb_norming_L1-swe_no_translation,001,805,
GUPPA,Ben/fötter,ben/fötter,0,148,148,108,0,0,0,0,2,4.025,,,2018_Sep_12_1529,59.6289821748,verb_norming_L1-swe_no_translation,001,805,
GUPPA,Armar/händer,armar/händer,0,148,148,108,0,1,1,1,2,0.736,,,2018_Sep_12_1529,59.6289821748,verb_norming_L1-swe_no_translation,001,805,
GUPPA,,,0,148,148,108,,,,,,,,,2018_Sep_12_1529,59.6289821748,verb_norming_L1-swe_no_translation,001,805,
SKRIDA,Ben/fötter,ben/fötter,0,149,149,136,0,0,0,0,6,2.617,,,2018_Sep_12_1529,59.6289821748,verb_norming_L1-swe_no_translation,001,805,
SKRIDA,Armar/händer,armar/händer,0,149,149,136,0,1,1,1,1,0.806,,,2018_Sep_12_1529,59.6289821748,verb_norming_L1-swe_no_translation,001,805,
SKRIDA,,,0,149,149,136,,,,,,,,,2018_Sep_12_1529,59.6289821748,verb_norming_L1-swe_no_translation,001,805,
TASSA,Ben/fötter,ben/fötter,0,150,150,159,0,0,0,0,7,2.836,,,2018_Sep_12_1529,59.6289821748,verb_norming_L1-swe_no_translation,001,805,
TASSA,Armar/händer,armar/händer,0,150,150,159,0,1,1,1,1,2.031,,,2018_Sep_12_1529,59.6289821748,verb_norming_L1-swe_no_translation,001,805,
TASSA,,,0,150,150,159,,,,,,,,,2018_Sep_12_1529,59.6289821748,verb_norming_L1-swe_no_translation,001,805,
SKALA,Ben/fötter,ben/fötter,0,151,151,70,0,0,0,0,1,2.165,,,2018_Sep_12_1529,59.6289821748,verb_norming_L1-swe_no_translation,001,805,
SKALA,Armar/händer,armar/händer,0,151,151,70,0,1,1,1,7,1.361,,,2018_Sep_12_1529,59.6289821748,verb_norming_L1-swe_no_translation,001,805,
SKALA,,,0,151,151,70,,,,,,,,,2018_Sep_12_1529,59.6289821748,verb_norming_L1-swe_no_translation,001,805,
STIGA,Ben/fötter,ben/fötter,0,152,152,151,0,0,0,0,6,6.507,,,2018_Sep_12_1529,59.6289821748,verb_norming_L1-swe_no_translation,001,805,
STIGA,Armar/händer,armar/händer,0,152,152,151,0,1,1,1,1,2.13,,,2018_Sep_12_1529,59.6289821748,verb_norming_L1-swe_no_translation,001,805,
STIGA,,,0,152,152,151,,,,,,,,,2018_Sep_12_1529,59.6289821748,verb_norming_L1-swe_no_translation,001,805,
STEGA,Ben/fötter,ben/fötter,0,153,153,150,0,0,0,0,7,3.153,,,2018_Sep_12_1529,59.6289821748,verb_norming_L1-swe_no_translation,001,805,
STEGA,Armar/händer,armar/händer,0,153,153,150,0,1,1,1,1,14.943,,,2018_Sep_12_1529,59.6289821748,verb_norming_L1-swe_no_translation,001,805,
STEGA,,,0,153,153,150,,,,,,,,,2018_Sep_12_1529,59.6289821748,verb_norming_L1-swe_no_translation,001,805,
KRYPA,Ben/fötter,ben/fötter,0,154,154,123,0,0,0,0,6,2.934,,,2018_Sep_12_1529,59.6289821748,verb_norming_L1-swe_no_translation,001,805,
KRYPA,Armar/händer,armar/händer,0,154,154,123,0,1,1,1,5,0.654,,,2018_Sep_12_1529,59.6289821748,verb_norming_L1-swe_no_translation,001,805,
KRYPA,,,0,154,154,123,,,,,,,,,2018_Sep_12_1529,59.6289821748,verb_norming_L1-swe_no_translation,001,805,
VIKA,Ben/fötter,ben/fötter,0,155,155,98,0,0,0,0,1,2.25,,,2018_Sep_12_1529,59.6289821748,verb_norming_L1-swe_no_translation,001,805,
VIKA,Armar/händer,armar/händer,0,155,155,98,0,1,1,1,7,0.589,,,2018_Sep_12_1529,59.6289821748,verb_norming_L1-swe_no_translation,001,805,
VIKA,,,0,155,155,98,,,,,,,,,2018_Sep_12_1529,59.6289821748,verb_norming_L1-swe_no_translation,001,805,
GRIPA,Ben/fötter,ben/fötter,0,156,156,19,0,0,0,0,1,1.845,,,2018_Sep_12_1529,59.6289821748,verb_norming_L1-swe_no_translation,001,805,
GRIPA,Armar/händer,armar/händer,0,156,156,19,0,1,1,1,7,0.487,,,2018_Sep_12_1529,59.6289821748,verb_norming_L1-swe_no_translation,001,805,
GRIPA,,,0,156,156,19,,,,,,,,,2018_Sep_12_1529,59.6289821748,verb_norming_L1-swe_no_translation,001,805,
SPARKA,Ben/fötter,ben/fötter,0,157,157,144,0,0,0,0,7,2.315,,,2018_Sep_12_1529,59.6289821748,verb_norming_L1-swe_no_translation,001,805,
SPARKA,Armar/händer,armar/händer,0,157,157,144,0,1,1,1,1,0.455,,,2018_Sep_12_1529,59.6289821748,verb_norming_L1-swe_no_translation,001,805,
SPARKA,,,0,157,157,144,,,,,,,,,2018_Sep_12_1529,59.6289821748,verb_norming_L1-swe_no_translation,001,805,
SLIPA,Ben/fötter,ben/fötter,0,158,158,81,0,0,0,0,1,3.891,,,2018_Sep_12_1529,59.6289821748,verb_norming_L1-swe_no_translation,001,805,
SLIPA,Armar/händer,armar/händer,0,158,158,81,0,1,1,1,7,1.864,,,2018_Sep_12_1529,59.6289821748,verb_norming_L1-swe_no_translation,001,805,
SLIPA,,,0,158,158,81,,,,,,,,,2018_Sep_12_1529,59.6289821748,verb_norming_L1-swe_no_translation,001,805,
SKÄRA,Ben/fötter,ben/fötter,0,159,159,71,0,0,0,0,1,2.434,,,2018_Sep_12_1529,59.6289821748,verb_norming_L1-swe_no_translation,001,805,
SKÄRA,Armar/händer,armar/händer,0,159,159,71,0,1,1,1,7,0.572,,,2018_Sep_12_1529,59.6289821748,verb_norming_L1-swe_no_translation,001,805,
SKÄRA,,,0,159,159,71,,,,,,,,,2018_Sep_12_1529,59.6289821748,verb_norming_L1-swe_no_translation,001,805,
SKRUBBA,Ben/fötter,ben/fötter,0,160,160,75,0,0,0,0,1,13.197,,,2018_Sep_12_1529,59.6289821748,verb_norming_L1-swe_no_translation,001,805,
SKRUBBA,Armar/händer,armar/händer,0,160,160,75,0,1,1,1,7,1.526,,,2018_Sep_12_1529,59.6289821748,verb_norming_L1-swe_no_translation,001,805,
SKRUBBA,,,0,160,160,75,,,,,,,,,2018_Sep_12_1529,59.6289821748,verb_norming_L1-swe_no_translation,001,805,
KLÅ,Ben/fötter,ben/fötter,0,161,161,29,0,0,0,0,1,3.222,,,2018_Sep_12_1529,59.6289821748,verb_norming_L1-swe_no_translation,001,805,
KLÅ,Armar/händer,armar/händer,0,161,161,29,0,1,1,1,5,1.11,,,2018_Sep_12_1529,59.6289821748,verb_norming_L1-swe_no_translation,001,805,
KLÅ,,,0,161,161,29,,,,,,,,,2018_Sep_12_1529,59.6289821748,verb_norming_L1-swe_no_translation,001,805,
MARSCHERA,Ben/fötter,ben/fötter,0,162,162,127,0,0,0,0,7,2.329,,,2018_Sep_12_1529,59.6289821748,verb_norming_L1-swe_no_translation,001,805,
MARSCHERA,Armar/händer,armar/händer,0,162,162,127,0,1,1,1,1,0.435,,,2018_Sep_12_1529,59.6289821748,verb_norming_L1-swe_no_translation,001,805,
MARSCHERA,,,0,162,162,127,,,,,,,,,2018_Sep_12_1529,59.6289821748,verb_norming_L1-swe_no_translation,001,805,
FILA,Ben/fötter,ben/fötter,0,163,163,10,0,0,0,0,1,3.356,,,2018_Sep_12_1529,59.6289821748,verb_norming_L1-swe_no_translation,001,805,
FILA,Armar/händer,armar/händer,0,163,163,10,0,1,1,1,5,5.319,,,2018_Sep_12_1529,59.6289821748,verb_norming_L1-swe_no_translation,001,805,
FILA,,,0,163,163,10,,,,,,,,,2018_Sep_12_1529,59.6289821748,verb_norming_L1-swe_no_translation,001,805,
REPA,Ben/fötter,ben/fötter,0,164,164,61,0,0,0,0,1,2.853,,,2018_Sep_12_1529,59.6289821748,verb_norming_L1-swe_no_translation,001,805,
REPA,Armar/händer,armar/händer,0,164,164,61,0,1,1,1,5,0.942,,,2018_Sep_12_1529,59.6289821748,verb_norming_L1-swe_no_translation,001,805,
REPA,,,0,164,164,61,,,,,,,,,2018_Sep_12_1529,59.6289821748,verb_norming_L1-swe_no_translation,001,805,
STÖVLA,Ben/fötter,ben/fötter,0,165,165,152,0,0,0,0,7,3.406,,,2018_Sep_12_1529,59.6289821748,verb_norming_L1-swe_no_translation,001,805,
STÖVLA,Armar/händer,armar/händer,0,165,165,152,0,1,1,1,2,4.295,,,2018_Sep_12_1529,59.6289821748,verb_norming_L1-swe_no_translation,001,805,
STÖVLA,,,0,165,165,152,,,,,,,,,2018_Sep_12_1529,59.6289821748,verb_norming_L1-swe_no_translation,001,805,
SNÄRTA,Ben/fötter,ben/fötter,0,166,166,86,0,0,0,0,1,9.594,,,2018_Sep_12_1529,59.6289821748,verb_norming_L1-swe_no_translation,001,805,
SNÄRTA,Armar/händer,armar/händer,0,166,166,86,0,1,1,1,7,1.427,,,2018_Sep_12_1529,59.6289821748,verb_norming_L1-swe_no_translation,001,805,
SNÄRTA,,,0,166,166,86,,,,,,,,,2018_Sep_12_1529,59.6289821748,verb_norming_L1-swe_no_translation,001,805,
PINNA,Ben/fötter,ben/fötter,0,167,167,128,0,0,0,0,6,3.104,,,2018_Sep_12_1529,59.6289821748,verb_norming_L1-swe_no_translation,001,805,
PINNA,Armar/händer,armar/händer,0,167,167,128,0,1,1,1,1,0.875,,,2018_Sep_12_1529,59.6289821748,verb_norming_L1-swe_no_translation,001,805,
PINNA,,,0,167,167,128,,,,,,,,,2018_Sep_12_1529,59.6289821748,verb_norming_L1-swe_no_translation,001,805,
STUDSA,Ben/fötter,ben/fötter,0,168,168,155,0,0,0,0,4,4.31,,,2018_Sep_12_1529,59.6289821748,verb_norming_L1-swe_no_translation,001,805,
STUDSA,Armar/händer,armar/händer,0,168,168,155,0,1,1,1,6,1.39,,,2018_Sep_12_1529,59.6289821748,verb_norming_L1-swe_no_translation,001,805,
STUDSA,,,0,168,168,155,,,,,,,,,2018_Sep_12_1529,59.6289821748,verb_norming_L1-swe_no_translation,001,805,
,,,,,,,,,,,,,space,19.6054036071,2018_Sep_12_1529,59.6289821748,verb_norming_L1-swe_no_translation,001,805,
