word,category,category_lowercase,trials.thisRepN,trials.thisTrialN,trials.thisN,trials.thisIndex,armleg_loop.thisRepN,armleg_loop.thisTrialN,armleg_loop.thisN,armleg_loop.thisIndex,rating.response,rating.rt,key_resp_8.keys,key_resp_8.rt,date,frameRate,expName,session,participant,
GUPPA,Arm,arm,0,0,0,108,0,0,0,0,4,185.929,,,2018_Sep_12_1610,59.5593834571,verb_norming_L1-swe_no_translation,001,806,
GUPPA,Ben,ben,0,0,0,108,0,1,1,1,4,19.027,,,2018_Sep_12_1610,59.5593834571,verb_norming_L1-swe_no_translation,001,806,
GUPPA,,,0,0,0,108,,,,,,,,,2018_Sep_12_1610,59.5593834571,verb_norming_L1-swe_no_translation,001,806,
SLITA,Arm,arm,0,1,1,82,0,0,0,0,7,10.236,,,2018_Sep_12_1610,59.5593834571,verb_norming_L1-swe_no_translation,001,806,
SLITA,Ben,ben,0,1,1,82,0,1,1,1,7,7.006,,,2018_Sep_12_1610,59.5593834571,verb_norming_L1-swe_no_translation,001,806,
SLITA,,,0,1,1,82,,,,,,,,,2018_Sep_12_1610,59.5593834571,verb_norming_L1-swe_no_translation,001,806,
TRIPPA,Arm,arm,0,2,2,163,0,0,0,0,1,13.174,,,2018_Sep_12_1610,59.5593834571,verb_norming_L1-swe_no_translation,001,806,
TRIPPA,Ben,ben,0,2,2,163,0,1,1,1,7,5.394,,,2018_Sep_12_1610,59.5593834571,verb_norming_L1-swe_no_translation,001,806,
TRIPPA,,,0,2,2,163,,,,,,,,,2018_Sep_12_1610,59.5593834571,verb_norming_L1-swe_no_translation,001,806,
FÅNGA,Arm,arm,0,3,3,8,0,0,0,0,7,7.589,,,2018_Sep_12_1610,59.5593834571,verb_norming_L1-swe_no_translation,001,806,
FÅNGA,Ben,ben,0,3,3,8,0,1,1,1,2,10.427,,,2018_Sep_12_1610,59.5593834571,verb_norming_L1-swe_no_translation,001,806,
FÅNGA,,,0,3,3,8,,,,,,,,,2018_Sep_12_1610,59.5593834571,verb_norming_L1-swe_no_translation,001,806,
SKALA,Arm,arm,0,4,4,70,0,0,0,0,7,5.494,,,2018_Sep_12_1610,59.5593834571,verb_norming_L1-swe_no_translation,001,806,
SKALA,Ben,ben,0,4,4,70,0,1,1,1,1,12.741,,,2018_Sep_12_1610,59.5593834571,verb_norming_L1-swe_no_translation,001,806,
SKALA,,,0,4,4,70,,,,,,,,,2018_Sep_12_1610,59.5593834571,verb_norming_L1-swe_no_translation,001,806,
RULTA,Arm,arm,0,5,5,133,0,0,0,0,3,24.964,,,2018_Sep_12_1610,59.5593834571,verb_norming_L1-swe_no_translation,001,806,
RULTA,Ben,ben,0,5,5,133,0,1,1,1,3,9.337,,,2018_Sep_12_1610,59.5593834571,verb_norming_L1-swe_no_translation,001,806,
RULTA,,,0,5,5,133,,,,,,,,,2018_Sep_12_1610,59.5593834571,verb_norming_L1-swe_no_translation,001,806,
SKAKA,Arm,arm,0,6,6,69,0,0,0,0,7,5.762,,,2018_Sep_12_1610,59.5593834571,verb_norming_L1-swe_no_translation,001,806,
SKAKA,Ben,ben,0,6,6,69,0,1,1,1,7,9.052,,,2018_Sep_12_1610,59.5593834571,verb_norming_L1-swe_no_translation,001,806,
SKAKA,,,0,6,6,69,,,,,,,,,2018_Sep_12_1610,59.5593834571,verb_norming_L1-swe_no_translation,001,806,
SVAJA,Arm,arm,0,7,7,156,0,0,0,0,7,12.083,,,2018_Sep_12_1610,59.5593834571,verb_norming_L1-swe_no_translation,001,806,
SVAJA,Ben,ben,0,7,7,156,0,1,1,1,7,4.775,,,2018_Sep_12_1610,59.5593834571,verb_norming_L1-swe_no_translation,001,806,
SVAJA,,,0,7,7,156,,,,,,,,,2018_Sep_12_1610,59.5593834571,verb_norming_L1-swe_no_translation,001,806,
HISSA,Arm,arm,0,8,8,23,0,0,0,0,7,9.183,,,2018_Sep_12_1610,59.5593834571,verb_norming_L1-swe_no_translation,001,806,
HISSA,Ben,ben,0,8,8,23,0,1,1,1,2,34.661,,,2018_Sep_12_1610,59.5593834571,verb_norming_L1-swe_no_translation,001,806,
HISSA,,,0,8,8,23,,,,,,,,,2018_Sep_12_1610,59.5593834571,verb_norming_L1-swe_no_translation,001,806,
TRÄDA,Arm,arm,0,9,9,160,0,0,0,0,1,9.987,,,2018_Sep_12_1610,59.5593834571,verb_norming_L1-swe_no_translation,001,806,
TRÄDA,Ben,ben,0,9,9,160,0,1,1,1,1,6.586,,,2018_Sep_12_1610,59.5593834571,verb_norming_L1-swe_no_translation,001,806,
TRÄDA,,,0,9,9,160,,,,,,,,,2018_Sep_12_1610,59.5593834571,verb_norming_L1-swe_no_translation,001,806,
RAKA,Arm,arm,0,10,10,59,0,0,0,0,1,5.292,,,2018_Sep_12_1610,59.5593834571,verb_norming_L1-swe_no_translation,001,806,
RAKA,Ben,ben,0,10,10,59,0,1,1,1,7,11.769,,,2018_Sep_12_1610,59.5593834571,verb_norming_L1-swe_no_translation,001,806,
RAKA,,,0,10,10,59,,,,,,,,,2018_Sep_12_1610,59.5593834571,verb_norming_L1-swe_no_translation,001,806,
GREPPA,Arm,arm,0,11,11,18,0,0,0,0,7,5.155,,,2018_Sep_12_1610,59.5593834571,verb_norming_L1-swe_no_translation,001,806,
GREPPA,Ben,ben,0,11,11,18,0,1,1,1,5,11.768,,,2018_Sep_12_1610,59.5593834571,verb_norming_L1-swe_no_translation,001,806,
GREPPA,,,0,11,11,18,,,,,,,,,2018_Sep_12_1610,59.5593834571,verb_norming_L1-swe_no_translation,001,806,
HOPPA,Arm,arm,0,12,12,111,0,0,0,0,2,8.763,,,2018_Sep_12_1610,59.5593834571,verb_norming_L1-swe_no_translation,001,806,
HOPPA,Ben,ben,0,12,12,111,0,1,1,1,7,4.574,,,2018_Sep_12_1610,59.5593834571,verb_norming_L1-swe_no_translation,001,806,
HOPPA,,,0,12,12,111,,,,,,,,,2018_Sep_12_1610,59.5593834571,verb_norming_L1-swe_no_translation,001,806,
LUNKA,Arm,arm,0,13,13,126,0,0,0,0,1,6.164,,,2018_Sep_12_1610,59.5593834571,verb_norming_L1-swe_no_translation,001,806,
LUNKA,Ben,ben,0,13,13,126,0,1,1,1,7,4.943,,,2018_Sep_12_1610,59.5593834571,verb_norming_L1-swe_no_translation,001,806,
LUNKA,,,0,13,13,126,,,,,,,,,2018_Sep_12_1610,59.5593834571,verb_norming_L1-swe_no_translation,001,806,
SLÅ,Arm,arm,0,14,14,79,0,0,0,0,7,4.42,,,2018_Sep_12_1610,59.5593834571,verb_norming_L1-swe_no_translation,001,806,
SLÅ,Ben,ben,0,14,14,79,0,1,1,1,2,12.708,,,2018_Sep_12_1610,59.5593834571,verb_norming_L1-swe_no_translation,001,806,
SLÅ,,,0,14,14,79,,,,,,,,,2018_Sep_12_1610,59.5593834571,verb_norming_L1-swe_no_translation,001,806,
DRA,Arm,arm,0,15,15,6,0,0,0,0,7,4.337,,,2018_Sep_12_1610,59.5593834571,verb_norming_L1-swe_no_translation,001,806,
DRA,Ben,ben,0,15,15,6,0,1,1,1,7,11.149,,,2018_Sep_12_1610,59.5593834571,verb_norming_L1-swe_no_translation,001,806,
DRA,,,0,15,15,6,,,,,,,,,2018_Sep_12_1610,59.5593834571,verb_norming_L1-swe_no_translation,001,806,
NORPA,Arm,arm,0,16,16,46,0,0,0,0,7,4.705,,,2018_Sep_12_1610,59.5593834571,verb_norming_L1-swe_no_translation,001,806,
NORPA,Ben,ben,0,16,16,46,0,1,1,1,1,3.819,,,2018_Sep_12_1610,59.5593834571,verb_norming_L1-swe_no_translation,001,806,
NORPA,,,0,16,16,46,,,,,,,,,2018_Sep_12_1610,59.5593834571,verb_norming_L1-swe_no_translation,001,806,
SKUMMA,Arm,arm,0,17,17,76,0,0,0,0,7,7.216,,,2018_Sep_12_1610,59.5593834571,verb_norming_L1-swe_no_translation,001,806,
SKUMMA,Ben,ben,0,17,17,76,0,1,1,1,1,5.292,,,2018_Sep_12_1610,59.5593834571,verb_norming_L1-swe_no_translation,001,806,
SKUMMA,,,0,17,17,76,,,,,,,,,2018_Sep_12_1610,59.5593834571,verb_norming_L1-swe_no_translation,001,806,
TASSA,Arm,arm,0,18,18,159,0,0,0,0,1,4.471,,,2018_Sep_12_1610,59.5593834571,verb_norming_L1-swe_no_translation,001,806,
TASSA,Ben,ben,0,18,18,159,0,1,1,1,7,9.152,,,2018_Sep_12_1610,59.5593834571,verb_norming_L1-swe_no_translation,001,806,
TASSA,,,0,18,18,159,,,,,,,,,2018_Sep_12_1610,59.5593834571,verb_norming_L1-swe_no_translation,001,806,
SKJUTA,Arm,arm,0,19,19,72,0,0,0,0,7,4.537,,,2018_Sep_12_1610,59.5593834571,verb_norming_L1-swe_no_translation,001,806,
SKJUTA,Ben,ben,0,19,19,72,0,1,1,1,1,10.309,,,2018_Sep_12_1610,59.5593834571,verb_norming_L1-swe_no_translation,001,806,
SKJUTA,,,0,19,19,72,,,,,,,,,2018_Sep_12_1610,59.5593834571,verb_norming_L1-swe_no_translation,001,806,
SKOPA,Arm,arm,0,20,20,73,0,0,0,0,7,5.056,,,2018_Sep_12_1610,59.5593834571,verb_norming_L1-swe_no_translation,001,806,
SKOPA,Ben,ben,0,20,20,73,0,1,1,1,5,8.096,,,2018_Sep_12_1610,59.5593834571,verb_norming_L1-swe_no_translation,001,806,
SKOPA,,,0,20,20,73,,,,,,,,,2018_Sep_12_1610,59.5593834571,verb_norming_L1-swe_no_translation,001,806,
BADDA,Arm,arm,0,21,21,0,0,0,0,0,7,4.722,,,2018_Sep_12_1610,59.5593834571,verb_norming_L1-swe_no_translation,001,806,
BADDA,Ben,ben,0,21,21,0,0,1,1,1,1,11.685,,,2018_Sep_12_1610,59.5593834571,verb_norming_L1-swe_no_translation,001,806,
BADDA,,,0,21,21,0,,,,,,,,,2018_Sep_12_1610,59.5593834571,verb_norming_L1-swe_no_translation,001,806,
SKEJTA,Arm,arm,0,22,22,135,0,0,0,0,2,9.618,,,2018_Sep_12_1610,59.5593834571,verb_norming_L1-swe_no_translation,001,806,
SKEJTA,Ben,ben,0,22,22,135,0,1,1,1,7,4.02,,,2018_Sep_12_1610,59.5593834571,verb_norming_L1-swe_no_translation,001,806,
SKEJTA,,,0,22,22,135,,,,,,,,,2018_Sep_12_1610,59.5593834571,verb_norming_L1-swe_no_translation,001,806,
STIGA,Arm,arm,0,23,23,151,0,0,0,0,2,15.623,,,2018_Sep_12_1610,59.5593834571,verb_norming_L1-swe_no_translation,001,806,
STIGA,Ben,ben,0,23,23,151,0,1,1,1,7,5.379,,,2018_Sep_12_1610,59.5593834571,verb_norming_L1-swe_no_translation,001,806,
STIGA,,,0,23,23,151,,,,,,,,,2018_Sep_12_1610,59.5593834571,verb_norming_L1-swe_no_translation,001,806,
HALTA,Arm,arm,0,24,24,110,0,0,0,0,1,6.969,,,2018_Sep_12_1610,59.5593834571,verb_norming_L1-swe_no_translation,001,806,
HALTA,Ben,ben,0,24,24,110,0,1,1,1,7,6.2,,,2018_Sep_12_1610,59.5593834571,verb_norming_L1-swe_no_translation,001,806,
HALTA,,,0,24,24,110,,,,,,,,,2018_Sep_12_1610,59.5593834571,verb_norming_L1-swe_no_translation,001,806,
FLY,Arm,arm,0,25,25,105,0,0,0,0,7,10.488,,,2018_Sep_12_1610,59.5593834571,verb_norming_L1-swe_no_translation,001,806,
FLY,Ben,ben,0,25,25,105,0,1,1,1,7,3.969,,,2018_Sep_12_1610,59.5593834571,verb_norming_L1-swe_no_translation,001,806,
FLY,,,0,25,25,105,,,,,,,,,2018_Sep_12_1610,59.5593834571,verb_norming_L1-swe_no_translation,001,806,
PADDLA,Arm,arm,0,26,26,49,0,0,0,0,7,5.106,,,2018_Sep_12_1610,59.5593834571,verb_norming_L1-swe_no_translation,001,806,
PADDLA,Ben,ben,0,26,26,49,0,1,1,1,7,9.303,,,2018_Sep_12_1610,59.5593834571,verb_norming_L1-swe_no_translation,001,806,
PADDLA,,,0,26,26,49,,,,,,,,,2018_Sep_12_1610,59.5593834571,verb_norming_L1-swe_no_translation,001,806,
TVINNA,Arm,arm,0,27,27,97,0,0,0,0,7,5.727,,,2018_Sep_12_1610,59.5593834571,verb_norming_L1-swe_no_translation,001,806,
TVINNA,Ben,ben,0,27,27,97,0,1,1,1,2,9.303,,,2018_Sep_12_1610,59.5593834571,verb_norming_L1-swe_no_translation,001,806,
TVINNA,,,0,27,27,97,,,,,,,,,2018_Sep_12_1610,59.5593834571,verb_norming_L1-swe_no_translation,001,806,
SKRAPA,Arm,arm,0,28,28,74,0,0,0,0,7,4.855,,,2018_Sep_12_1610,59.5593834571,verb_norming_L1-swe_no_translation,001,806,
SKRAPA,Ben,ben,0,28,28,74,0,1,1,1,2,9.806,,,2018_Sep_12_1610,59.5593834571,verb_norming_L1-swe_no_translation,001,806,
SKRAPA,,,0,28,28,74,,,,,,,,,2018_Sep_12_1610,59.5593834571,verb_norming_L1-swe_no_translation,001,806,
KLÖSA,Arm,arm,0,29,29,35,0,0,0,0,7,4.533,,,2018_Sep_12_1610,59.5593834571,verb_norming_L1-swe_no_translation,001,806,
KLÖSA,Ben,ben,0,29,29,35,0,1,1,1,1,6.132,,,2018_Sep_12_1610,59.5593834571,verb_norming_L1-swe_no_translation,001,806,
KLÖSA,,,0,29,29,35,,,,,,,,,2018_Sep_12_1610,59.5593834571,verb_norming_L1-swe_no_translation,001,806,
BULTA,Arm,arm,0,30,30,4,0,0,0,0,7,5.577,,,2018_Sep_12_1610,59.5593834571,verb_norming_L1-swe_no_translation,001,806,
BULTA,Ben,ben,0,30,30,4,0,1,1,1,1,9.941,,,2018_Sep_12_1610,59.5593834571,verb_norming_L1-swe_no_translation,001,806,
BULTA,,,0,30,30,4,,,,,,,,,2018_Sep_12_1610,59.5593834571,verb_norming_L1-swe_no_translation,001,806,
PISKA,Arm,arm,0,31,31,52,0,0,0,0,7,10.944,,,2018_Sep_12_1610,59.5593834571,verb_norming_L1-swe_no_translation,001,806,
PISKA,Ben,ben,0,31,31,52,0,1,1,1,1,5.411,,,2018_Sep_12_1610,59.5593834571,verb_norming_L1-swe_no_translation,001,806,
PISKA,,,0,31,31,52,,,,,,,,,2018_Sep_12_1610,59.5593834571,verb_norming_L1-swe_no_translation,001,806,
STÖVLA,Arm,arm,0,32,32,152,0,0,0,0,1,5.71,,,2018_Sep_12_1610,59.5593834571,verb_norming_L1-swe_no_translation,001,806,
STÖVLA,Ben,ben,0,32,32,152,0,1,1,1,7,9.097,,,2018_Sep_12_1610,59.5593834571,verb_norming_L1-swe_no_translation,001,806,
STÖVLA,,,0,32,32,152,,,,,,,,,2018_Sep_12_1610,59.5593834571,verb_norming_L1-swe_no_translation,001,806,
KNATA,Arm,arm,0,33,33,120,0,0,0,0,1,6.566,,,2018_Sep_12_1610,59.5593834571,verb_norming_L1-swe_no_translation,001,806,
KNATA,Ben,ben,0,33,33,120,0,1,1,1,7,5.648,,,2018_Sep_12_1610,59.5593834571,verb_norming_L1-swe_no_translation,001,806,
KNATA,,,0,33,33,120,,,,,,,,,2018_Sep_12_1610,59.5593834571,verb_norming_L1-swe_no_translation,001,806,
FATTA,Arm,arm,0,34,34,9,0,0,0,0,7,10.223,,,2018_Sep_12_1610,59.5593834571,verb_norming_L1-swe_no_translation,001,806,
FATTA,Ben,ben,0,34,34,9,0,1,1,1,3,14.603,,,2018_Sep_12_1610,59.5593834571,verb_norming_L1-swe_no_translation,001,806,
FATTA,,,0,34,34,9,,,,,,,,,2018_Sep_12_1610,59.5593834571,verb_norming_L1-swe_no_translation,001,806,
DANSA,Arm,arm,0,35,35,102,0,0,0,0,7,4.219,,,2018_Sep_12_1610,59.5593834571,verb_norming_L1-swe_no_translation,001,806,
DANSA,Ben,ben,0,35,35,102,0,1,1,1,7,3.231,,,2018_Sep_12_1610,59.5593834571,verb_norming_L1-swe_no_translation,001,806,
DANSA,,,0,35,35,102,,,,,,,,,2018_Sep_12_1610,59.5593834571,verb_norming_L1-swe_no_translation,001,806,
VANDRA,Arm,arm,0,36,36,166,0,0,0,0,3,10.826,,,2018_Sep_12_1610,59.5593834571,verb_norming_L1-swe_no_translation,001,806,
VANDRA,Ben,ben,0,36,36,166,0,1,1,1,7,3.768,,,2018_Sep_12_1610,59.5593834571,verb_norming_L1-swe_no_translation,001,806,
VANDRA,,,0,36,36,166,,,,,,,,,2018_Sep_12_1610,59.5593834571,verb_norming_L1-swe_no_translation,001,806,
RIVA,Arm,arm,0,37,37,63,0,0,0,0,7,4.018,,,2018_Sep_12_1610,59.5593834571,verb_norming_L1-swe_no_translation,001,806,
RIVA,Ben,ben,0,37,37,63,0,1,1,1,2,11.366,,,2018_Sep_12_1610,59.5593834571,verb_norming_L1-swe_no_translation,001,806,
RIVA,,,0,37,37,63,,,,,,,,,2018_Sep_12_1610,59.5593834571,verb_norming_L1-swe_no_translation,001,806,
HALKA,Arm,arm,0,38,38,109,0,0,0,0,7,6.231,,,2018_Sep_12_1610,59.5593834571,verb_norming_L1-swe_no_translation,001,806,
HALKA,Ben,ben,0,38,38,109,0,1,1,1,7,3.199,,,2018_Sep_12_1610,59.5593834571,verb_norming_L1-swe_no_translation,001,806,
HALKA,,,0,38,38,109,,,,,,,,,2018_Sep_12_1610,59.5593834571,verb_norming_L1-swe_no_translation,001,806,
HACKA,Arm,arm,0,39,39,20,0,0,0,0,7,3.242,,,2018_Sep_12_1610,59.5593834571,verb_norming_L1-swe_no_translation,001,806,
HACKA,Ben,ben,0,39,39,20,0,1,1,1,1,13.159,,,2018_Sep_12_1610,59.5593834571,verb_norming_L1-swe_no_translation,001,806,
HACKA,,,0,39,39,20,,,,,,,,,2018_Sep_12_1610,59.5593834571,verb_norming_L1-swe_no_translation,001,806,
TRASKA,Arm,arm,0,40,40,162,0,0,0,0,1,4.788,,,2018_Sep_12_1610,59.5593834571,verb_norming_L1-swe_no_translation,001,806,
TRASKA,Ben,ben,0,40,40,162,0,1,1,1,7,3.064,,,2018_Sep_12_1610,59.5593834571,verb_norming_L1-swe_no_translation,001,806,
TRASKA,,,0,40,40,162,,,,,,,,,2018_Sep_12_1610,59.5593834571,verb_norming_L1-swe_no_translation,001,806,
STAMPA,Arm,arm,0,41,41,148,0,0,0,0,1,9.583,,,2018_Sep_12_1610,59.5593834571,verb_norming_L1-swe_no_translation,001,806,
STAMPA,Ben,ben,0,41,41,148,0,1,1,1,7,3.599,,,2018_Sep_12_1610,59.5593834571,verb_norming_L1-swe_no_translation,001,806,
STAMPA,,,0,41,41,148,,,,,,,,,2018_Sep_12_1610,59.5593834571,verb_norming_L1-swe_no_translation,001,806,
ÅLA,Arm,arm,0,42,42,100,0,0,0,0,7,5.595,,,2018_Sep_12_1610,59.5593834571,verb_norming_L1-swe_no_translation,001,806,
ÅLA,Ben,ben,0,42,42,100,0,1,1,1,6,12.373,,,2018_Sep_12_1610,59.5593834571,verb_norming_L1-swe_no_translation,001,806,
ÅLA,,,0,42,42,100,,,,,,,,,2018_Sep_12_1610,59.5593834571,verb_norming_L1-swe_no_translation,001,806,
RAGLA,Arm,arm,0,43,43,130,0,0,0,0,1,5.191,,,2018_Sep_12_1610,59.5593834571,verb_norming_L1-swe_no_translation,001,806,
RAGLA,Ben,ben,0,43,43,130,0,1,1,1,7,3.215,,,2018_Sep_12_1610,59.5593834571,verb_norming_L1-swe_no_translation,001,806,
RAGLA,,,0,43,43,130,,,,,,,,,2018_Sep_12_1610,59.5593834571,verb_norming_L1-swe_no_translation,001,806,
KLÅ,Arm,arm,0,44,44,29,0,0,0,0,7,7.674,,,2018_Sep_12_1610,59.5593834571,verb_norming_L1-swe_no_translation,001,806,
KLÅ,Ben,ben,0,44,44,29,0,1,1,1,1,2.093,,,2018_Sep_12_1610,59.5593834571,verb_norming_L1-swe_no_translation,001,806,
KLÅ,,,0,44,44,29,,,,,,,,,2018_Sep_12_1610,59.5593834571,verb_norming_L1-swe_no_translation,001,806,
SKRUBBA,Arm,arm,0,45,45,75,0,0,0,0,7,6.364,,,2018_Sep_12_1610,59.5593834571,verb_norming_L1-swe_no_translation,001,806,
SKRUBBA,Ben,ben,0,45,45,75,0,1,1,1,1,5.21,,,2018_Sep_12_1610,59.5593834571,verb_norming_L1-swe_no_translation,001,806,
SKRUBBA,,,0,45,45,75,,,,,,,,,2018_Sep_12_1610,59.5593834571,verb_norming_L1-swe_no_translation,001,806,
CYKLA,Arm,arm,0,46,46,101,0,0,0,0,7,10.187,,,2018_Sep_12_1610,59.5593834571,verb_norming_L1-swe_no_translation,001,806,
CYKLA,Ben,ben,0,46,46,101,0,1,1,1,7,4.405,,,2018_Sep_12_1610,59.5593834571,verb_norming_L1-swe_no_translation,001,806,
CYKLA,,,0,46,46,101,,,,,,,,,2018_Sep_12_1610,59.5593834571,verb_norming_L1-swe_no_translation,001,806,
TÅGA,Arm,arm,0,47,47,158,0,0,0,0,1,12.454,,,2018_Sep_12_1610,59.5593834571,verb_norming_L1-swe_no_translation,001,806,
TÅGA,Ben,ben,0,47,47,158,0,1,1,1,7,5.262,,,2018_Sep_12_1610,59.5593834571,verb_norming_L1-swe_no_translation,001,806,
TÅGA,,,0,47,47,158,,,,,,,,,2018_Sep_12_1610,59.5593834571,verb_norming_L1-swe_no_translation,001,806,
SNAVA,Arm,arm,0,48,48,142,0,0,0,0,7,5.661,,,2018_Sep_12_1610,59.5593834571,verb_norming_L1-swe_no_translation,001,806,
SNAVA,Ben,ben,0,48,48,142,0,1,1,1,7,4.926,,,2018_Sep_12_1610,59.5593834571,verb_norming_L1-swe_no_translation,001,806,
SNAVA,,,0,48,48,142,,,,,,,,,2018_Sep_12_1610,59.5593834571,verb_norming_L1-swe_no_translation,001,806,
KLIA,Arm,arm,0,49,49,32,0,0,0,0,7,4.117,,,2018_Sep_12_1610,59.5593834571,verb_norming_L1-swe_no_translation,001,806,
KLIA,Ben,ben,0,49,49,32,0,1,1,1,7,7.845,,,2018_Sep_12_1610,59.5593834571,verb_norming_L1-swe_no_translation,001,806,
KLIA,,,0,49,49,32,,,,,,,,,2018_Sep_12_1610,59.5593834571,verb_norming_L1-swe_no_translation,001,806,
RAFSA,Arm,arm,0,50,50,58,0,0,0,0,7,5.493,,,2018_Sep_12_1610,59.5593834571,verb_norming_L1-swe_no_translation,001,806,
RAFSA,Ben,ben,0,50,50,58,0,1,1,1,1,5.53,,,2018_Sep_12_1610,59.5593834571,verb_norming_L1-swe_no_translation,001,806,
RAFSA,,,0,50,50,58,,,,,,,,,2018_Sep_12_1610,59.5593834571,verb_norming_L1-swe_no_translation,001,806,
POLERA,Arm,arm,0,51,51,54,0,0,0,0,7,5.694,,,2018_Sep_12_1610,59.5593834571,verb_norming_L1-swe_no_translation,001,806,
POLERA,Ben,ben,0,51,51,54,0,1,1,1,1,3.416,,,2018_Sep_12_1610,59.5593834571,verb_norming_L1-swe_no_translation,001,806,
POLERA,,,0,51,51,54,,,,,,,,,2018_Sep_12_1610,59.5593834571,verb_norming_L1-swe_no_translation,001,806,
HÖJA,Arm,arm,0,52,52,25,0,0,0,0,7,14.112,,,2018_Sep_12_1610,59.5593834571,verb_norming_L1-swe_no_translation,001,806,
HÖJA,Ben,ben,0,52,52,25,0,1,1,1,3,7.692,,,2018_Sep_12_1610,59.5593834571,verb_norming_L1-swe_no_translation,001,806,
HÖJA,,,0,52,52,25,,,,,,,,,2018_Sep_12_1610,59.5593834571,verb_norming_L1-swe_no_translation,001,806,
KNIPA,Arm,arm,0,53,53,37,0,0,0,0,3,10.81,,,2018_Sep_12_1610,59.5593834571,verb_norming_L1-swe_no_translation,001,806,
KNIPA,Ben,ben,0,53,53,37,0,1,1,1,7,4.557,,,2018_Sep_12_1610,59.5593834571,verb_norming_L1-swe_no_translation,001,806,
KNIPA,,,0,53,53,37,,,,,,,,,2018_Sep_12_1610,59.5593834571,verb_norming_L1-swe_no_translation,001,806,
SPRINTA,Arm,arm,0,54,54,146,0,0,0,0,4,21.978,,,2018_Sep_12_1610,59.5593834571,verb_norming_L1-swe_no_translation,001,806,
SPRINTA,Ben,ben,0,54,54,146,0,1,1,1,4,2.711,,,2018_Sep_12_1610,59.5593834571,verb_norming_L1-swe_no_translation,001,806,
SPRINTA,,,0,54,54,146,,,,,,,,,2018_Sep_12_1610,59.5593834571,verb_norming_L1-swe_no_translation,001,806,
GNUGGA,Arm,arm,0,55,55,15,0,0,0,0,7,24.192,,,2018_Sep_12_1610,59.5593834571,verb_norming_L1-swe_no_translation,001,806,
GNUGGA,Ben,ben,0,55,55,15,0,1,1,1,1,7.81,,,2018_Sep_12_1610,59.5593834571,verb_norming_L1-swe_no_translation,001,806,
GNUGGA,,,0,55,55,15,,,,,,,,,2018_Sep_12_1610,59.5593834571,verb_norming_L1-swe_no_translation,001,806,
RISTA,Arm,arm,0,56,56,62,0,0,0,0,7,4.252,,,2018_Sep_12_1610,59.5593834571,verb_norming_L1-swe_no_translation,001,806,
RISTA,Ben,ben,0,56,56,62,0,1,1,1,1,5.714,,,2018_Sep_12_1610,59.5593834571,verb_norming_L1-swe_no_translation,001,806,
RISTA,,,0,56,56,62,,,,,,,,,2018_Sep_12_1610,59.5593834571,verb_norming_L1-swe_no_translation,001,806,
BINDA,Arm,arm,0,57,57,2,0,0,0,0,7,4.906,,,2018_Sep_12_1610,59.5593834571,verb_norming_L1-swe_no_translation,001,806,
BINDA,Ben,ben,0,57,57,2,0,1,1,1,1,9.018,,,2018_Sep_12_1610,59.5593834571,verb_norming_L1-swe_no_translation,001,806,
BINDA,,,0,57,57,2,,,,,,,,,2018_Sep_12_1610,59.5593834571,verb_norming_L1-swe_no_translation,001,806,
KRAMA,Arm,arm,0,58,58,41,0,0,0,0,7,4.636,,,2018_Sep_12_1610,59.5593834571,verb_norming_L1-swe_no_translation,001,806,
KRAMA,Ben,ben,0,58,58,41,0,1,1,1,3,11.884,,,2018_Sep_12_1610,59.5593834571,verb_norming_L1-swe_no_translation,001,806,
KRAMA,,,0,58,58,41,,,,,,,,,2018_Sep_12_1610,59.5593834571,verb_norming_L1-swe_no_translation,001,806,
FLACKA,Arm,arm,0,59,59,103,0,0,0,0,4,8.476,,,2018_Sep_12_1610,59.5593834571,verb_norming_L1-swe_no_translation,001,806,
FLACKA,Ben,ben,0,59,59,103,0,1,1,1,4,1.704,,,2018_Sep_12_1610,59.5593834571,verb_norming_L1-swe_no_translation,001,806,
FLACKA,,,0,59,59,103,,,,,,,,,2018_Sep_12_1610,59.5593834571,verb_norming_L1-swe_no_translation,001,806,
VADA,Arm,arm,0,60,60,165,0,0,0,0,7,6.13,,,2018_Sep_12_1610,59.5593834571,verb_norming_L1-swe_no_translation,001,806,
VADA,Ben,ben,0,60,60,165,0,1,1,1,7,4.575,,,2018_Sep_12_1610,59.5593834571,verb_norming_L1-swe_no_translation,001,806,
VADA,,,0,60,60,165,,,,,,,,,2018_Sep_12_1610,59.5593834571,verb_norming_L1-swe_no_translation,001,806,
KLAPPA,Arm,arm,0,61,61,31,0,0,0,0,7,10.692,,,2018_Sep_12_1610,59.5593834571,verb_norming_L1-swe_no_translation,001,806,
KLAPPA,Ben,ben,0,61,61,31,0,1,1,1,1,4.238,,,2018_Sep_12_1610,59.5593834571,verb_norming_L1-swe_no_translation,001,806,
KLAPPA,,,0,61,61,31,,,,,,,,,2018_Sep_12_1610,59.5593834571,verb_norming_L1-swe_no_translation,001,806,
SIGNERA,Arm,arm,0,62,62,68,0,0,0,0,7,6.515,,,2018_Sep_12_1610,59.5593834571,verb_norming_L1-swe_no_translation,001,806,
SIGNERA,Ben,ben,0,62,62,68,0,1,1,1,1,3.097,,,2018_Sep_12_1610,59.5593834571,verb_norming_L1-swe_no_translation,001,806,
SIGNERA,,,0,62,62,68,,,,,,,,,2018_Sep_12_1610,59.5593834571,verb_norming_L1-swe_no_translation,001,806,
BORSTA,Arm,arm,0,63,63,3,0,0,0,0,7,4.184,,,2018_Sep_12_1610,59.5593834571,verb_norming_L1-swe_no_translation,001,806,
BORSTA,Ben,ben,0,63,63,3,0,1,1,1,1,4.439,,,2018_Sep_12_1610,59.5593834571,verb_norming_L1-swe_no_translation,001,806,
BORSTA,,,0,63,63,3,,,,,,,,,2018_Sep_12_1610,59.5593834571,verb_norming_L1-swe_no_translation,001,806,
RUSA,Arm,arm,0,64,64,134,0,0,0,0,7,9.837,,,2018_Sep_12_1610,59.5593834571,verb_norming_L1-swe_no_translation,001,806,
RUSA,Ben,ben,0,64,64,134,0,1,1,1,7,1.891,,,2018_Sep_12_1610,59.5593834571,verb_norming_L1-swe_no_translation,001,806,
RUSA,,,0,64,64,134,,,,,,,,,2018_Sep_12_1610,59.5593834571,verb_norming_L1-swe_no_translation,001,806,
SKYFFLA,Arm,arm,0,65,65,78,0,0,0,0,7,4.786,,,2018_Sep_12_1610,59.5593834571,verb_norming_L1-swe_no_translation,001,806,
SKYFFLA,Ben,ben,0,65,65,78,0,1,1,1,1,2.24,,,2018_Sep_12_1610,59.5593834571,verb_norming_L1-swe_no_translation,001,806,
SKYFFLA,,,0,65,65,78,,,,,,,,,2018_Sep_12_1610,59.5593834571,verb_norming_L1-swe_no_translation,001,806,
PUTSA,Arm,arm,0,66,66,56,0,0,0,0,7,2.994,,,2018_Sep_12_1610,59.5593834571,verb_norming_L1-swe_no_translation,001,806,
PUTSA,Ben,ben,0,66,66,56,0,1,1,1,1,3.081,,,2018_Sep_12_1610,59.5593834571,verb_norming_L1-swe_no_translation,001,806,
PUTSA,,,0,66,66,56,,,,,,,,,2018_Sep_12_1610,59.5593834571,verb_norming_L1-swe_no_translation,001,806,
FÖSA,Arm,arm,0,67,67,12,0,0,0,0,7,3.244,,,2018_Sep_12_1610,59.5593834571,verb_norming_L1-swe_no_translation,001,806,
FÖSA,Ben,ben,0,67,67,12,0,1,1,1,1,2.341,,,2018_Sep_12_1610,59.5593834571,verb_norming_L1-swe_no_translation,001,806,
FÖSA,,,0,67,67,12,,,,,,,,,2018_Sep_12_1610,59.5593834571,verb_norming_L1-swe_no_translation,001,806,
KRAVLA,Arm,arm,0,68,68,122,0,0,0,0,7,3.799,,,2018_Sep_12_1610,59.5593834571,verb_norming_L1-swe_no_translation,001,806,
KRAVLA,Ben,ben,0,68,68,122,0,1,1,1,2,4.188,,,2018_Sep_12_1610,59.5593834571,verb_norming_L1-swe_no_translation,001,806,
KRAVLA,,,0,68,68,122,,,,,,,,,2018_Sep_12_1610,59.5593834571,verb_norming_L1-swe_no_translation,001,806,
ROTA,Arm,arm,0,69,69,66,0,0,0,0,7,5.377,,,2018_Sep_12_1610,59.5593834571,verb_norming_L1-swe_no_translation,001,806,
ROTA,Ben,ben,0,69,69,66,0,1,1,1,1,6.855,,,2018_Sep_12_1610,59.5593834571,verb_norming_L1-swe_no_translation,001,806,
ROTA,,,0,69,69,66,,,,,,,,,2018_Sep_12_1610,59.5593834571,verb_norming_L1-swe_no_translation,001,806,
STUDSA,Arm,arm,0,70,70,155,0,0,0,0,7,4.939,,,2018_Sep_12_1610,59.5593834571,verb_norming_L1-swe_no_translation,001,806,
STUDSA,Ben,ben,0,70,70,155,0,1,1,1,2,4.556,,,2018_Sep_12_1610,59.5593834571,verb_norming_L1-swe_no_translation,001,806,
STUDSA,,,0,70,70,155,,,,,,,,,2018_Sep_12_1610,59.5593834571,verb_norming_L1-swe_no_translation,001,806,
SNO,Arm,arm,0,71,71,87,0,0,0,0,7,4.287,,,2018_Sep_12_1610,59.5593834571,verb_norming_L1-swe_no_translation,001,806,
SNO,Ben,ben,0,71,71,87,0,1,1,1,1,2.342,,,2018_Sep_12_1610,59.5593834571,verb_norming_L1-swe_no_translation,001,806,
SNO,,,0,71,71,87,,,,,,,,,2018_Sep_12_1610,59.5593834571,verb_norming_L1-swe_no_translation,001,806,
HIVA,Arm,arm,0,72,72,24,0,0,0,0,7,3.599,,,2018_Sep_12_1610,59.5593834571,verb_norming_L1-swe_no_translation,001,806,
HIVA,Ben,ben,0,72,72,24,0,1,1,1,3,5.698,,,2018_Sep_12_1610,59.5593834571,verb_norming_L1-swe_no_translation,001,806,
HIVA,,,0,72,72,24,,,,,,,,,2018_Sep_12_1610,59.5593834571,verb_norming_L1-swe_no_translation,001,806,
TRAMPA,Arm,arm,0,73,73,161,0,0,0,0,1,6.984,,,2018_Sep_12_1610,59.5593834571,verb_norming_L1-swe_no_translation,001,806,
TRAMPA,Ben,ben,0,73,73,161,0,1,1,1,7,2.861,,,2018_Sep_12_1610,59.5593834571,verb_norming_L1-swe_no_translation,001,806,
TRAMPA,,,0,73,73,161,,,,,,,,,2018_Sep_12_1610,59.5593834571,verb_norming_L1-swe_no_translation,001,806,
SKUTTA,Arm,arm,0,74,74,137,0,0,0,0,1,8.595,,,2018_Sep_12_1610,59.5593834571,verb_norming_L1-swe_no_translation,001,806,
SKUTTA,Ben,ben,0,74,74,137,0,1,1,1,7,2.527,,,2018_Sep_12_1610,59.5593834571,verb_norming_L1-swe_no_translation,001,806,
SKUTTA,,,0,74,74,137,,,,,,,,,2018_Sep_12_1610,59.5593834571,verb_norming_L1-swe_no_translation,001,806,
KELA,Arm,arm,0,75,75,28,0,0,0,0,7,4.471,,,2018_Sep_12_1610,59.5593834571,verb_norming_L1-swe_no_translation,001,806,
KELA,Ben,ben,0,75,75,28,0,1,1,1,1,2.025,,,2018_Sep_12_1610,59.5593834571,verb_norming_L1-swe_no_translation,001,806,
KELA,,,0,75,75,28,,,,,,,,,2018_Sep_12_1610,59.5593834571,verb_norming_L1-swe_no_translation,001,806,
VIKA,Arm,arm,0,76,76,98,0,0,0,0,7,4.387,,,2018_Sep_12_1610,59.5593834571,verb_norming_L1-swe_no_translation,001,806,
VIKA,Ben,ben,0,76,76,98,0,1,1,1,1,9.79,,,2018_Sep_12_1610,59.5593834571,verb_norming_L1-swe_no_translation,001,806,
VIKA,,,0,76,76,98,,,,,,,,,2018_Sep_12_1610,59.5593834571,verb_norming_L1-swe_no_translation,001,806,
SPRINGA,Arm,arm,0,77,77,145,0,0,0,0,3,6.465,,,2018_Sep_12_1610,59.5593834571,verb_norming_L1-swe_no_translation,001,806,
SPRINGA,Ben,ben,0,77,77,145,0,1,1,1,7,4.354,,,2018_Sep_12_1610,59.5593834571,verb_norming_L1-swe_no_translation,001,806,
SPRINGA,,,0,77,77,145,,,,,,,,,2018_Sep_12_1610,59.5593834571,verb_norming_L1-swe_no_translation,001,806,
KNYCKA,Arm,arm,0,78,78,39,0,0,0,0,7,4.921,,,2018_Sep_12_1610,59.5593834571,verb_norming_L1-swe_no_translation,001,806,
KNYCKA,Ben,ben,0,78,78,39,0,1,1,1,1,2.76,,,2018_Sep_12_1610,59.5593834571,verb_norming_L1-swe_no_translation,001,806,
KNYCKA,,,0,78,78,39,,,,,,,,,2018_Sep_12_1610,59.5593834571,verb_norming_L1-swe_no_translation,001,806,
SVABBA,Arm,arm,0,79,79,90,0,0,0,0,7,4.269,,,2018_Sep_12_1610,59.5593834571,verb_norming_L1-swe_no_translation,001,806,
SVABBA,Ben,ben,0,79,79,90,0,1,1,1,1,2.728,,,2018_Sep_12_1610,59.5593834571,verb_norming_L1-swe_no_translation,001,806,
SVABBA,,,0,79,79,90,,,,,,,,,2018_Sep_12_1610,59.5593834571,verb_norming_L1-swe_no_translation,001,806,
LYFTA,Arm,arm,0,80,80,44,0,0,0,0,7,4.552,,,2018_Sep_12_1610,59.5593834571,verb_norming_L1-swe_no_translation,001,806,
LYFTA,Ben,ben,0,80,80,44,0,1,1,1,5,11.616,,,2018_Sep_12_1610,59.5593834571,verb_norming_L1-swe_no_translation,001,806,
LYFTA,,,0,80,80,44,,,,,,,,,2018_Sep_12_1610,59.5593834571,verb_norming_L1-swe_no_translation,001,806,
TRUMMA,Arm,arm,0,81,81,94,0,0,0,0,7,4.132,,,2018_Sep_12_1610,59.5593834571,verb_norming_L1-swe_no_translation,001,806,
TRUMMA,Ben,ben,0,81,81,94,0,1,1,1,1,7.675,,,2018_Sep_12_1610,59.5593834571,verb_norming_L1-swe_no_translation,001,806,
TRUMMA,,,0,81,81,94,,,,,,,,,2018_Sep_12_1610,59.5593834571,verb_norming_L1-swe_no_translation,001,806,
SLEVA,Arm,arm,0,82,82,80,0,0,0,0,7,8.243,,,2018_Sep_12_1610,59.5593834571,verb_norming_L1-swe_no_translation,001,806,
SLEVA,Ben,ben,0,82,82,80,0,1,1,1,1,7.274,,,2018_Sep_12_1610,59.5593834571,verb_norming_L1-swe_no_translation,001,806,
SLEVA,,,0,82,82,80,,,,,,,,,2018_Sep_12_1610,59.5593834571,verb_norming_L1-swe_no_translation,001,806,
FLANERA,Arm,arm,0,83,83,104,0,0,0,0,1,6.547,,,2018_Sep_12_1610,59.5593834571,verb_norming_L1-swe_no_translation,001,806,
FLANERA,Ben,ben,0,83,83,104,0,1,1,1,7,4.707,,,2018_Sep_12_1610,59.5593834571,verb_norming_L1-swe_no_translation,001,806,
FLANERA,,,0,83,83,104,,,,,,,,,2018_Sep_12_1610,59.5593834571,verb_norming_L1-swe_no_translation,001,806,
GRABBA,Arm,arm,0,84,84,16,0,0,0,0,7,4.402,,,2018_Sep_12_1610,59.5593834571,verb_norming_L1-swe_no_translation,001,806,
GRABBA,Ben,ben,0,84,84,16,0,1,1,1,1,2.058,,,2018_Sep_12_1610,59.5593834571,verb_norming_L1-swe_no_translation,001,806,
GRABBA,,,0,84,84,16,,,,,,,,,2018_Sep_12_1610,59.5593834571,verb_norming_L1-swe_no_translation,001,806,
KILA,Arm,arm,0,85,85,115,0,0,0,0,1,5.158,,,2018_Sep_12_1610,59.5593834571,verb_norming_L1-swe_no_translation,001,806,
KILA,Ben,ben,0,85,85,115,0,1,1,1,7,3.065,,,2018_Sep_12_1610,59.5593834571,verb_norming_L1-swe_no_translation,001,806,
KILA,,,0,85,85,115,,,,,,,,,2018_Sep_12_1610,59.5593834571,verb_norming_L1-swe_no_translation,001,806,
RULLA,Arm,arm,0,86,86,132,0,0,0,0,7,5.745,,,2018_Sep_12_1610,59.5593834571,verb_norming_L1-swe_no_translation,001,806,
RULLA,Ben,ben,0,86,86,132,0,1,1,1,1,9.588,,,2018_Sep_12_1610,59.5593834571,verb_norming_L1-swe_no_translation,001,806,
RULLA,,,0,86,86,132,,,,,,,,,2018_Sep_12_1610,59.5593834571,verb_norming_L1-swe_no_translation,001,806,
JOGGA,Arm,arm,0,87,87,114,0,0,0,0,2,5.208,,,2018_Sep_12_1610,59.5593834571,verb_norming_L1-swe_no_translation,001,806,
JOGGA,Ben,ben,0,87,87,114,0,1,1,1,7,2.863,,,2018_Sep_12_1610,59.5593834571,verb_norming_L1-swe_no_translation,001,806,
JOGGA,,,0,87,87,114,,,,,,,,,2018_Sep_12_1610,59.5593834571,verb_norming_L1-swe_no_translation,001,806,
KNIVHUGGA,Arm,arm,0,88,88,38,0,0,0,0,7,3.78,,,2018_Sep_12_1610,59.5593834571,verb_norming_L1-swe_no_translation,001,806,
KNIVHUGGA,Ben,ben,0,88,88,38,0,1,1,1,1,9.15,,,2018_Sep_12_1610,59.5593834571,verb_norming_L1-swe_no_translation,001,806,
KNIVHUGGA,,,0,88,88,38,,,,,,,,,2018_Sep_12_1610,59.5593834571,verb_norming_L1-swe_no_translation,001,806,
GRÄVA,Arm,arm,0,89,89,17,0,0,0,0,7,7.288,,,2018_Sep_12_1610,59.5593834571,verb_norming_L1-swe_no_translation,001,806,
GRÄVA,Ben,ben,0,89,89,17,0,1,1,1,3,5.479,,,2018_Sep_12_1610,59.5593834571,verb_norming_L1-swe_no_translation,001,806,
GRÄVA,,,0,89,89,17,,,,,,,,,2018_Sep_12_1610,59.5593834571,verb_norming_L1-swe_no_translation,001,806,
HAFFA,Arm,arm,0,90,90,21,0,0,0,0,7,5.493,,,2018_Sep_12_1610,59.5593834571,verb_norming_L1-swe_no_translation,001,806,
HAFFA,Ben,ben,0,90,90,21,0,1,1,1,1,2.109,,,2018_Sep_12_1610,59.5593834571,verb_norming_L1-swe_no_translation,001,806,
HAFFA,,,0,90,90,21,,,,,,,,,2018_Sep_12_1610,59.5593834571,verb_norming_L1-swe_no_translation,001,806,
PLOCKA,Arm,arm,0,91,91,53,0,0,0,0,7,2.908,,,2018_Sep_12_1610,59.5593834571,verb_norming_L1-swe_no_translation,001,806,
PLOCKA,Ben,ben,0,91,91,53,0,1,1,1,1,4.555,,,2018_Sep_12_1610,59.5593834571,verb_norming_L1-swe_no_translation,001,806,
PLOCKA,,,0,91,91,53,,,,,,,,,2018_Sep_12_1610,59.5593834571,verb_norming_L1-swe_no_translation,001,806,
PINNA,Arm,arm,0,92,92,128,0,0,0,0,1,5.694,,,2018_Sep_12_1610,59.5593834571,verb_norming_L1-swe_no_translation,001,806,
PINNA,Ben,ben,0,92,92,128,0,1,1,1,7,4.876,,,2018_Sep_12_1610,59.5593834571,verb_norming_L1-swe_no_translation,001,806,
PINNA,,,0,92,92,128,,,,,,,,,2018_Sep_12_1610,59.5593834571,verb_norming_L1-swe_no_translation,001,806,
BANKA,Arm,arm,0,93,93,1,0,0,0,0,7,4.889,,,2018_Sep_12_1610,59.5593834571,verb_norming_L1-swe_no_translation,001,806,
BANKA,Ben,ben,0,93,93,1,0,1,1,1,1,3.634,,,2018_Sep_12_1610,59.5593834571,verb_norming_L1-swe_no_translation,001,806,
BANKA,,,0,93,93,1,,,,,,,,,2018_Sep_12_1610,59.5593834571,verb_norming_L1-swe_no_translation,001,806,
MARSCHERA,Arm,arm,0,94,94,127,0,0,0,0,7,5.741,,,2018_Sep_12_1610,59.5593834571,verb_norming_L1-swe_no_translation,001,806,
MARSCHERA,Ben,ben,0,94,94,127,0,1,1,1,7,2.338,,,2018_Sep_12_1610,59.5593834571,verb_norming_L1-swe_no_translation,001,806,
MARSCHERA,,,0,94,94,127,,,,,,,,,2018_Sep_12_1610,59.5593834571,verb_norming_L1-swe_no_translation,001,806,
SMÄLLA,Arm,arm,0,95,95,84,0,0,0,0,7,4.451,,,2018_Sep_12_1610,59.5593834571,verb_norming_L1-swe_no_translation,001,806,
SMÄLLA,Ben,ben,0,95,95,84,0,1,1,1,1,1.888,,,2018_Sep_12_1610,59.5593834571,verb_norming_L1-swe_no_translation,001,806,
SMÄLLA,,,0,95,95,84,,,,,,,,,2018_Sep_12_1610,59.5593834571,verb_norming_L1-swe_no_translation,001,806,
SKURA,Arm,arm,0,96,96,77,0,0,0,0,7,3.447,,,2018_Sep_12_1610,59.5593834571,verb_norming_L1-swe_no_translation,001,806,
SKURA,Ben,ben,0,96,96,77,0,1,1,1,1,4.104,,,2018_Sep_12_1610,59.5593834571,verb_norming_L1-swe_no_translation,001,806,
SKURA,,,0,96,96,77,,,,,,,,,2018_Sep_12_1610,59.5593834571,verb_norming_L1-swe_no_translation,001,806,
FLÄTA,Arm,arm,0,97,97,11,0,0,0,0,7,4.671,,,2018_Sep_12_1610,59.5593834571,verb_norming_L1-swe_no_translation,001,806,
FLÄTA,Ben,ben,0,97,97,11,0,1,1,1,1,3.567,,,2018_Sep_12_1610,59.5593834571,verb_norming_L1-swe_no_translation,001,806,
FLÄTA,,,0,97,97,11,,,,,,,,,2018_Sep_12_1610,59.5593834571,verb_norming_L1-swe_no_translation,001,806,
STÅ,Arm,arm,0,98,98,147,0,0,0,0,4,13.075,,,2018_Sep_12_1610,59.5593834571,verb_norming_L1-swe_no_translation,001,806,
STÅ,Ben,ben,0,98,98,147,0,1,1,1,4,1.103,,,2018_Sep_12_1610,59.5593834571,verb_norming_L1-swe_no_translation,001,806,
STÅ,,,0,98,98,147,,,,,,,,,2018_Sep_12_1610,59.5593834571,verb_norming_L1-swe_no_translation,001,806,
VINGLA,Arm,arm,0,99,99,168,0,0,0,0,3,7.639,,,2018_Sep_12_1610,59.5593834571,verb_norming_L1-swe_no_translation,001,806,
VINGLA,Ben,ben,0,99,99,168,0,1,1,1,7,4.472,,,2018_Sep_12_1610,59.5593834571,verb_norming_L1-swe_no_translation,001,806,
VINGLA,,,0,99,99,168,,,,,,,,,2018_Sep_12_1610,59.5593834571,verb_norming_L1-swe_no_translation,001,806,
RO,Arm,arm,0,100,100,64,0,0,0,0,7,6.702,,,2018_Sep_12_1610,59.5593834571,verb_norming_L1-swe_no_translation,001,806,
RO,Ben,ben,0,100,100,64,0,1,1,1,1,2.412,,,2018_Sep_12_1610,59.5593834571,verb_norming_L1-swe_no_translation,001,806,
RO,,,0,100,100,64,,,,,,,,,2018_Sep_12_1610,59.5593834571,verb_norming_L1-swe_no_translation,001,806,
TORKA,Arm,arm,0,101,101,93,0,0,0,0,7,3.163,,,2018_Sep_12_1610,59.5593834571,verb_norming_L1-swe_no_translation,001,806,
TORKA,Ben,ben,0,101,101,93,0,1,1,1,1,3.349,,,2018_Sep_12_1610,59.5593834571,verb_norming_L1-swe_no_translation,001,806,
TORKA,,,0,101,101,93,,,,,,,,,2018_Sep_12_1610,59.5593834571,verb_norming_L1-swe_no_translation,001,806,
KOPPLA,Arm,arm,0,102,102,40,0,0,0,0,7,6.365,,,2018_Sep_12_1610,59.5593834571,verb_norming_L1-swe_no_translation,001,806,
KOPPLA,Ben,ben,0,102,102,40,0,1,1,1,2,5.546,,,2018_Sep_12_1610,59.5593834571,verb_norming_L1-swe_no_translation,001,806,
KOPPLA,,,0,102,102,40,,,,,,,,,2018_Sep_12_1610,59.5593834571,verb_norming_L1-swe_no_translation,001,806,
LÖPA,Arm,arm,0,103,103,125,0,0,0,0,1,5.391,,,2018_Sep_12_1610,59.5593834571,verb_norming_L1-swe_no_translation,001,806,
LÖPA,Ben,ben,0,103,103,125,0,1,1,1,7,4.136,,,2018_Sep_12_1610,59.5593834571,verb_norming_L1-swe_no_translation,001,806,
LÖPA,,,0,103,103,125,,,,,,,,,2018_Sep_12_1610,59.5593834571,verb_norming_L1-swe_no_translation,001,806,
SLIPA,Arm,arm,0,104,104,81,0,0,0,0,7,5.208,,,2018_Sep_12_1610,59.5593834571,verb_norming_L1-swe_no_translation,001,806,
SLIPA,Ben,ben,0,104,104,81,0,1,1,1,1,4.39,,,2018_Sep_12_1610,59.5593834571,verb_norming_L1-swe_no_translation,001,806,
SLIPA,,,0,104,104,81,,,,,,,,,2018_Sep_12_1610,59.5593834571,verb_norming_L1-swe_no_translation,001,806,
RÖRA,Arm,arm,0,105,105,65,0,0,0,0,7,4.854,,,2018_Sep_12_1610,59.5593834571,verb_norming_L1-swe_no_translation,001,806,
RÖRA,Ben,ben,0,105,105,65,0,1,1,1,1,9.352,,,2018_Sep_12_1610,59.5593834571,verb_norming_L1-swe_no_translation,001,806,
RÖRA,,,0,105,105,65,,,,,,,,,2018_Sep_12_1610,59.5593834571,verb_norming_L1-swe_no_translation,001,806,
IRRA,Arm,arm,0,106,106,113,0,0,0,0,4,5.226,,,2018_Sep_12_1610,59.5593834571,verb_norming_L1-swe_no_translation,001,806,
IRRA,Ben,ben,0,106,106,113,0,1,1,1,4,0.969,,,2018_Sep_12_1610,59.5593834571,verb_norming_L1-swe_no_translation,001,806,
IRRA,,,0,106,106,113,,,,,,,,,2018_Sep_12_1610,59.5593834571,verb_norming_L1-swe_no_translation,001,806,
VANKA,Arm,arm,0,107,107,167,0,0,0,0,1,3.145,,,2018_Sep_12_1610,59.5593834571,verb_norming_L1-swe_no_translation,001,806,
VANKA,Ben,ben,0,107,107,167,0,1,1,1,7,4.155,,,2018_Sep_12_1610,59.5593834571,verb_norming_L1-swe_no_translation,001,806,
VANKA,,,0,107,107,167,,,,,,,,,2018_Sep_12_1610,59.5593834571,verb_norming_L1-swe_no_translation,001,806,
STEGA,Arm,arm,0,108,108,150,0,0,0,0,1,6.902,,,2018_Sep_12_1610,59.5593834571,verb_norming_L1-swe_no_translation,001,806,
STEGA,Ben,ben,0,108,108,150,0,1,1,1,7,4.489,,,2018_Sep_12_1610,59.5593834571,verb_norming_L1-swe_no_translation,001,806,
STEGA,,,0,108,108,150,,,,,,,,,2018_Sep_12_1610,59.5593834571,verb_norming_L1-swe_no_translation,001,806,
KLÄMMA,Arm,arm,0,109,109,30,0,0,0,0,7,8.828,,,2018_Sep_12_1610,59.5593834571,verb_norming_L1-swe_no_translation,001,806,
KLÄMMA,Ben,ben,0,109,109,30,0,1,1,1,1,1.234,,,2018_Sep_12_1610,59.5593834571,verb_norming_L1-swe_no_translation,001,806,
KLÄMMA,,,0,109,109,30,,,,,,,,,2018_Sep_12_1610,59.5593834571,verb_norming_L1-swe_no_translation,001,806,
KNACKA,Arm,arm,0,110,110,36,0,0,0,0,7,3.076,,,2018_Sep_12_1610,59.5593834571,verb_norming_L1-swe_no_translation,001,806,
KNACKA,Ben,ben,0,110,110,36,0,1,1,1,1,3.414,,,2018_Sep_12_1610,59.5593834571,verb_norming_L1-swe_no_translation,001,806,
KNACKA,,,0,110,110,36,,,,,,,,,2018_Sep_12_1610,59.5593834571,verb_norming_L1-swe_no_translation,001,806,
KNALLA,Arm,arm,0,111,111,119,0,0,0,0,1,6.281,,,2018_Sep_12_1610,59.5593834571,verb_norming_L1-swe_no_translation,001,806,
KNALLA,Ben,ben,0,111,111,119,0,1,1,1,7,1.704,,,2018_Sep_12_1610,59.5593834571,verb_norming_L1-swe_no_translation,001,806,
KNALLA,,,0,111,111,119,,,,,,,,,2018_Sep_12_1610,59.5593834571,verb_norming_L1-swe_no_translation,001,806,
TVÄTTA,Arm,arm,0,112,112,96,0,0,0,0,7,4.118,,,2018_Sep_12_1610,59.5593834571,verb_norming_L1-swe_no_translation,001,806,
TVÄTTA,Ben,ben,0,112,112,96,0,1,1,1,1,1.504,,,2018_Sep_12_1610,59.5593834571,verb_norming_L1-swe_no_translation,001,806,
TVÄTTA,,,0,112,112,96,,,,,,,,,2018_Sep_12_1610,59.5593834571,verb_norming_L1-swe_no_translation,001,806,
DASKA,Arm,arm,0,113,113,5,0,0,0,0,7,39.27,,,2018_Sep_12_1610,59.5593834571,verb_norming_L1-swe_no_translation,001,806,
DASKA,Ben,ben,0,113,113,5,0,1,1,1,1,4.422,,,2018_Sep_12_1610,59.5593834571,verb_norming_L1-swe_no_translation,001,806,
DASKA,,,0,113,113,5,,,,,,,,,2018_Sep_12_1610,59.5593834571,verb_norming_L1-swe_no_translation,001,806,
KLIVA,Arm,arm,0,114,114,117,0,0,0,0,1,6.248,,,2018_Sep_12_1610,59.5593834571,verb_norming_L1-swe_no_translation,001,806,
KLIVA,Ben,ben,0,114,114,117,0,1,1,1,7,2.594,,,2018_Sep_12_1610,59.5593834571,verb_norming_L1-swe_no_translation,001,806,
KLIVA,,,0,114,114,117,,,,,,,,,2018_Sep_12_1610,59.5593834571,verb_norming_L1-swe_no_translation,001,806,
LINKA,Arm,arm,0,115,115,124,0,0,0,0,1,4.504,,,2018_Sep_12_1610,59.5593834571,verb_norming_L1-swe_no_translation,001,806,
LINKA,Ben,ben,0,115,115,124,0,1,1,1,7,3.416,,,2018_Sep_12_1610,59.5593834571,verb_norming_L1-swe_no_translation,001,806,
LINKA,,,0,115,115,124,,,,,,,,,2018_Sep_12_1610,59.5593834571,verb_norming_L1-swe_no_translation,001,806,
TA,Arm,arm,0,116,116,92,0,0,0,0,7,4.623,,,2018_Sep_12_1610,59.5593834571,verb_norming_L1-swe_no_translation,001,806,
TA,Ben,ben,0,116,116,92,0,1,1,1,1,6.52,,,2018_Sep_12_1610,59.5593834571,verb_norming_L1-swe_no_translation,001,806,
TA,,,0,116,116,92,,,,,,,,,2018_Sep_12_1610,59.5593834571,verb_norming_L1-swe_no_translation,001,806,
SLUNGA,Arm,arm,0,117,117,83,0,0,0,0,7,4.252,,,2018_Sep_12_1610,59.5593834571,verb_norming_L1-swe_no_translation,001,806,
SLUNGA,Ben,ben,0,117,117,83,0,1,1,1,1,2.829,,,2018_Sep_12_1610,59.5593834571,verb_norming_L1-swe_no_translation,001,806,
SLUNGA,,,0,117,117,83,,,,,,,,,2018_Sep_12_1610,59.5593834571,verb_norming_L1-swe_no_translation,001,806,
SKRIDA,Arm,arm,0,118,118,136,0,0,0,0,1,4.654,,,2018_Sep_12_1610,59.5593834571,verb_norming_L1-swe_no_translation,001,806,
SKRIDA,Ben,ben,0,118,118,136,0,1,1,1,7,3.718,,,2018_Sep_12_1610,59.5593834571,verb_norming_L1-swe_no_translation,001,806,
SKRIDA,,,0,118,118,136,,,,,,,,,2018_Sep_12_1610,59.5593834571,verb_norming_L1-swe_no_translation,001,806,
VACKLA,Arm,arm,0,119,119,164,0,0,0,0,1,5.86,,,2018_Sep_12_1610,59.5593834571,verb_norming_L1-swe_no_translation,001,806,
VACKLA,Ben,ben,0,119,119,164,0,1,1,1,7,1.016,,,2018_Sep_12_1610,59.5593834571,verb_norming_L1-swe_no_translation,001,806,
VACKLA,,,0,119,119,164,,,,,,,,,2018_Sep_12_1610,59.5593834571,verb_norming_L1-swe_no_translation,001,806,
NAPPA,Arm,arm,0,120,120,45,0,0,0,0,7,6.398,,,2018_Sep_12_1610,59.5593834571,verb_norming_L1-swe_no_translation,001,806,
NAPPA,Ben,ben,0,120,120,45,0,1,1,1,1,8.481,,,2018_Sep_12_1610,59.5593834571,verb_norming_L1-swe_no_translation,001,806,
NAPPA,,,0,120,120,45,,,,,,,,,2018_Sep_12_1610,59.5593834571,verb_norming_L1-swe_no_translation,001,806,
PRESSA,Arm,arm,0,121,121,55,0,0,0,0,7,11.547,,,2018_Sep_12_1610,59.5593834571,verb_norming_L1-swe_no_translation,001,806,
PRESSA,Ben,ben,0,121,121,55,0,1,1,1,7,1.202,,,2018_Sep_12_1610,59.5593834571,verb_norming_L1-swe_no_translation,001,806,
PRESSA,,,0,121,121,55,,,,,,,,,2018_Sep_12_1610,59.5593834571,verb_norming_L1-swe_no_translation,001,806,
STAPPLA,Arm,arm,0,122,122,149,0,0,0,0,1,4.503,,,2018_Sep_12_1610,59.5593834571,verb_norming_L1-swe_no_translation,001,806,
STAPPLA,Ben,ben,0,122,122,149,0,1,1,1,7,2.46,,,2018_Sep_12_1610,59.5593834571,verb_norming_L1-swe_no_translation,001,806,
STAPPLA,,,0,122,122,149,,,,,,,,,2018_Sep_12_1610,59.5593834571,verb_norming_L1-swe_no_translation,001,806,
STRÖVA,Arm,arm,0,123,123,153,0,0,0,0,1,4.166,,,2018_Sep_12_1610,59.5593834571,verb_norming_L1-swe_no_translation,001,806,
STRÖVA,Ben,ben,0,123,123,153,0,1,1,1,7,3.465,,,2018_Sep_12_1610,59.5593834571,verb_norming_L1-swe_no_translation,001,806,
STRÖVA,,,0,123,123,153,,,,,,,,,2018_Sep_12_1610,59.5593834571,verb_norming_L1-swe_no_translation,001,806,
LINDA,Arm,arm,0,124,124,43,0,0,0,0,7,7.556,,,2018_Sep_12_1610,59.5593834571,verb_norming_L1-swe_no_translation,001,806,
LINDA,Ben,ben,0,124,124,43,0,1,1,1,1,3.417,,,2018_Sep_12_1610,59.5593834571,verb_norming_L1-swe_no_translation,001,806,
LINDA,,,0,124,124,43,,,,,,,,,2018_Sep_12_1610,59.5593834571,verb_norming_L1-swe_no_translation,001,806,
KASTA,Arm,arm,0,125,125,27,0,0,0,0,7,8.193,,,2018_Sep_12_1610,59.5593834571,verb_norming_L1-swe_no_translation,001,806,
KASTA,Ben,ben,0,125,125,27,0,1,1,1,1,4.742,,,2018_Sep_12_1610,59.5593834571,verb_norming_L1-swe_no_translation,001,806,
KASTA,,,0,125,125,27,,,,,,,,,2018_Sep_12_1610,59.5593834571,verb_norming_L1-swe_no_translation,001,806,
ILA,Arm,arm,0,126,126,112,0,0,0,0,1,13.242,,,2018_Sep_12_1610,59.5593834571,verb_norming_L1-swe_no_translation,001,806,
ILA,Ben,ben,0,126,126,112,0,1,1,1,7,1.204,,,2018_Sep_12_1610,59.5593834571,verb_norming_L1-swe_no_translation,001,806,
ILA,,,0,126,126,112,,,,,,,,,2018_Sep_12_1610,59.5593834571,verb_norming_L1-swe_no_translation,001,806,
KLICKA,Arm,arm,0,127,127,33,0,0,0,0,7,6.95,,,2018_Sep_12_1610,59.5593834571,verb_norming_L1-swe_no_translation,001,806,
KLICKA,Ben,ben,0,127,127,33,0,1,1,1,1,8.546,,,2018_Sep_12_1610,59.5593834571,verb_norming_L1-swe_no_translation,001,806,
KLICKA,,,0,127,127,33,,,,,,,,,2018_Sep_12_1610,59.5593834571,verb_norming_L1-swe_no_translation,001,806,
FILA,Arm,arm,0,128,128,10,0,0,0,0,7,80.644,,,2018_Sep_12_1610,59.5593834571,verb_norming_L1-swe_no_translation,001,806,
FILA,Ben,ben,0,128,128,10,0,1,1,1,1,6.821,,,2018_Sep_12_1610,59.5593834571,verb_norming_L1-swe_no_translation,001,806,
FILA,,,0,128,128,10,,,,,,,,,2018_Sep_12_1610,59.5593834571,verb_norming_L1-swe_no_translation,001,806,
RÄNNA,Arm,arm,0,129,129,131,0,0,0,0,1,5.04,,,2018_Sep_12_1610,59.5593834571,verb_norming_L1-swe_no_translation,001,806,
RÄNNA,Ben,ben,0,129,129,131,0,1,1,1,7,4.959,,,2018_Sep_12_1610,59.5593834571,verb_norming_L1-swe_no_translation,001,806,
RÄNNA,,,0,129,129,131,,,,,,,,,2018_Sep_12_1610,59.5593834571,verb_norming_L1-swe_no_translation,001,806,
STRUTTA,Arm,arm,0,130,130,154,0,0,0,0,1,6.213,,,2018_Sep_12_1610,59.5593834571,verb_norming_L1-swe_no_translation,001,806,
STRUTTA,Ben,ben,0,130,130,154,0,1,1,1,7,5.411,,,2018_Sep_12_1610,59.5593834571,verb_norming_L1-swe_no_translation,001,806,
STRUTTA,,,0,130,130,154,,,,,,,,,2018_Sep_12_1610,59.5593834571,verb_norming_L1-swe_no_translation,001,806,
GNIDA,Arm,arm,0,131,131,14,0,0,0,0,7,4.856,,,2018_Sep_12_1610,59.5593834571,verb_norming_L1-swe_no_translation,001,806,
GNIDA,Ben,ben,0,131,131,14,0,1,1,1,7,2.192,,,2018_Sep_12_1610,59.5593834571,verb_norming_L1-swe_no_translation,001,806,
GNIDA,,,0,131,131,14,,,,,,,,,2018_Sep_12_1610,59.5593834571,verb_norming_L1-swe_no_translation,001,806,
KNOGA,Arm,arm,0,132,132,121,0,0,0,0,4,9.451,,,2018_Sep_12_1610,59.5593834571,verb_norming_L1-swe_no_translation,001,806,
KNOGA,Ben,ben,0,132,132,121,0,1,1,1,4,1.018,,,2018_Sep_12_1610,59.5593834571,verb_norming_L1-swe_no_translation,001,806,
KNOGA,,,0,132,132,121,,,,,,,,,2018_Sep_12_1610,59.5593834571,verb_norming_L1-swe_no_translation,001,806,
SMYGA,Arm,arm,0,133,133,141,0,0,0,0,1,6.246,,,2018_Sep_12_1610,59.5593834571,verb_norming_L1-swe_no_translation,001,806,
SMYGA,Ben,ben,0,133,133,141,0,1,1,1,7,2.76,,,2018_Sep_12_1610,59.5593834571,verb_norming_L1-swe_no_translation,001,806,
SMYGA,,,0,133,133,141,,,,,,,,,2018_Sep_12_1610,59.5593834571,verb_norming_L1-swe_no_translation,001,806,
GÅ,Arm,arm,0,134,134,106,0,0,0,0,3,5.544,,,2018_Sep_12_1610,59.5593834571,verb_norming_L1-swe_no_translation,001,806,
GÅ,Ben,ben,0,134,134,106,0,1,1,1,7,2.78,,,2018_Sep_12_1610,59.5593834571,verb_norming_L1-swe_no_translation,001,806,
GÅ,,,0,134,134,106,,,,,,,,,2018_Sep_12_1610,59.5593834571,verb_norming_L1-swe_no_translation,001,806,
PILLA,Arm,arm,0,135,135,51,0,0,0,0,7,3.514,,,2018_Sep_12_1610,59.5593834571,verb_norming_L1-swe_no_translation,001,806,
PILLA,Ben,ben,0,135,135,51,0,1,1,1,1,5.731,,,2018_Sep_12_1610,59.5593834571,verb_norming_L1-swe_no_translation,001,806,
PILLA,,,0,135,135,51,,,,,,,,,2018_Sep_12_1610,59.5593834571,verb_norming_L1-swe_no_translation,001,806,
VIRA,Arm,arm,0,136,136,99,0,0,0,0,7,3.75,,,2018_Sep_12_1610,59.5593834571,verb_norming_L1-swe_no_translation,001,806,
VIRA,Ben,ben,0,136,136,99,0,1,1,1,5,6.939,,,2018_Sep_12_1610,59.5593834571,verb_norming_L1-swe_no_translation,001,806,
VIRA,,,0,136,136,99,,,,,,,,,2018_Sep_12_1610,59.5593834571,verb_norming_L1-swe_no_translation,001,806,
SVASSA,Arm,arm,0,137,137,157,0,0,0,0,4,11.714,,,2018_Sep_12_1610,59.5593834571,verb_norming_L1-swe_no_translation,001,806,
SVASSA,Ben,ben,0,137,137,157,0,1,1,1,4,1.973,,,2018_Sep_12_1610,59.5593834571,verb_norming_L1-swe_no_translation,001,806,
SVASSA,,,0,137,137,157,,,,,,,,,2018_Sep_12_1610,59.5593834571,verb_norming_L1-swe_no_translation,001,806,
STÖTA,Arm,arm,0,138,138,89,0,0,0,0,7,9.164,,,2018_Sep_12_1610,59.5593834571,verb_norming_L1-swe_no_translation,001,806,
STÖTA,Ben,ben,0,138,138,89,0,1,1,1,4,9.334,,,2018_Sep_12_1610,59.5593834571,verb_norming_L1-swe_no_translation,001,806,
STÖTA,,,0,138,138,89,,,,,,,,,2018_Sep_12_1610,59.5593834571,verb_norming_L1-swe_no_translation,001,806,
SLÄNTRA,Arm,arm,0,139,139,139,0,0,0,0,1,4.637,,,2018_Sep_12_1610,59.5593834571,verb_norming_L1-swe_no_translation,001,806,
SLÄNTRA,Ben,ben,0,139,139,139,0,1,1,1,7,1.084,,,2018_Sep_12_1610,59.5593834571,verb_norming_L1-swe_no_translation,001,806,
SLÄNTRA,,,0,139,139,139,,,,,,,,,2018_Sep_12_1610,59.5593834571,verb_norming_L1-swe_no_translation,001,806,
PUTTA,Arm,arm,0,140,140,57,0,0,0,0,7,3.414,,,2018_Sep_12_1610,59.5593834571,verb_norming_L1-swe_no_translation,001,806,
PUTTA,Ben,ben,0,140,140,57,0,1,1,1,1,5.06,,,2018_Sep_12_1610,59.5593834571,verb_norming_L1-swe_no_translation,001,806,
PUTTA,,,0,140,140,57,,,,,,,,,2018_Sep_12_1610,59.5593834571,verb_norming_L1-swe_no_translation,001,806,
NYPA,Arm,arm,0,141,141,47,0,0,0,0,7,2.641,,,2018_Sep_12_1610,59.5593834571,verb_norming_L1-swe_no_translation,001,806,
NYPA,Ben,ben,0,141,141,47,0,1,1,1,1,5.344,,,2018_Sep_12_1610,59.5593834571,verb_norming_L1-swe_no_translation,001,806,
NYPA,,,0,141,141,47,,,,,,,,,2018_Sep_12_1610,59.5593834571,verb_norming_L1-swe_no_translation,001,806,
ÖSA,Arm,arm,0,142,142,48,0,0,0,0,7,3.698,,,2018_Sep_12_1610,59.5593834571,verb_norming_L1-swe_no_translation,001,806,
ÖSA,Ben,ben,0,142,142,48,0,1,1,1,1,3.365,,,2018_Sep_12_1610,59.5593834571,verb_norming_L1-swe_no_translation,001,806,
ÖSA,,,0,142,142,48,,,,,,,,,2018_Sep_12_1610,59.5593834571,verb_norming_L1-swe_no_translation,001,806,
KNÄA,Arm,arm,0,143,143,118,0,0,0,0,1,6.047,,,2018_Sep_12_1610,59.5593834571,verb_norming_L1-swe_no_translation,001,806,
KNÄA,Ben,ben,0,143,143,118,0,1,1,1,7,1.27,,,2018_Sep_12_1610,59.5593834571,verb_norming_L1-swe_no_translation,001,806,
KNÄA,,,0,143,143,118,,,,,,,,,2018_Sep_12_1610,59.5593834571,verb_norming_L1-swe_no_translation,001,806,
HÅVA,Arm,arm,0,144,144,22,0,0,0,0,7,8.076,,,2018_Sep_12_1610,59.5593834571,verb_norming_L1-swe_no_translation,001,806,
HÅVA,Ben,ben,0,144,144,22,0,1,1,1,1,2.344,,,2018_Sep_12_1610,59.5593834571,verb_norming_L1-swe_no_translation,001,806,
HÅVA,,,0,144,144,22,,,,,,,,,2018_Sep_12_1610,59.5593834571,verb_norming_L1-swe_no_translation,001,806,
RYCKA,Arm,arm,0,145,145,67,0,0,0,0,7,3.261,,,2018_Sep_12_1610,59.5593834571,verb_norming_L1-swe_no_translation,001,806,
RYCKA,Ben,ben,0,145,145,67,0,1,1,1,1,3.834,,,2018_Sep_12_1610,59.5593834571,verb_norming_L1-swe_no_translation,001,806,
RYCKA,,,0,145,145,67,,,,,,,,,2018_Sep_12_1610,59.5593834571,verb_norming_L1-swe_no_translation,001,806,
GESTIKULERA,Arm,arm,0,146,146,13,0,0,0,0,7,6.194,,,2018_Sep_12_1610,59.5593834571,verb_norming_L1-swe_no_translation,001,806,
GESTIKULERA,Ben,ben,0,146,146,13,0,1,1,1,1,8.998,,,2018_Sep_12_1610,59.5593834571,verb_norming_L1-swe_no_translation,001,806,
GESTIKULERA,,,0,146,146,13,,,,,,,,,2018_Sep_12_1610,59.5593834571,verb_norming_L1-swe_no_translation,001,806,
GRIPA,Arm,arm,0,147,147,19,0,0,0,0,7,7.019,,,2018_Sep_12_1610,59.5593834571,verb_norming_L1-swe_no_translation,001,806,
GRIPA,Ben,ben,0,147,147,19,0,1,1,1,1,2.846,,,2018_Sep_12_1610,59.5593834571,verb_norming_L1-swe_no_translation,001,806,
GRIPA,,,0,147,147,19,,,,,,,,,2018_Sep_12_1610,59.5593834571,verb_norming_L1-swe_no_translation,001,806,
KRYPA,Arm,arm,0,148,148,123,0,0,0,0,5,9.365,,,2018_Sep_12_1610,59.5593834571,verb_norming_L1-swe_no_translation,001,806,
KRYPA,Ben,ben,0,148,148,123,0,1,1,1,5,3.615,,,2018_Sep_12_1610,59.5593834571,verb_norming_L1-swe_no_translation,001,806,
KRYPA,,,0,148,148,123,,,,,,,,,2018_Sep_12_1610,59.5593834571,verb_norming_L1-swe_no_translation,001,806,
KLIPPA,Arm,arm,0,149,149,34,0,0,0,0,7,4.369,,,2018_Sep_12_1610,59.5593834571,verb_norming_L1-swe_no_translation,001,806,
KLIPPA,Ben,ben,0,149,149,34,0,1,1,1,1,4.725,,,2018_Sep_12_1610,59.5593834571,verb_norming_L1-swe_no_translation,001,806,
KLIPPA,,,0,149,149,34,,,,,,,,,2018_Sep_12_1610,59.5593834571,verb_norming_L1-swe_no_translation,001,806,
KRATSA,Arm,arm,0,150,150,42,0,0,0,0,4,6.768,,,2018_Sep_12_1610,59.5593834571,verb_norming_L1-swe_no_translation,001,806,
KRATSA,Ben,ben,0,150,150,42,0,1,1,1,4,2.812,,,2018_Sep_12_1610,59.5593834571,verb_norming_L1-swe_no_translation,001,806,
KRATSA,,,0,150,150,42,,,,,,,,,2018_Sep_12_1610,59.5593834571,verb_norming_L1-swe_no_translation,001,806,
REPA,Arm,arm,0,151,151,61,0,0,0,0,7,4.368,,,2018_Sep_12_1610,59.5593834571,verb_norming_L1-swe_no_translation,001,806,
REPA,Ben,ben,0,151,151,61,0,1,1,1,1,1.606,,,2018_Sep_12_1610,59.5593834571,verb_norming_L1-swe_no_translation,001,806,
REPA,,,0,151,151,61,,,,,,,,,2018_Sep_12_1610,59.5593834571,verb_norming_L1-swe_no_translation,001,806,
KLÄTTRA,Arm,arm,0,152,152,116,0,0,0,0,7,4.486,,,2018_Sep_12_1610,59.5593834571,verb_norming_L1-swe_no_translation,001,806,
KLÄTTRA,Ben,ben,0,152,152,116,0,1,1,1,7,5.982,,,2018_Sep_12_1610,59.5593834571,verb_norming_L1-swe_no_translation,001,806,
KLÄTTRA,,,0,152,152,116,,,,,,,,,2018_Sep_12_1610,59.5593834571,verb_norming_L1-swe_no_translation,001,806,
RASPA,Arm,arm,0,153,153,60,0,0,0,0,4,7.706,,,2018_Sep_12_1610,59.5593834571,verb_norming_L1-swe_no_translation,001,806,
RASPA,Ben,ben,0,153,153,60,0,1,1,1,4,0.985,,,2018_Sep_12_1610,59.5593834571,verb_norming_L1-swe_no_translation,001,806,
RASPA,,,0,153,153,60,,,,,,,,,2018_Sep_12_1610,59.5593834571,verb_norming_L1-swe_no_translation,001,806,
PROMENERA,Arm,arm,0,154,154,129,0,0,0,0,3,5.875,,,2018_Sep_12_1610,59.5593834571,verb_norming_L1-swe_no_translation,001,806,
PROMENERA,Ben,ben,0,154,154,129,0,1,1,1,7,4.453,,,2018_Sep_12_1610,59.5593834571,verb_norming_L1-swe_no_translation,001,806,
PROMENERA,,,0,154,154,129,,,,,,,,,2018_Sep_12_1610,59.5593834571,verb_norming_L1-swe_no_translation,001,806,
DUNKA,Arm,arm,0,155,155,7,0,0,0,0,7,5.443,,,2018_Sep_12_1610,59.5593834571,verb_norming_L1-swe_no_translation,001,806,
DUNKA,Ben,ben,0,155,155,7,0,1,1,1,1,3.417,,,2018_Sep_12_1610,59.5593834571,verb_norming_L1-swe_no_translation,001,806,
DUNKA,,,0,155,155,7,,,,,,,,,2018_Sep_12_1610,59.5593834571,verb_norming_L1-swe_no_translation,001,806,
KARVA,Arm,arm,0,156,156,26,0,0,0,0,7,3.632,,,2018_Sep_12_1610,59.5593834571,verb_norming_L1-swe_no_translation,001,806,
KARVA,Ben,ben,0,156,156,26,0,1,1,1,1,1.304,,,2018_Sep_12_1610,59.5593834571,verb_norming_L1-swe_no_translation,001,806,
KARVA,,,0,156,156,26,,,,,,,,,2018_Sep_12_1610,59.5593834571,verb_norming_L1-swe_no_translation,001,806,
SLINTA,Arm,arm,0,157,157,140,0,0,0,0,7,4.922,,,2018_Sep_12_1610,59.5593834571,verb_norming_L1-swe_no_translation,001,806,
SLINTA,Ben,ben,0,157,157,140,0,1,1,1,7,3.5,,,2018_Sep_12_1610,59.5593834571,verb_norming_L1-swe_no_translation,001,806,
SLINTA,,,0,157,157,140,,,,,,,,,2018_Sep_12_1610,59.5593834571,verb_norming_L1-swe_no_translation,001,806,
TRYCKA,Arm,arm,0,158,158,95,0,0,0,0,7,3.496,,,2018_Sep_12_1610,59.5593834571,verb_norming_L1-swe_no_translation,001,806,
TRYCKA,Ben,ben,0,158,158,95,0,1,1,1,7,3.197,,,2018_Sep_12_1610,59.5593834571,verb_norming_L1-swe_no_translation,001,806,
TRYCKA,,,0,158,158,95,,,,,,,,,2018_Sep_12_1610,59.5593834571,verb_norming_L1-swe_no_translation,001,806,
SKÄRA,Arm,arm,0,159,159,71,0,0,0,0,7,2.508,,,2018_Sep_12_1610,59.5593834571,verb_norming_L1-swe_no_translation,001,806,
SKÄRA,Ben,ben,0,159,159,71,0,1,1,1,1,1.203,,,2018_Sep_12_1610,59.5593834571,verb_norming_L1-swe_no_translation,001,806,
SKÄRA,,,0,159,159,71,,,,,,,,,2018_Sep_12_1610,59.5593834571,verb_norming_L1-swe_no_translation,001,806,
SKYNDA,Arm,arm,0,160,160,138,0,0,0,0,1,6.095,,,2018_Sep_12_1610,59.5593834571,verb_norming_L1-swe_no_translation,001,806,
SKYNDA,Ben,ben,0,160,160,138,0,1,1,1,7,0.781,,,2018_Sep_12_1610,59.5593834571,verb_norming_L1-swe_no_translation,001,806,
SKYNDA,,,0,160,160,138,,,,,,,,,2018_Sep_12_1610,59.5593834571,verb_norming_L1-swe_no_translation,001,806,
SVEPA,Arm,arm,0,161,161,91,0,0,0,0,7,6.684,,,2018_Sep_12_1610,59.5593834571,verb_norming_L1-swe_no_translation,001,806,
SVEPA,Ben,ben,0,161,161,91,0,1,1,1,1,1.018,,,2018_Sep_12_1610,59.5593834571,verb_norming_L1-swe_no_translation,001,806,
SVEPA,,,0,161,161,91,,,,,,,,,2018_Sep_12_1610,59.5593834571,verb_norming_L1-swe_no_translation,001,806,
SMEKA,Arm,arm,0,162,162,85,0,0,0,0,7,2.707,,,2018_Sep_12_1610,59.5593834571,verb_norming_L1-swe_no_translation,001,806,
SMEKA,Ben,ben,0,162,162,85,0,1,1,1,1,1.216,,,2018_Sep_12_1610,59.5593834571,verb_norming_L1-swe_no_translation,001,806,
SMEKA,,,0,162,162,85,,,,,,,,,2018_Sep_12_1610,59.5593834571,verb_norming_L1-swe_no_translation,001,806,
SNUBBLA,Arm,arm,0,163,163,143,0,0,0,0,1,5.274,,,2018_Sep_12_1610,59.5593834571,verb_norming_L1-swe_no_translation,001,806,
SNUBBLA,Ben,ben,0,163,163,143,0,1,1,1,7,0.833,,,2018_Sep_12_1610,59.5593834571,verb_norming_L1-swe_no_translation,001,806,
SNUBBLA,,,0,163,163,143,,,,,,,,,2018_Sep_12_1610,59.5593834571,verb_norming_L1-swe_no_translation,001,806,
SNÄRTA,Arm,arm,0,164,164,86,0,0,0,0,7,3.43,,,2018_Sep_12_1610,59.5593834571,verb_norming_L1-swe_no_translation,001,806,
SNÄRTA,Ben,ben,0,164,164,86,0,1,1,1,1,1.084,,,2018_Sep_12_1610,59.5593834571,verb_norming_L1-swe_no_translation,001,806,
SNÄRTA,,,0,164,164,86,,,,,,,,,2018_Sep_12_1610,59.5593834571,verb_norming_L1-swe_no_translation,001,806,
SPARKA,Arm,arm,0,165,165,144,0,0,0,0,1,5.543,,,2018_Sep_12_1610,59.5593834571,verb_norming_L1-swe_no_translation,001,806,
SPARKA,Ben,ben,0,165,165,144,0,1,1,1,7,0.817,,,2018_Sep_12_1610,59.5593834571,verb_norming_L1-swe_no_translation,001,806,
SPARKA,,,0,165,165,144,,,,,,,,,2018_Sep_12_1610,59.5593834571,verb_norming_L1-swe_no_translation,001,806,
PETA,Arm,arm,0,166,166,50,0,0,0,0,7,4.571,,,2018_Sep_12_1610,59.5593834571,verb_norming_L1-swe_no_translation,001,806,
PETA,Ben,ben,0,166,166,50,0,1,1,1,1,0.985,,,2018_Sep_12_1610,59.5593834571,verb_norming_L1-swe_no_translation,001,806,
PETA,,,0,166,166,50,,,,,,,,,2018_Sep_12_1610,59.5593834571,verb_norming_L1-swe_no_translation,001,806,
GLIDA,Arm,arm,0,167,167,107,0,0,0,0,7,4.487,,,2018_Sep_12_1610,59.5593834571,verb_norming_L1-swe_no_translation,001,806,
GLIDA,Ben,ben,0,167,167,107,0,1,1,1,1,1.052,,,2018_Sep_12_1610,59.5593834571,verb_norming_L1-swe_no_translation,001,806,
GLIDA,,,0,167,167,107,,,,,,,,,2018_Sep_12_1610,59.5593834571,verb_norming_L1-swe_no_translation,001,806,
STÄDA,Arm,arm,0,168,168,88,0,0,0,0,7,2.693,,,2018_Sep_12_1610,59.5593834571,verb_norming_L1-swe_no_translation,001,806,
STÄDA,Ben,ben,0,168,168,88,0,1,1,1,1,0.951,,,2018_Sep_12_1610,59.5593834571,verb_norming_L1-swe_no_translation,001,806,
STÄDA,,,0,168,168,88,,,,,,,,,2018_Sep_12_1610,59.5593834571,verb_norming_L1-swe_no_translation,001,806,
,,,,,,,,,,,,,space,17.1400854848,2018_Sep_12_1610,59.5593834571,verb_norming_L1-swe_no_translation,001,806,
