word,category,category_lowercase,trials.thisRepN,trials.thisTrialN,trials.thisN,trials.thisIndex,armleg_loop.thisRepN,armleg_loop.thisTrialN,armleg_loop.thisN,armleg_loop.thisIndex,rating.response,rating.rt,key_resp_7.keys,key_resp_7.rt,date,frameRate,expName,session,participant,
PAT,Arm,arm,0,0,0,27,0,0,0,0,4,15.676,,,2018_Sep_12_1653,59.631370498,verb_norming_L2-eng_oral_translation,001,806,
PAT,Leg,leg,0,0,0,27,0,1,1,1,4,39.743,,,2018_Sep_12_1653,59.631370498,verb_norming_L2-eng_oral_translation,001,806,
PAT,,,0,0,0,27,,,,,,,return,21.2993845062,2018_Sep_12_1653,59.631370498,verb_norming_L2-eng_oral_translation,001,806,
PRANCE,Arm,arm,0,1,1,85,0,0,0,0,4,9.399,,,2018_Sep_12_1653,59.631370498,verb_norming_L2-eng_oral_translation,001,806,
PRANCE,Leg,leg,0,1,1,85,0,1,1,1,4,3.013,,,2018_Sep_12_1653,59.631370498,verb_norming_L2-eng_oral_translation,001,806,
PRANCE,,,0,1,1,85,,,,,,,return,7.42998945861,2018_Sep_12_1653,59.631370498,verb_norming_L2-eng_oral_translation,001,806,
CLEAN,Arm,arm,0,2,2,9,0,0,0,0,7,9.233,,,2018_Sep_12_1653,59.631370498,verb_norming_L2-eng_oral_translation,001,806,
CLEAN,Leg,leg,0,2,2,9,0,1,1,1,1,6.536,,,2018_Sep_12_1653,59.631370498,verb_norming_L2-eng_oral_translation,001,806,
CLEAN,,,0,2,2,9,,,,,,,return,11.2871129556,2018_Sep_12_1653,59.631370498,verb_norming_L2-eng_oral_translation,001,806,
SCRATCH,Arm,arm,0,3,3,40,0,0,0,0,7,39.537,,,2018_Sep_12_1653,59.631370498,verb_norming_L2-eng_oral_translation,001,806,
SCRATCH,Leg,leg,0,3,3,40,0,1,1,1,1,3.365,,,2018_Sep_12_1653,59.631370498,verb_norming_L2-eng_oral_translation,001,806,
SCRATCH,,,0,3,3,40,,,,,,,return,5.35043121705,2018_Sep_12_1653,59.631370498,verb_norming_L2-eng_oral_translation,001,806,
STAMP,Arm,arm,0,4,4,101,0,0,0,0,1,11.931,,,2018_Sep_12_1653,59.631370498,verb_norming_L2-eng_oral_translation,001,806,
STAMP,Leg,leg,0,4,4,101,0,1,1,1,7,1.069,,,2018_Sep_12_1653,59.631370498,verb_norming_L2-eng_oral_translation,001,806,
STAMP,,,0,4,4,101,,,,,,,return,4.8471676539,2018_Sep_12_1653,59.631370498,verb_norming_L2-eng_oral_translation,001,806,
TRAIPSE,Arm,arm,0,5,5,115,0,0,0,0,4,12.888,,,2018_Sep_12_1653,59.631370498,verb_norming_L2-eng_oral_translation,001,806,
TRAIPSE,Leg,leg,0,5,5,115,0,1,1,1,4,0.9,,,2018_Sep_12_1653,59.631370498,verb_norming_L2-eng_oral_translation,001,806,
TRAIPSE,,,0,5,5,115,,,,,,,return,2.56642378276,2018_Sep_12_1653,59.631370498,verb_norming_L2-eng_oral_translation,001,806,
JUMP,Arm,arm,0,6,6,74,0,0,0,0,1,9.667,,,2018_Sep_12_1653,59.631370498,verb_norming_L2-eng_oral_translation,001,806,
JUMP,Leg,leg,0,6,6,74,0,1,1,1,7,3.082,,,2018_Sep_12_1653,59.631370498,verb_norming_L2-eng_oral_translation,001,806,
JUMP,,,0,6,6,74,,,,,,,return,3.13650978911,2018_Sep_12_1653,59.631370498,verb_norming_L2-eng_oral_translation,001,806,
BRAID,Arm,arm,0,7,7,2,0,0,0,0,4,7.451,,,2018_Sep_12_1653,59.631370498,verb_norming_L2-eng_oral_translation,001,806,
BRAID,Leg,leg,0,7,7,2,0,1,1,1,4,0.9,,,2018_Sep_12_1653,59.631370498,verb_norming_L2-eng_oral_translation,001,806,
BRAID,,,0,7,7,2,,,,,,,return,3.55581364659,2018_Sep_12_1653,59.631370498,verb_norming_L2-eng_oral_translation,001,806,
BIND,Arm,arm,0,8,8,1,0,0,0,0,4,5.711,,,2018_Sep_12_1653,59.631370498,verb_norming_L2-eng_oral_translation,001,806,
BIND,Leg,leg,0,8,8,1,0,1,1,1,4,0.766,,,2018_Sep_12_1653,59.631370498,verb_norming_L2-eng_oral_translation,001,806,
BIND,,,0,8,8,1,,,,,,,return,3.42142951968,2018_Sep_12_1653,59.631370498,verb_norming_L2-eng_oral_translation,001,806,
TRIP,Arm,arm,0,9,9,120,0,0,0,0,4,6.919,,,2018_Sep_12_1653,59.631370498,verb_norming_L2-eng_oral_translation,001,806,
TRIP,Leg,leg,0,9,9,120,0,1,1,1,4,0.801,,,2018_Sep_12_1653,59.631370498,verb_norming_L2-eng_oral_translation,001,806,
TRIP,,,0,9,9,120,,,,,,,return,1.57692210436,2018_Sep_12_1653,59.631370498,verb_norming_L2-eng_oral_translation,001,806,
LIFT,Arm,arm,0,10,10,25,0,0,0,0,7,7.741,,,2018_Sep_12_1653,59.631370498,verb_norming_L2-eng_oral_translation,001,806,
LIFT,Leg,leg,0,10,10,25,0,1,1,1,1,1.724,,,2018_Sep_12_1653,59.631370498,verb_norming_L2-eng_oral_translation,001,806,
LIFT,,,0,10,10,25,,,,,,,return,4.42773301683,2018_Sep_12_1653,59.631370498,verb_norming_L2-eng_oral_translation,001,806,
HUG,Arm,arm,0,11,11,23,0,0,0,0,7,8.459,,,2018_Sep_12_1653,59.631370498,verb_norming_L2-eng_oral_translation,001,806,
HUG,Leg,leg,0,11,11,23,0,1,1,1,1,3.215,,,2018_Sep_12_1653,59.631370498,verb_norming_L2-eng_oral_translation,001,806,
HUG,,,0,11,11,23,,,,,,,return,2.70072612305,2018_Sep_12_1653,59.631370498,verb_norming_L2-eng_oral_translation,001,806,
STIR,Arm,arm,0,12,12,50,0,0,0,0,4,7.288,,,2018_Sep_12_1653,59.631370498,verb_norming_L2-eng_oral_translation,001,806,
STIR,Leg,leg,0,12,12,50,0,1,1,1,4,0.784,,,2018_Sep_12_1653,59.631370498,verb_norming_L2-eng_oral_translation,001,806,
STIR,,,0,12,12,50,,,,,,,return,2.38191037766,2018_Sep_12_1653,59.631370498,verb_norming_L2-eng_oral_translation,001,806,
SNEAK,Arm,arm,0,13,13,97,0,0,0,0,4,9.619,,,2018_Sep_12_1653,59.631370498,verb_norming_L2-eng_oral_translation,001,806,
SNEAK,Leg,leg,0,13,13,97,0,1,1,1,4,0.717,,,2018_Sep_12_1653,59.631370498,verb_norming_L2-eng_oral_translation,001,806,
SNEAK,,,0,13,13,97,,,,,,,return,1.82825558204,2018_Sep_12_1653,59.631370498,verb_norming_L2-eng_oral_translation,001,806,
TRAMP,Arm,arm,0,14,14,116,0,0,0,0,4,12.219,,,2018_Sep_12_1653,59.631370498,verb_norming_L2-eng_oral_translation,001,806,
TRAMP,Leg,leg,0,14,14,116,0,1,1,1,4,0.732,,,2018_Sep_12_1653,59.631370498,verb_norming_L2-eng_oral_translation,001,806,
TRAMP,,,0,14,14,116,,,,,,,return,1.62684869394,2018_Sep_12_1653,59.631370498,verb_norming_L2-eng_oral_translation,001,806,
GRASP,Arm,arm,0,15,15,19,0,0,0,0,4,7.823,,,2018_Sep_12_1653,59.631370498,verb_norming_L2-eng_oral_translation,001,806,
GRASP,Leg,leg,0,15,15,19,0,1,1,1,4,0.749,,,2018_Sep_12_1653,59.631370498,verb_norming_L2-eng_oral_translation,001,806,
GRASP,,,0,15,15,19,,,,,,,return,1.94570039384,2018_Sep_12_1653,59.631370498,verb_norming_L2-eng_oral_translation,001,806,
RUB,Arm,arm,0,16,16,37,0,0,0,0,4,3.901,,,2018_Sep_12_1653,59.631370498,verb_norming_L2-eng_oral_translation,001,806,
RUB,Leg,leg,0,16,16,37,0,1,1,1,4,0.701,,,2018_Sep_12_1653,59.631370498,verb_norming_L2-eng_oral_translation,001,806,
RUB,,,0,16,16,37,,,,,,,return,2.85147745376,2018_Sep_12_1653,59.631370498,verb_norming_L2-eng_oral_translation,001,806,
TREK,Arm,arm,0,17,17,119,0,0,0,0,4,6.097,,,2018_Sep_12_1653,59.631370498,verb_norming_L2-eng_oral_translation,001,806,
TREK,Leg,leg,0,17,17,119,0,1,1,1,4,0.885,,,2018_Sep_12_1653,59.631370498,verb_norming_L2-eng_oral_translation,001,806,
TREK,,,0,17,17,119,,,,,,,return,1.82846656784,2018_Sep_12_1653,59.631370498,verb_norming_L2-eng_oral_translation,001,806,
CREEP,Arm,arm,0,18,18,61,0,0,0,0,4,15.472,,,2018_Sep_12_1653,59.631370498,verb_norming_L2-eng_oral_translation,001,806,
CREEP,Leg,leg,0,18,18,61,0,1,1,1,4,0.75,,,2018_Sep_12_1653,59.631370498,verb_norming_L2-eng_oral_translation,001,806,
CREEP,,,0,18,18,61,,,,,,,return,1.71085107089,2018_Sep_12_1653,59.631370498,verb_norming_L2-eng_oral_translation,001,806,
STRADDLE,Arm,arm,0,19,19,105,0,0,0,0,4,3.829,,,2018_Sep_12_1653,59.631370498,verb_norming_L2-eng_oral_translation,001,806,
STRADDLE,Leg,leg,0,19,19,105,0,1,1,1,4,0.798,,,2018_Sep_12_1653,59.631370498,verb_norming_L2-eng_oral_translation,001,806,
STRADDLE,,,0,19,19,105,,,,,,,return,3.3377847123,2018_Sep_12_1653,59.631370498,verb_norming_L2-eng_oral_translation,001,806,
HOP,Arm,arm,0,20,20,71,0,0,0,0,4,6.669,,,2018_Sep_12_1653,59.631370498,verb_norming_L2-eng_oral_translation,001,806,
HOP,Leg,leg,0,20,20,71,0,1,1,1,4,0.751,,,2018_Sep_12_1653,59.631370498,verb_norming_L2-eng_oral_translation,001,806,
HOP,,,0,20,20,71,,,,,,,return,3.8912968752,2018_Sep_12_1653,59.631370498,verb_norming_L2-eng_oral_translation,001,806,
STOMP,Arm,arm,0,21,21,104,0,0,0,0,4,4.051,,,2018_Sep_12_1653,59.631370498,verb_norming_L2-eng_oral_translation,001,806,
STOMP,Leg,leg,0,21,21,104,0,1,1,1,4,0.884,,,2018_Sep_12_1653,59.631370498,verb_norming_L2-eng_oral_translation,001,806,
STOMP,,,0,21,21,104,,,,,,,return,2.09678598296,2018_Sep_12_1653,59.631370498,verb_norming_L2-eng_oral_translation,001,806,
SHAKE,Arm,arm,0,22,22,43,0,0,0,0,7,7.707,,,2018_Sep_12_1653,59.631370498,verb_norming_L2-eng_oral_translation,001,806,
SHAKE,Leg,leg,0,22,22,43,0,1,1,1,1,1.908,,,2018_Sep_12_1653,59.631370498,verb_norming_L2-eng_oral_translation,001,806,
SHAKE,,,0,22,22,43,,,,,,,return,2.61670517618,2018_Sep_12_1653,59.631370498,verb_norming_L2-eng_oral_translation,001,806,
SPRINT,Arm,arm,0,23,23,98,0,0,0,0,4,5.761,,,2018_Sep_12_1653,59.631370498,verb_norming_L2-eng_oral_translation,001,806,
SPRINT,Leg,leg,0,23,23,98,0,1,1,1,4,0.985,,,2018_Sep_12_1653,59.631370498,verb_norming_L2-eng_oral_translation,001,806,
SPRINT,,,0,23,23,98,,,,,,,return,3.42157531324,2018_Sep_12_1653,59.631370498,verb_norming_L2-eng_oral_translation,001,806,
SEIZE,Arm,arm,0,24,24,42,0,0,0,0,4,3.294,,,2018_Sep_12_1653,59.631370498,verb_norming_L2-eng_oral_translation,001,806,
SEIZE,Leg,leg,0,24,24,42,0,1,1,1,4,0.712,,,2018_Sep_12_1653,59.631370498,verb_norming_L2-eng_oral_translation,001,806,
SEIZE,,,0,24,24,42,,,,,,,return,3.57257753531,2018_Sep_12_1653,59.631370498,verb_norming_L2-eng_oral_translation,001,806,
CHOP,Arm,arm,0,25,25,6,0,0,0,0,4,5.93,,,2018_Sep_12_1653,59.631370498,verb_norming_L2-eng_oral_translation,001,806,
CHOP,Leg,leg,0,25,25,6,0,1,1,1,4,0.835,,,2018_Sep_12_1653,59.631370498,verb_norming_L2-eng_oral_translation,001,806,
CHOP,,,0,25,25,6,,,,,,,return,1.37569498881,2018_Sep_12_1653,59.631370498,verb_norming_L2-eng_oral_translation,001,806,
INCH,Arm,arm,0,26,26,72,0,0,0,0,4,5.981,,,2018_Sep_12_1653,59.631370498,verb_norming_L2-eng_oral_translation,001,806,
INCH,Leg,leg,0,26,26,72,0,1,1,1,4,0.818,,,2018_Sep_12_1653,59.631370498,verb_norming_L2-eng_oral_translation,001,806,
INCH,,,0,26,26,72,,,,,,,return,1.62723787187,2018_Sep_12_1653,59.631370498,verb_norming_L2-eng_oral_translation,001,806,
GRATE,Arm,arm,0,27,27,20,0,0,0,0,4,11.514,,,2018_Sep_12_1653,59.631370498,verb_norming_L2-eng_oral_translation,001,806,
GRATE,Leg,leg,0,27,27,20,0,1,1,1,4,0.884,,,2018_Sep_12_1653,59.631370498,verb_norming_L2-eng_oral_translation,001,806,
GRATE,,,0,27,27,20,,,,,,,return,1.81170860569,2018_Sep_12_1653,59.631370498,verb_norming_L2-eng_oral_translation,001,806,
JOG,Arm,arm,0,28,28,73,0,0,0,0,4,4.269,,,2018_Sep_12_1653,59.631370498,verb_norming_L2-eng_oral_translation,001,806,
JOG,Leg,leg,0,28,28,73,0,1,1,1,4,1.739,,,2018_Sep_12_1653,59.631370498,verb_norming_L2-eng_oral_translation,001,806,
JOG,,,0,28,28,73,,,,,,,return,2.95203628956,2018_Sep_12_1653,59.631370498,verb_norming_L2-eng_oral_translation,001,806,
CARVE,Arm,arm,0,29,29,4,0,0,0,0,4,4.202,,,2018_Sep_12_1653,59.631370498,verb_norming_L2-eng_oral_translation,001,806,
CARVE,Leg,leg,0,29,29,4,0,1,1,1,4,1.757,,,2018_Sep_12_1653,59.631370498,verb_norming_L2-eng_oral_translation,001,806,
CARVE,,,0,29,29,4,,,,,,,return,6.64145215127,2018_Sep_12_1653,59.631370498,verb_norming_L2-eng_oral_translation,001,806,
POLISH,Arm,arm,0,30,30,32,0,0,0,0,7,9.871,,,2018_Sep_12_1653,59.631370498,verb_norming_L2-eng_oral_translation,001,806,
POLISH,Leg,leg,0,30,30,32,0,1,1,1,1,1.22,,,2018_Sep_12_1653,59.631370498,verb_norming_L2-eng_oral_translation,001,806,
POLISH,,,0,30,30,32,,,,,,,return,3.53897903418,2018_Sep_12_1653,59.631370498,verb_norming_L2-eng_oral_translation,001,806,
SIGN,Arm,arm,0,31,31,44,0,0,0,0,7,17.148,,,2018_Sep_12_1653,59.631370498,verb_norming_L2-eng_oral_translation,001,806,
SIGN,Leg,leg,0,31,31,44,0,1,1,1,1,2.778,,,2018_Sep_12_1653,59.631370498,verb_norming_L2-eng_oral_translation,001,806,
SIGN,,,0,31,31,44,,,,,,,return,5.6015687229,2018_Sep_12_1653,59.631370498,verb_norming_L2-eng_oral_translation,001,806,
FOLD,Arm,arm,0,32,32,16,0,0,0,0,4,5.257,,,2018_Sep_12_1653,59.631370498,verb_norming_L2-eng_oral_translation,001,806,
FOLD,Leg,leg,0,32,32,16,0,1,1,1,4,0.968,,,2018_Sep_12_1653,59.631370498,verb_norming_L2-eng_oral_translation,001,806,
FOLD,,,0,32,32,16,,,,,,,return,2.70058467563,2018_Sep_12_1653,59.631370498,verb_norming_L2-eng_oral_translation,001,806,
TRUDGE,Arm,arm,0,33,33,122,0,0,0,0,4,4.619,,,2018_Sep_12_1653,59.631370498,verb_norming_L2-eng_oral_translation,001,806,
TRUDGE,Leg,leg,0,33,33,122,0,1,1,1,4,0.816,,,2018_Sep_12_1653,59.631370498,verb_norming_L2-eng_oral_translation,001,806,
TRUDGE,,,0,33,33,122,,,,,,,return,2.58316554562,2018_Sep_12_1653,59.631370498,verb_norming_L2-eng_oral_translation,001,806,
WADE,Arm,arm,0,34,34,124,0,0,0,0,4,4.687,,,2018_Sep_12_1653,59.631370498,verb_norming_L2-eng_oral_translation,001,806,
WADE,Leg,leg,0,34,34,124,0,1,1,1,4,0.816,,,2018_Sep_12_1653,59.631370498,verb_norming_L2-eng_oral_translation,001,806,
WADE,,,0,34,34,124,,,,,,,return,1.10735463315,2018_Sep_12_1653,59.631370498,verb_norming_L2-eng_oral_translation,001,806,
SLAP,Arm,arm,0,35,35,46,0,0,0,0,4,9.519,,,2018_Sep_12_1653,59.631370498,verb_norming_L2-eng_oral_translation,001,806,
SLAP,Leg,leg,0,35,35,46,0,1,1,1,4,0.784,,,2018_Sep_12_1653,59.631370498,verb_norming_L2-eng_oral_translation,001,806,
SLAP,,,0,35,35,46,,,,,,,return,0.922849525243,2018_Sep_12_1653,59.631370498,verb_norming_L2-eng_oral_translation,001,806,
GRAB,Arm,arm,0,36,36,18,0,0,0,0,7,7.623,,,2018_Sep_12_1653,59.631370498,verb_norming_L2-eng_oral_translation,001,806,
GRAB,Leg,leg,0,36,36,18,0,1,1,1,1,1.235,,,2018_Sep_12_1653,59.631370498,verb_norming_L2-eng_oral_translation,001,806,
GRAB,,,0,36,36,18,,,,,,,return,6.30625142238,2018_Sep_12_1653,59.631370498,verb_norming_L2-eng_oral_translation,001,806,
SHAMBLE,Arm,arm,0,37,37,91,0,0,0,0,4,4.771,,,2018_Sep_12_1653,59.631370498,verb_norming_L2-eng_oral_translation,001,806,
SHAMBLE,Leg,leg,0,37,37,91,0,1,1,1,4,0.715,,,2018_Sep_12_1653,59.631370498,verb_norming_L2-eng_oral_translation,001,806,
SHAMBLE,,,0,37,37,91,,,,,,,return,1.34197874654,2018_Sep_12_1653,59.631370498,verb_norming_L2-eng_oral_translation,001,806,
WANDER,Arm,arm,0,38,38,126,0,0,0,0,4,6.028,,,2018_Sep_12_1653,59.631370498,verb_norming_L2-eng_oral_translation,001,806,
WANDER,Leg,leg,0,38,38,126,0,1,1,1,4,0.732,,,2018_Sep_12_1653,59.631370498,verb_norming_L2-eng_oral_translation,001,806,
WANDER,,,0,38,38,126,,,,,,,return,1.47619653446,2018_Sep_12_1653,59.631370498,verb_norming_L2-eng_oral_translation,001,806,
RAMBLE,Arm,arm,0,39,39,86,0,0,0,0,4,3.011,,,2018_Sep_12_1653,59.631370498,verb_norming_L2-eng_oral_translation,001,806,
RAMBLE,Leg,leg,0,39,39,86,0,1,1,1,4,0.733,,,2018_Sep_12_1653,59.631370498,verb_norming_L2-eng_oral_translation,001,806,
RAMBLE,,,0,39,39,86,,,,,,,return,1.35867072623,2018_Sep_12_1653,59.631370498,verb_norming_L2-eng_oral_translation,001,806,
TREAD,Arm,arm,0,40,40,118,0,0,0,0,4,3.396,,,2018_Sep_12_1653,59.631370498,verb_norming_L2-eng_oral_translation,001,806,
TREAD,Leg,leg,0,40,40,118,0,1,1,1,4,0.715,,,2018_Sep_12_1653,59.631370498,verb_norming_L2-eng_oral_translation,001,806,
TREAD,,,0,40,40,118,,,,,,,return,2.26431463594,2018_Sep_12_1653,59.631370498,verb_norming_L2-eng_oral_translation,001,806,
LEAP,Arm,arm,0,41,41,77,0,0,0,0,4,2.676,,,2018_Sep_12_1653,59.631370498,verb_norming_L2-eng_oral_translation,001,806,
LEAP,Leg,leg,0,41,41,77,0,1,1,1,4,0.717,,,2018_Sep_12_1653,59.631370498,verb_norming_L2-eng_oral_translation,001,806,
LEAP,,,0,41,41,77,,,,,,,return,1.25825610357,2018_Sep_12_1653,59.631370498,verb_norming_L2-eng_oral_translation,001,806,
MARCH,Arm,arm,0,42,42,80,0,0,0,0,7,4.973,,,2018_Sep_12_1653,59.631370498,verb_norming_L2-eng_oral_translation,001,806,
MARCH,Leg,leg,0,42,42,80,0,1,1,1,1,1.018,,,2018_Sep_12_1653,59.631370498,verb_norming_L2-eng_oral_translation,001,806,
MARCH,,,0,42,42,80,,,,,,,return,1.61044118948,2018_Sep_12_1653,59.631370498,verb_norming_L2-eng_oral_translation,001,806,
GESTURE,Arm,arm,0,43,43,17,0,0,0,0,4,6.095,,,2018_Sep_12_1653,59.631370498,verb_norming_L2-eng_oral_translation,001,806,
GESTURE,Leg,leg,0,43,43,17,0,1,1,1,4,0.715,,,2018_Sep_12_1653,59.631370498,verb_norming_L2-eng_oral_translation,001,806,
GESTURE,,,0,43,43,17,,,,,,,return,1.05699698456,2018_Sep_12_1653,59.631370498,verb_norming_L2-eng_oral_translation,001,806,
RUSH,Arm,arm,0,44,44,89,0,0,0,0,1,6.785,,,2018_Sep_12_1653,59.631370498,verb_norming_L2-eng_oral_translation,001,806,
RUSH,Leg,leg,0,44,44,89,0,1,1,1,7,0.835,,,2018_Sep_12_1653,59.631370498,verb_norming_L2-eng_oral_translation,001,806,
RUSH,,,0,44,44,89,,,,,,,return,1.67741890875,2018_Sep_12_1653,59.631370498,verb_norming_L2-eng_oral_translation,001,806,
SLIDE,Arm,arm,0,45,45,94,0,0,0,0,4,2.607,,,2018_Sep_12_1653,59.631370498,verb_norming_L2-eng_oral_translation,001,806,
SLIDE,Leg,leg,0,45,45,94,0,1,1,1,4,0.713,,,2018_Sep_12_1653,59.631370498,verb_norming_L2-eng_oral_translation,001,806,
SLIDE,,,0,45,45,94,,,,,,,return,1.25833275385,2018_Sep_12_1653,59.631370498,verb_norming_L2-eng_oral_translation,001,806,
PUNCH,Arm,arm,0,46,46,34,0,0,0,0,4,7.874,,,2018_Sep_12_1653,59.631370498,verb_norming_L2-eng_oral_translation,001,806,
PUNCH,Leg,leg,0,46,46,34,0,1,1,1,4,0.75,,,2018_Sep_12_1653,59.631370498,verb_norming_L2-eng_oral_translation,001,806,
PUNCH,,,0,46,46,34,,,,,,,return,2.02971738966,2018_Sep_12_1653,59.631370498,verb_norming_L2-eng_oral_translation,001,806,
FILE,Arm,arm,0,47,47,15,0,0,0,0,4,6.298,,,2018_Sep_12_1653,59.631370498,verb_norming_L2-eng_oral_translation,001,806,
FILE,Leg,leg,0,47,47,15,0,1,1,1,4,0.952,,,2018_Sep_12_1653,59.631370498,verb_norming_L2-eng_oral_translation,001,806,
FILE,,,0,47,47,15,,,,,,,return,2.73409783419,2018_Sep_12_1653,59.631370498,verb_norming_L2-eng_oral_translation,001,806,
WADDLE,Arm,arm,0,48,48,123,0,0,0,0,4,4.435,,,2018_Sep_12_1653,59.631370498,verb_norming_L2-eng_oral_translation,001,806,
WADDLE,Leg,leg,0,48,48,123,0,1,1,1,4,0.814,,,2018_Sep_12_1653,59.631370498,verb_norming_L2-eng_oral_translation,001,806,
WADDLE,,,0,48,48,123,,,,,,,return,2.14718432731,2018_Sep_12_1653,59.631370498,verb_norming_L2-eng_oral_translation,001,806,
TIPTOE,Arm,arm,0,49,49,112,0,0,0,0,4,3.329,,,2018_Sep_12_1653,59.631370498,verb_norming_L2-eng_oral_translation,001,806,
TIPTOE,Leg,leg,0,49,49,112,0,1,1,1,4,0.699,,,2018_Sep_12_1653,59.631370498,verb_norming_L2-eng_oral_translation,001,806,
TIPTOE,,,0,49,49,112,,,,,,,return,1.97918787061,2018_Sep_12_1653,59.631370498,verb_norming_L2-eng_oral_translation,001,806,
SKATE,Arm,arm,0,50,50,92,0,0,0,0,4,15.338,,,2018_Sep_12_1653,59.631370498,verb_norming_L2-eng_oral_translation,001,806,
SKATE,Leg,leg,0,50,50,92,0,1,1,1,4,0.734,,,2018_Sep_12_1653,59.631370498,verb_norming_L2-eng_oral_translation,001,806,
SKATE,,,0,50,50,92,,,,,,,return,1.97925108733,2018_Sep_12_1653,59.631370498,verb_norming_L2-eng_oral_translation,001,806,
PULL,Arm,arm,0,51,51,33,0,0,0,0,4,10.039,,,2018_Sep_12_1653,59.631370498,verb_norming_L2-eng_oral_translation,001,806,
PULL,Leg,leg,0,51,51,33,0,1,1,1,4,0.784,,,2018_Sep_12_1653,59.631370498,verb_norming_L2-eng_oral_translation,001,806,
PULL,,,0,51,51,33,,,,,,,return,1.3923336294,2018_Sep_12_1653,59.631370498,verb_norming_L2-eng_oral_translation,001,806,
DASH,Arm,arm,0,52,52,65,0,0,0,0,4,2.692,,,2018_Sep_12_1653,59.631370498,verb_norming_L2-eng_oral_translation,001,806,
DASH,Leg,leg,0,52,52,65,0,1,1,1,4,0.884,,,2018_Sep_12_1653,59.631370498,verb_norming_L2-eng_oral_translation,001,806,
DASH,,,0,52,52,65,,,,,,,return,1.86198802359,2018_Sep_12_1653,59.631370498,verb_norming_L2-eng_oral_translation,001,806,
GROVEL,Arm,arm,0,53,53,68,0,0,0,0,4,2.523,,,2018_Sep_12_1653,59.631370498,verb_norming_L2-eng_oral_translation,001,806,
GROVEL,Leg,leg,0,53,53,68,0,1,1,1,4,2.208,,,2018_Sep_12_1653,59.631370498,verb_norming_L2-eng_oral_translation,001,806,
GROVEL,,,0,53,53,68,,,,,,,return,1.96252196781,2018_Sep_12_1653,59.631370498,verb_norming_L2-eng_oral_translation,001,806,
SAUNTER,Arm,arm,0,54,54,90,0,0,0,0,4,3.31,,,2018_Sep_12_1653,59.631370498,verb_norming_L2-eng_oral_translation,001,806,
SAUNTER,Leg,leg,0,54,54,90,0,1,1,1,4,0.8,,,2018_Sep_12_1653,59.631370498,verb_norming_L2-eng_oral_translation,001,806,
SAUNTER,,,0,54,54,90,,,,,,,return,1.576969912,2018_Sep_12_1653,59.631370498,verb_norming_L2-eng_oral_translation,001,806,
LIMP,Arm,arm,0,55,55,78,0,0,0,0,4,2.592,,,2018_Sep_12_1653,59.631370498,verb_norming_L2-eng_oral_translation,001,806,
LIMP,Leg,leg,0,55,55,78,0,1,1,1,4,0.75,,,2018_Sep_12_1653,59.631370498,verb_norming_L2-eng_oral_translation,001,806,
LIMP,,,0,55,55,78,,,,,,,return,1.20779691313,2018_Sep_12_1653,59.631370498,verb_norming_L2-eng_oral_translation,001,806,
SNATCH,Arm,arm,0,56,56,47,0,0,0,0,4,2.491,,,2018_Sep_12_1653,59.631370498,verb_norming_L2-eng_oral_translation,001,806,
SNATCH,Leg,leg,0,56,56,47,0,1,1,1,4,0.7,,,2018_Sep_12_1653,59.631370498,verb_norming_L2-eng_oral_translation,001,806,
SNATCH,,,0,56,56,47,,,,,,,return,1.49300230425,2018_Sep_12_1653,59.631370498,verb_norming_L2-eng_oral_translation,001,806,
STRUT,Arm,arm,0,57,57,109,0,0,0,0,4,2.375,,,2018_Sep_12_1653,59.631370498,verb_norming_L2-eng_oral_translation,001,806,
STRUT,Leg,leg,0,57,57,109,0,1,1,1,4,0.633,,,2018_Sep_12_1653,59.631370498,verb_norming_L2-eng_oral_translation,001,806,
STRUT,,,0,57,57,109,,,,,,,return,1.81164341345,2018_Sep_12_1653,59.631370498,verb_norming_L2-eng_oral_translation,001,806,
THROW,Arm,arm,0,58,58,52,0,0,0,0,4,11.38,,,2018_Sep_12_1653,59.631370498,verb_norming_L2-eng_oral_translation,001,806,
THROW,Leg,leg,0,58,58,52,0,1,1,1,4,0.716,,,2018_Sep_12_1653,59.631370498,verb_norming_L2-eng_oral_translation,001,806,
THROW,,,0,58,58,52,,,,,,,return,1.09045877954,2018_Sep_12_1653,59.631370498,verb_norming_L2-eng_oral_translation,001,806,
GRIP,Arm,arm,0,59,59,21,0,0,0,0,4,3.312,,,2018_Sep_12_1653,59.631370498,verb_norming_L2-eng_oral_translation,001,806,
GRIP,Leg,leg,0,59,59,21,0,1,1,1,4,0.733,,,2018_Sep_12_1653,59.631370498,verb_norming_L2-eng_oral_translation,001,806,
GRIP,,,0,59,59,21,,,,,,,return,1.44272841781,2018_Sep_12_1653,59.631370498,verb_norming_L2-eng_oral_translation,001,806,
SCOOP,Arm,arm,0,60,60,38,0,0,0,0,4,4.034,,,2018_Sep_12_1653,59.631370498,verb_norming_L2-eng_oral_translation,001,806,
SCOOP,Leg,leg,0,60,60,38,0,1,1,1,4,0.733,,,2018_Sep_12_1653,59.631370498,verb_norming_L2-eng_oral_translation,001,806,
SCOOP,,,0,60,60,38,,,,,,,return,1.39234824826,2018_Sep_12_1653,59.631370498,verb_norming_L2-eng_oral_translation,001,806,
HIKE,Arm,arm,0,61,61,69,0,0,0,0,4,2.307,,,2018_Sep_12_1653,59.631370498,verb_norming_L2-eng_oral_translation,001,806,
HIKE,Leg,leg,0,61,61,69,0,1,1,1,4,0.75,,,2018_Sep_12_1653,59.631370498,verb_norming_L2-eng_oral_translation,001,806,
HIKE,,,0,61,61,69,,,,,,,return,1.35886709317,2018_Sep_12_1653,59.631370498,verb_norming_L2-eng_oral_translation,001,806,
SWITCH,Arm,arm,0,62,62,51,0,0,0,0,4,10.189,,,2018_Sep_12_1653,59.631370498,verb_norming_L2-eng_oral_translation,001,806,
SWITCH,Leg,leg,0,62,62,51,0,1,1,1,4,0.716,,,2018_Sep_12_1653,59.631370498,verb_norming_L2-eng_oral_translation,001,806,
SWITCH,,,0,62,62,51,,,,,,,return,1.27511086632,2018_Sep_12_1653,59.631370498,verb_norming_L2-eng_oral_translation,001,806,
BOUNCE,Arm,arm,0,63,63,60,0,0,0,0,4,2.189,,,2018_Sep_12_1653,59.631370498,verb_norming_L2-eng_oral_translation,001,806,
BOUNCE,Leg,leg,0,63,63,60,0,1,1,1,4,0.613,,,2018_Sep_12_1653,59.631370498,verb_norming_L2-eng_oral_translation,001,806,
BOUNCE,,,0,63,63,60,,,,,,,return,1.87864128305,2018_Sep_12_1653,59.631370498,verb_norming_L2-eng_oral_translation,001,806,
STEP,Arm,arm,0,64,64,103,0,0,0,0,1,14.651,,,2018_Sep_12_1653,59.631370498,verb_norming_L2-eng_oral_translation,001,806,
STEP,Leg,leg,0,64,64,103,0,1,1,1,7,1.187,,,2018_Sep_12_1653,59.631370498,verb_norming_L2-eng_oral_translation,001,806,
STEP,,,0,64,64,103,,,,,,,return,5.21609252715,2018_Sep_12_1653,59.631370498,verb_norming_L2-eng_oral_translation,001,806,
LUMBER,Arm,arm,0,65,65,79,0,0,0,0,4,7.052,,,2018_Sep_12_1653,59.631370498,verb_norming_L2-eng_oral_translation,001,806,
LUMBER,Leg,leg,0,65,65,79,0,1,1,1,4,0.682,,,2018_Sep_12_1653,59.631370498,verb_norming_L2-eng_oral_translation,001,806,
LUMBER,,,0,65,65,79,,,,,,,return,0.88931068489,2018_Sep_12_1653,59.631370498,verb_norming_L2-eng_oral_translation,001,806,
TOSS,Arm,arm,0,66,66,53,0,0,0,0,4,6.014,,,2018_Sep_12_1653,59.631370498,verb_norming_L2-eng_oral_translation,001,806,
TOSS,Leg,leg,0,66,66,53,0,1,1,1,4,0.734,,,2018_Sep_12_1653,59.631370498,verb_norming_L2-eng_oral_translation,001,806,
TOSS,,,0,66,66,53,,,,,,,return,3.03597228895,2018_Sep_12_1653,59.631370498,verb_norming_L2-eng_oral_translation,001,806,
CLICK,Arm,arm,0,67,67,10,0,0,0,0,4,4.739,,,2018_Sep_12_1653,59.631370498,verb_norming_L2-eng_oral_translation,001,806,
CLICK,Leg,leg,0,67,67,10,0,1,1,1,4,0.683,,,2018_Sep_12_1653,59.631370498,verb_norming_L2-eng_oral_translation,001,806,
CLICK,,,0,67,67,10,,,,,,,return,2.54947221941,2018_Sep_12_1653,59.631370498,verb_norming_L2-eng_oral_translation,001,806,
STAB,Arm,arm,0,68,68,49,0,0,0,0,4,2.425,,,2018_Sep_12_1653,59.631370498,verb_norming_L2-eng_oral_translation,001,806,
STAB,Leg,leg,0,68,68,49,0,1,1,1,4,0.633,,,2018_Sep_12_1653,59.631370498,verb_norming_L2-eng_oral_translation,001,806,
STAB,,,0,68,68,49,,,,,,,return,2.90183549745,2018_Sep_12_1653,59.631370498,verb_norming_L2-eng_oral_translation,001,806,
CLAW,Arm,arm,0,69,69,8,0,0,0,0,4,4.303,,,2018_Sep_12_1653,59.631370498,verb_norming_L2-eng_oral_translation,001,806,
CLAW,Leg,leg,0,69,69,8,0,1,1,1,4,0.667,,,2018_Sep_12_1653,59.631370498,verb_norming_L2-eng_oral_translation,001,806,
CLAW,,,0,69,69,8,,,,,,,return,2.11357120731,2018_Sep_12_1653,59.631370498,verb_norming_L2-eng_oral_translation,001,806,
WHIP,Arm,arm,0,70,70,57,0,0,0,0,4,3.364,,,2018_Sep_12_1653,59.631370498,verb_norming_L2-eng_oral_translation,001,806,
WHIP,Leg,leg,0,70,70,57,0,1,1,1,4,3.434,,,2018_Sep_12_1653,59.631370498,verb_norming_L2-eng_oral_translation,001,806,
WHIP,,,0,70,70,57,,,,,,,return,3.52230522929,2018_Sep_12_1653,59.631370498,verb_norming_L2-eng_oral_translation,001,806,
TOTTER,Arm,arm,0,71,71,114,0,0,0,0,4,0.579,,,2018_Sep_12_1653,59.631370498,verb_norming_L2-eng_oral_translation,001,806,
TOTTER,Leg,leg,0,71,71,114,0,1,1,1,4,6.033,,,2018_Sep_12_1653,59.631370498,verb_norming_L2-eng_oral_translation,001,806,
TOTTER,,,0,71,71,114,,,,,,,return,0.771846512966,2018_Sep_12_1653,59.631370498,verb_norming_L2-eng_oral_translation,001,806,
MOUNT,Arm,arm,0,72,72,81,0,0,0,0,4,3.749,,,2018_Sep_12_1653,59.631370498,verb_norming_L2-eng_oral_translation,001,806,
MOUNT,Leg,leg,0,72,72,81,0,1,1,1,4,1.287,,,2018_Sep_12_1653,59.631370498,verb_norming_L2-eng_oral_translation,001,806,
MOUNT,,,0,72,72,81,,,,,,,return,2.19738630473,2018_Sep_12_1653,59.631370498,verb_norming_L2-eng_oral_translation,001,806,
CUT,Arm,arm,0,73,73,12,0,0,0,0,1,11.23,,,2018_Sep_12_1653,59.631370498,verb_norming_L2-eng_oral_translation,001,806,
CUT,Leg,leg,0,73,73,12,0,1,1,1,7,1.49,,,2018_Sep_12_1653,59.631370498,verb_norming_L2-eng_oral_translation,001,806,
CUT,,,0,73,73,12,,,,,,,return,1.59357338829,2018_Sep_12_1653,59.631370498,verb_norming_L2-eng_oral_translation,001,806,
BASH,Arm,arm,0,74,74,0,0,0,0,0,4,4.538,,,2018_Sep_12_1653,59.631370498,verb_norming_L2-eng_oral_translation,001,806,
BASH,Leg,leg,0,74,74,0,0,1,1,1,4,0.7,,,2018_Sep_12_1653,59.631370498,verb_norming_L2-eng_oral_translation,001,806,
BASH,,,0,74,74,0,,,,,,,return,1.30864931157,2018_Sep_12_1653,59.631370498,verb_norming_L2-eng_oral_translation,001,806,
WALK,Arm,arm,0,75,75,125,0,0,0,0,1,5.628,,,2018_Sep_12_1653,59.631370498,verb_norming_L2-eng_oral_translation,001,806,
WALK,Leg,leg,0,75,75,125,0,1,1,1,7,1.704,,,2018_Sep_12_1653,59.631370498,verb_norming_L2-eng_oral_translation,001,806,
WALK,,,0,75,75,125,,,,,,,return,1.14076190371,2018_Sep_12_1653,59.631370498,verb_norming_L2-eng_oral_translation,001,806,
KNEEL,Arm,arm,0,76,76,76,0,0,0,0,7,8.378,,,2018_Sep_12_1653,59.631370498,verb_norming_L2-eng_oral_translation,001,806,
KNEEL,Leg,leg,0,76,76,76,0,1,1,1,2,2.763,,,2018_Sep_12_1653,59.631370498,verb_norming_L2-eng_oral_translation,001,806,
KNEEL,,,0,76,76,76,,,,,,,return,2.68362758082,2018_Sep_12_1653,59.631370498,verb_norming_L2-eng_oral_translation,001,806,
CYCLE,Arm,arm,0,77,77,63,0,0,0,0,4,11.631,,,2018_Sep_12_1653,59.631370498,verb_norming_L2-eng_oral_translation,001,806,
CYCLE,Leg,leg,0,77,77,63,0,1,1,1,4,0.733,,,2018_Sep_12_1653,59.631370498,verb_norming_L2-eng_oral_translation,001,806,
CYCLE,,,0,77,77,63,,,,,,,return,1.15753092878,2018_Sep_12_1653,59.631370498,verb_norming_L2-eng_oral_translation,001,806,
CATCH,Arm,arm,0,78,78,5,0,0,0,0,7,9.133,,,2018_Sep_12_1653,59.631370498,verb_norming_L2-eng_oral_translation,001,806,
CATCH,Leg,leg,0,78,78,5,0,1,1,1,1,1.554,,,2018_Sep_12_1653,59.631370498,verb_norming_L2-eng_oral_translation,001,806,
CATCH,,,0,78,78,5,,,,,,,return,1.17413242955,2018_Sep_12_1653,59.631370498,verb_norming_L2-eng_oral_translation,001,806,
CROUCH,Arm,arm,0,79,79,62,0,0,0,0,4,5.794,,,2018_Sep_12_1653,59.631370498,verb_norming_L2-eng_oral_translation,001,806,
CROUCH,Leg,leg,0,79,79,62,0,1,1,1,4,0.867,,,2018_Sep_12_1653,59.631370498,verb_norming_L2-eng_oral_translation,001,806,
CROUCH,,,0,79,79,62,,,,,,,return,1.2247682317,2018_Sep_12_1653,59.631370498,verb_norming_L2-eng_oral_translation,001,806,
SKIP,Arm,arm,0,80,80,93,0,0,0,0,4,2.743,,,2018_Sep_12_1653,59.631370498,verb_norming_L2-eng_oral_translation,001,806,
SKIP,Leg,leg,0,80,80,93,0,1,1,1,4,0.785,,,2018_Sep_12_1653,59.631370498,verb_norming_L2-eng_oral_translation,001,806,
SKIP,,,0,80,80,93,,,,,,,return,1.32534050105,2018_Sep_12_1653,59.631370498,verb_norming_L2-eng_oral_translation,001,806,
WASH,Arm,arm,0,81,81,56,0,0,0,0,7,6.467,,,2018_Sep_12_1653,59.631370498,verb_norming_L2-eng_oral_translation,001,806,
WASH,Leg,leg,0,81,81,56,0,1,1,1,1,0.985,,,2018_Sep_12_1653,59.631370498,verb_norming_L2-eng_oral_translation,001,806,
WASH,,,0,81,81,56,,,,,,,return,5.30003247759,2018_Sep_12_1653,59.631370498,verb_norming_L2-eng_oral_translation,001,806,
FLEE,Arm,arm,0,82,82,66,0,0,0,0,4,3.295,,,2018_Sep_12_1653,59.631370498,verb_norming_L2-eng_oral_translation,001,806,
FLEE,Leg,leg,0,82,82,66,0,1,1,1,4,0.701,,,2018_Sep_12_1653,59.631370498,verb_norming_L2-eng_oral_translation,001,806,
FLEE,,,0,82,82,66,,,,,,,return,1.61045580835,2018_Sep_12_1653,59.631370498,verb_norming_L2-eng_oral_translation,001,806,
CLUTCH,Arm,arm,0,83,83,11,0,0,0,0,4,2.273,,,2018_Sep_12_1653,59.631370498,verb_norming_L2-eng_oral_translation,001,806,
CLUTCH,Leg,leg,0,83,83,11,0,1,1,1,4,0.683,,,2018_Sep_12_1653,59.631370498,verb_norming_L2-eng_oral_translation,001,806,
CLUTCH,,,0,83,83,11,,,,,,,return,1.22449244876,2018_Sep_12_1653,59.631370498,verb_norming_L2-eng_oral_translation,001,806,
SCRUB,Arm,arm,0,84,84,41,0,0,0,0,7,19.782,,,2018_Sep_12_1653,59.631370498,verb_norming_L2-eng_oral_translation,001,806,
SCRUB,Leg,leg,0,84,84,41,0,1,1,1,1,1.689,,,2018_Sep_12_1653,59.631370498,verb_norming_L2-eng_oral_translation,001,806,
SCRUB,,,0,84,84,41,,,,,,,return,3.13635253752,2018_Sep_12_1653,59.631370498,verb_norming_L2-eng_oral_translation,001,806,
STUMBLE,Arm,arm,0,85,85,110,0,0,0,0,4,4.217,,,2018_Sep_12_1653,59.631370498,verb_norming_L2-eng_oral_translation,001,806,
STUMBLE,Leg,leg,0,85,85,110,0,1,1,1,4,0.682,,,2018_Sep_12_1653,59.631370498,verb_norming_L2-eng_oral_translation,001,806,
STUMBLE,,,0,85,85,110,,,,,,,return,1.1241394624,2018_Sep_12_1653,59.631370498,verb_norming_L2-eng_oral_translation,001,806,
PACE,Arm,arm,0,86,86,82,0,0,0,0,4,3.85,,,2018_Sep_12_1653,59.631370498,verb_norming_L2-eng_oral_translation,001,806,
PACE,Leg,leg,0,86,86,82,0,1,1,1,4,0.583,,,2018_Sep_12_1653,59.631370498,verb_norming_L2-eng_oral_translation,001,806,
PACE,,,0,86,86,82,,,,,,,return,1.72775048045,2018_Sep_12_1653,59.631370498,verb_norming_L2-eng_oral_translation,001,806,
SCRAPE,Arm,arm,0,87,87,39,0,0,0,0,4,3.664,,,2018_Sep_12_1653,59.631370498,verb_norming_L2-eng_oral_translation,001,806,
SCRAPE,Leg,leg,0,87,87,39,0,1,1,1,4,0.682,,,2018_Sep_12_1653,59.631370498,verb_norming_L2-eng_oral_translation,001,806,
SCRAPE,,,0,87,87,39,,,,,,,return,1.66076960034,2018_Sep_12_1653,59.631370498,verb_norming_L2-eng_oral_translation,001,806,
KNOCK,Arm,arm,0,88,88,24,0,0,0,0,7,5.577,,,2018_Sep_12_1653,59.631370498,verb_norming_L2-eng_oral_translation,001,806,
KNOCK,Leg,leg,0,88,88,24,0,1,1,1,1,1.085,,,2018_Sep_12_1653,59.631370498,verb_norming_L2-eng_oral_translation,001,806,
KNOCK,,,0,88,88,24,,,,,,,return,1.34207001568,2018_Sep_12_1653,59.631370498,verb_norming_L2-eng_oral_translation,001,806,
WIPE,Arm,arm,0,89,89,58,0,0,0,0,4,3.985,,,2018_Sep_12_1653,59.631370498,verb_norming_L2-eng_oral_translation,001,806,
WIPE,Leg,leg,0,89,89,58,0,1,1,1,4,0.667,,,2018_Sep_12_1653,59.631370498,verb_norming_L2-eng_oral_translation,001,806,
WIPE,,,0,89,89,58,,,,,,,return,2.06327005866,2018_Sep_12_1653,59.631370498,verb_norming_L2-eng_oral_translation,001,806,
RUN,Arm,arm,0,90,90,88,0,0,0,0,1,7.171,,,2018_Sep_12_1653,59.631370498,verb_norming_L2-eng_oral_translation,001,806,
RUN,Leg,leg,0,90,90,88,0,1,1,1,7,1.741,,,2018_Sep_12_1653,59.631370498,verb_norming_L2-eng_oral_translation,001,806,
RUN,,,0,90,90,88,,,,,,,return,1.22478087505,2018_Sep_12_1653,59.631370498,verb_norming_L2-eng_oral_translation,001,806,
TRAMPLE,Arm,arm,0,91,91,117,0,0,0,0,4,2.876,,,2018_Sep_12_1653,59.631370498,verb_norming_L2-eng_oral_translation,001,806,
TRAMPLE,Leg,leg,0,91,91,117,0,1,1,1,4,0.697,,,2018_Sep_12_1653,59.631370498,verb_norming_L2-eng_oral_translation,001,806,
TRAMPLE,,,0,91,91,117,,,,,,,return,1.49296476932,2018_Sep_12_1653,59.631370498,verb_norming_L2-eng_oral_translation,001,806,
PLUCK,Arm,arm,0,92,92,30,0,0,0,0,4,2.559,,,2018_Sep_12_1653,59.631370498,verb_norming_L2-eng_oral_translation,001,806,
PLUCK,Leg,leg,0,92,92,30,0,1,1,1,4,0.7,,,2018_Sep_12_1653,59.631370498,verb_norming_L2-eng_oral_translation,001,806,
PLUCK,,,0,92,92,30,,,,,,,return,1.6943092309,2018_Sep_12_1653,59.631370498,verb_norming_L2-eng_oral_translation,001,806,
PUSH,Arm,arm,0,93,93,35,0,0,0,0,7,8.915,,,2018_Sep_12_1653,59.631370498,verb_norming_L2-eng_oral_translation,001,806,
PUSH,Leg,leg,0,93,93,35,0,1,1,1,1,1.036,,,2018_Sep_12_1653,59.631370498,verb_norming_L2-eng_oral_translation,001,806,
PUSH,,,0,93,93,35,,,,,,,return,1.57691301695,2018_Sep_12_1653,59.631370498,verb_norming_L2-eng_oral_translation,001,806,
TROT,Arm,arm,0,94,94,121,0,0,0,0,4,2.441,,,2018_Sep_12_1653,59.631370498,verb_norming_L2-eng_oral_translation,001,806,
TROT,Leg,leg,0,94,94,121,0,1,1,1,4,0.684,,,2018_Sep_12_1653,59.631370498,verb_norming_L2-eng_oral_translation,001,806,
TROT,,,0,94,94,121,,,,,,,return,1.69437363294,2018_Sep_12_1653,59.631370498,verb_norming_L2-eng_oral_translation,001,806,
STAGGER,Arm,arm,0,95,95,100,0,0,0,0,4,4.166,,,2018_Sep_12_1653,59.631370498,verb_norming_L2-eng_oral_translation,001,806,
STAGGER,Leg,leg,0,95,95,100,0,1,1,1,4,0.714,,,2018_Sep_12_1653,59.631370498,verb_norming_L2-eng_oral_translation,001,806,
STAGGER,,,0,95,95,100,,,,,,,return,1.86202160748,2018_Sep_12_1653,59.631370498,verb_norming_L2-eng_oral_translation,001,806,
WOBBLE,Arm,arm,0,96,96,127,0,0,0,0,4,2.089,,,2018_Sep_12_1653,59.631370498,verb_norming_L2-eng_oral_translation,001,806,
WOBBLE,Leg,leg,0,96,96,127,0,1,1,1,4,0.683,,,2018_Sep_12_1653,59.631370498,verb_norming_L2-eng_oral_translation,001,806,
WOBBLE,,,0,96,96,127,,,,,,,return,1.09041492294,2018_Sep_12_1653,59.631370498,verb_norming_L2-eng_oral_translation,001,806,
SQUEEZE,Arm,arm,0,97,97,48,0,0,0,0,4,4.833,,,2018_Sep_12_1653,59.631370498,verb_norming_L2-eng_oral_translation,001,806,
SQUEEZE,Leg,leg,0,97,97,48,0,1,1,1,4,0.747,,,2018_Sep_12_1653,59.631370498,verb_norming_L2-eng_oral_translation,001,806,
SQUEEZE,,,0,97,97,48,,,,,,,return,1.52641076012,2018_Sep_12_1653,59.631370498,verb_norming_L2-eng_oral_translation,001,806,
KICK,Arm,arm,0,98,98,75,0,0,0,0,4,0.58,,,2018_Sep_12_1653,59.631370498,verb_norming_L2-eng_oral_translation,001,806,
KICK,Leg,leg,0,98,98,75,0,1,1,1,4,2.595,,,2018_Sep_12_1653,59.631370498,verb_norming_L2-eng_oral_translation,001,806,
KICK,,,0,98,98,75,,,,,,,return,2.1973922313,2018_Sep_12_1653,59.631370498,verb_norming_L2-eng_oral_translation,001,806,
DUNK,Arm,arm,0,99,99,14,0,0,0,0,4,2.893,,,2018_Sep_12_1653,59.631370498,verb_norming_L2-eng_oral_translation,001,806,
DUNK,Leg,leg,0,99,99,14,0,1,1,1,4,0.733,,,2018_Sep_12_1653,59.631370498,verb_norming_L2-eng_oral_translation,001,806,
DUNK,,,0,99,99,14,,,,,,,return,0.956385994967,2018_Sep_12_1653,59.631370498,verb_norming_L2-eng_oral_translation,001,806,
POKE,Arm,arm,0,100,100,31,0,0,0,0,4,2.257,,,2018_Sep_12_1653,59.631370498,verb_norming_L2-eng_oral_translation,001,806,
POKE,Leg,leg,0,100,100,31,0,1,1,1,4,0.715,,,2018_Sep_12_1653,59.631370498,verb_norming_L2-eng_oral_translation,001,806,
POKE,,,0,100,100,31,,,,,,,return,2.98555576979,2018_Sep_12_1653,59.631370498,verb_norming_L2-eng_oral_translation,001,806,
TUG,Arm,arm,0,101,101,54,0,0,0,0,4,2.038,,,2018_Sep_12_1653,59.631370498,verb_norming_L2-eng_oral_translation,001,806,
TUG,Leg,leg,0,101,101,54,0,1,1,1,4,0.867,,,2018_Sep_12_1653,59.631370498,verb_norming_L2-eng_oral_translation,001,806,
TUG,,,0,101,101,54,,,,,,,return,0.704693762407,2018_Sep_12_1653,59.631370498,verb_norming_L2-eng_oral_translation,001,806,
GLIDE,Arm,arm,0,102,102,67,0,0,0,0,4,5.055,,,2018_Sep_12_1653,59.631370498,verb_norming_L2-eng_oral_translation,001,806,
GLIDE,Leg,leg,0,102,102,67,0,1,1,1,4,0.631,,,2018_Sep_12_1653,59.631370498,verb_norming_L2-eng_oral_translation,001,806,
GLIDE,,,0,102,102,67,,,,,,,return,0.738359431303,2018_Sep_12_1653,59.631370498,verb_norming_L2-eng_oral_translation,001,806,
HOBBLE,Arm,arm,0,103,103,70,0,0,0,0,4,1.753,,,2018_Sep_12_1653,59.631370498,verb_norming_L2-eng_oral_translation,001,806,
HOBBLE,Leg,leg,0,103,103,70,0,1,1,1,4,1.504,,,2018_Sep_12_1653,59.631370498,verb_norming_L2-eng_oral_translation,001,806,
HOBBLE,,,0,103,103,70,,,,,,,return,4.64596582504,2018_Sep_12_1653,59.631370498,verb_norming_L2-eng_oral_translation,001,806,
SWAY,Arm,arm,0,104,104,111,0,0,0,0,4,5.695,,,2018_Sep_12_1653,59.631370498,verb_norming_L2-eng_oral_translation,001,806,
SWAY,Leg,leg,0,104,104,111,0,1,1,1,4,5.731,,,2018_Sep_12_1653,59.631370498,verb_norming_L2-eng_oral_translation,001,806,
SWAY,,,0,104,104,111,,,,,,,return,2.56629063255,2018_Sep_12_1653,59.631370498,verb_norming_L2-eng_oral_translation,001,806,
PEEL,Arm,arm,0,105,105,28,0,0,0,0,4,4.471,,,2018_Sep_12_1653,59.631370498,verb_norming_L2-eng_oral_translation,001,806,
PEEL,Leg,leg,0,105,105,28,0,1,1,1,4,1.086,,,2018_Sep_12_1653,59.631370498,verb_norming_L2-eng_oral_translation,001,806,
PEEL,,,0,105,105,28,,,,,,,return,1.91261750408,2018_Sep_12_1653,59.631370498,verb_norming_L2-eng_oral_translation,001,806,
NIP,Arm,arm,0,106,106,26,0,0,0,0,4,3.448,,,2018_Sep_12_1653,59.631370498,verb_norming_L2-eng_oral_translation,001,806,
NIP,Leg,leg,0,106,106,26,0,1,1,1,4,0.935,,,2018_Sep_12_1653,59.631370498,verb_norming_L2-eng_oral_translation,001,806,
NIP,,,0,106,106,26,,,,,,,return,1.10738387089,2018_Sep_12_1653,59.631370498,verb_norming_L2-eng_oral_translation,001,806,
SLIP,Arm,arm,0,107,107,95,0,0,0,0,4,2.206,,,2018_Sep_12_1653,59.631370498,verb_norming_L2-eng_oral_translation,001,806,
SLIP,Leg,leg,0,107,107,95,0,1,1,1,4,0.868,,,2018_Sep_12_1653,59.631370498,verb_norming_L2-eng_oral_translation,001,806,
SLIP,,,0,107,107,95,,,,,,,return,1.94574227492,2018_Sep_12_1653,59.631370498,verb_norming_L2-eng_oral_translation,001,806,
BRUSH,Arm,arm,0,108,108,3,0,0,0,0,4,5.058,,,2018_Sep_12_1653,59.631370498,verb_norming_L2-eng_oral_translation,001,806,
BRUSH,Leg,leg,0,108,108,3,0,1,1,1,4,1.036,,,2018_Sep_12_1653,59.631370498,verb_norming_L2-eng_oral_translation,001,806,
BRUSH,,,0,108,108,3,,,,,,,return,1.49299242664,2018_Sep_12_1653,59.631370498,verb_norming_L2-eng_oral_translation,001,806,
WRAP,Arm,arm,0,109,109,59,0,0,0,0,4,19.598,,,2018_Sep_12_1653,59.631370498,verb_norming_L2-eng_oral_translation,001,806,
WRAP,Leg,leg,0,109,109,59,0,1,1,1,4,0.748,,,2018_Sep_12_1653,59.631370498,verb_norming_L2-eng_oral_translation,001,806,
WRAP,,,0,109,109,59,,,,,,,return,1.22452958859,2018_Sep_12_1653,59.631370498,verb_norming_L2-eng_oral_translation,001,806,
DIG,Arm,arm,0,110,110,13,0,0,0,0,4,3.966,,,2018_Sep_12_1653,59.631370498,verb_norming_L2-eng_oral_translation,001,806,
DIG,Leg,leg,0,110,110,13,0,1,1,1,4,0.799,,,2018_Sep_12_1653,59.631370498,verb_norming_L2-eng_oral_translation,001,806,
DIG,,,0,110,110,13,,,,,,,return,1.40913544814,2018_Sep_12_1653,59.631370498,verb_norming_L2-eng_oral_translation,001,806,
TWINE,Arm,arm,0,111,111,55,0,0,0,0,4,4.403,,,2018_Sep_12_1653,59.631370498,verb_norming_L2-eng_oral_translation,001,806,
TWINE,Leg,leg,0,111,111,55,0,1,1,1,4,0.75,,,2018_Sep_12_1653,59.631370498,verb_norming_L2-eng_oral_translation,001,806,
TWINE,,,0,111,111,55,,,,,,,return,1.19116143338,2018_Sep_12_1653,59.631370498,verb_norming_L2-eng_oral_translation,001,806,
ROAM,Arm,arm,0,112,112,87,0,0,0,0,4,1.519,,,2018_Sep_12_1653,59.631370498,verb_norming_L2-eng_oral_translation,001,806,
ROAM,Leg,leg,0,112,112,87,0,1,1,1,4,1.388,,,2018_Sep_12_1653,59.631370498,verb_norming_L2-eng_oral_translation,001,806,
ROAM,,,0,112,112,87,,,,,,,return,3.48886990631,2018_Sep_12_1653,59.631370498,verb_norming_L2-eng_oral_translation,001,806,
SKIM,Arm,arm,0,113,113,45,0,0,0,0,4,2.509,,,2018_Sep_12_1653,59.631370498,verb_norming_L2-eng_oral_translation,001,806,
SKIM,Leg,leg,0,113,113,45,0,1,1,1,4,0.835,,,2018_Sep_12_1653,59.631370498,verb_norming_L2-eng_oral_translation,001,806,
SKIM,,,0,113,113,45,,,,,,,return,1.29175543348,2018_Sep_12_1653,59.631370498,verb_norming_L2-eng_oral_translation,001,806,
PLOD,Arm,arm,0,114,114,84,0,0,0,0,4,2.07,,,2018_Sep_12_1653,59.631370498,verb_norming_L2-eng_oral_translation,001,806,
PLOD,Leg,leg,0,114,114,84,0,1,1,1,4,0.934,,,2018_Sep_12_1653,59.631370498,verb_norming_L2-eng_oral_translation,001,806,
PLOD,,,0,114,114,84,,,,,,,return,1.94587028878,2018_Sep_12_1653,59.631370498,verb_norming_L2-eng_oral_translation,001,806,
PINCH,Arm,arm,0,115,115,29,0,0,0,0,4,1.72,,,2018_Sep_12_1653,59.631370498,verb_norming_L2-eng_oral_translation,001,806,
PINCH,Leg,leg,0,115,115,29,0,1,1,1,4,0.834,,,2018_Sep_12_1653,59.631370498,verb_norming_L2-eng_oral_translation,001,806,
PINCH,,,0,115,115,29,,,,,,,return,2.41523151543,2018_Sep_12_1653,59.631370498,verb_norming_L2-eng_oral_translation,001,806,
STRAY,Arm,arm,0,116,116,106,0,0,0,0,4,2.123,,,2018_Sep_12_1653,59.631370498,verb_norming_L2-eng_oral_translation,001,806,
STRAY,Leg,leg,0,116,116,106,0,1,1,1,4,0.834,,,2018_Sep_12_1653,59.631370498,verb_norming_L2-eng_oral_translation,001,806,
STRAY,,,0,116,116,106,,,,,,,return,3.08634100047,2018_Sep_12_1653,59.631370498,verb_norming_L2-eng_oral_translation,001,806,
HACK,Arm,arm,0,117,117,22,0,0,0,0,4,2.793,,,2018_Sep_12_1653,59.631370498,verb_norming_L2-eng_oral_translation,001,806,
HACK,Leg,leg,0,117,117,22,0,1,1,1,4,0.768,,,2018_Sep_12_1653,59.631370498,verb_norming_L2-eng_oral_translation,001,806,
HACK,,,0,117,117,22,,,,,,,return,1.5768821988,2018_Sep_12_1653,59.631370498,verb_norming_L2-eng_oral_translation,001,806,
ROW,Arm,arm,0,118,118,36,0,0,0,0,4,2.09,,,2018_Sep_12_1653,59.631370498,verb_norming_L2-eng_oral_translation,001,806,
ROW,Leg,leg,0,118,118,36,0,1,1,1,4,0.816,,,2018_Sep_12_1653,59.631370498,verb_norming_L2-eng_oral_translation,001,806,
ROW,,,0,118,118,36,,,,,,,return,1.10712349702,2018_Sep_12_1653,59.631370498,verb_norming_L2-eng_oral_translation,001,806,
DANCE,Arm,arm,0,119,119,64,0,0,0,0,7,7.689,,,2018_Sep_12_1653,59.631370498,verb_norming_L2-eng_oral_translation,001,806,
DANCE,Leg,leg,0,119,119,64,0,1,1,1,7,0.95,,,2018_Sep_12_1653,59.631370498,verb_norming_L2-eng_oral_translation,001,806,
DANCE,,,0,119,119,64,,,,,,,return,1.7446143306,2018_Sep_12_1653,59.631370498,verb_norming_L2-eng_oral_translation,001,806,
TODDLE,Arm,arm,0,120,120,113,0,0,0,0,4,2.321,,,2018_Sep_12_1653,59.631370498,verb_norming_L2-eng_oral_translation,001,806,
TODDLE,Leg,leg,0,120,120,113,0,1,1,1,4,0.748,,,2018_Sep_12_1653,59.631370498,verb_norming_L2-eng_oral_translation,001,806,
TODDLE,,,0,120,120,113,,,,,,,return,1.02333171077,2018_Sep_12_1653,59.631370498,verb_norming_L2-eng_oral_translation,001,806,
STROLL,Arm,arm,0,121,121,108,0,0,0,0,4,2.138,,,2018_Sep_12_1653,59.631370498,verb_norming_L2-eng_oral_translation,001,806,
STROLL,Leg,leg,0,121,121,108,0,1,1,1,4,0.682,,,2018_Sep_12_1653,59.631370498,verb_norming_L2-eng_oral_translation,001,806,
STROLL,,,0,121,121,108,,,,,,,return,0.855695589369,2018_Sep_12_1653,59.631370498,verb_norming_L2-eng_oral_translation,001,806,
SQUAT,Arm,arm,0,122,122,99,0,0,0,0,4,2.842,,,2018_Sep_12_1653,59.631370498,verb_norming_L2-eng_oral_translation,001,806,
SQUAT,Leg,leg,0,122,122,99,0,1,1,1,4,0.715,,,2018_Sep_12_1653,59.631370498,verb_norming_L2-eng_oral_translation,001,806,
SQUAT,,,0,122,122,99,,,,,,,return,1.77794771661,2018_Sep_12_1653,59.631370498,verb_norming_L2-eng_oral_translation,001,806,
STAND,Arm,arm,0,123,123,102,0,0,0,0,1,8.527,,,2018_Sep_12_1653,59.631370498,verb_norming_L2-eng_oral_translation,001,806,
STAND,Leg,leg,0,123,123,102,0,1,1,1,7,0.916,,,2018_Sep_12_1653,59.631370498,verb_norming_L2-eng_oral_translation,001,806,
STAND,,,0,123,123,102,,,,,,,return,2.51602859924,2018_Sep_12_1653,59.631370498,verb_norming_L2-eng_oral_translation,001,806,
STRIDE,Arm,arm,0,124,124,107,0,0,0,0,4,2.187,,,2018_Sep_12_1653,59.631370498,verb_norming_L2-eng_oral_translation,001,806,
STRIDE,Leg,leg,0,124,124,107,0,1,1,1,4,0.714,,,2018_Sep_12_1653,59.631370498,verb_norming_L2-eng_oral_translation,001,806,
STRIDE,,,0,124,124,107,,,,,,,return,1.29169498249,2018_Sep_12_1653,59.631370498,verb_norming_L2-eng_oral_translation,001,806,
CLAP,Arm,arm,0,125,125,7,0,0,0,0,7,7.439,,,2018_Sep_12_1653,59.631370498,verb_norming_L2-eng_oral_translation,001,806,
CLAP,Leg,leg,0,125,125,7,0,1,1,1,1,1.271,,,2018_Sep_12_1653,59.631370498,verb_norming_L2-eng_oral_translation,001,806,
CLAP,,,0,125,125,7,,,,,,,return,1.59368678328,2018_Sep_12_1653,59.631370498,verb_norming_L2-eng_oral_translation,001,806,
PEDAL,Arm,arm,0,126,126,83,0,0,0,0,4,2.758,,,2018_Sep_12_1653,59.631370498,verb_norming_L2-eng_oral_translation,001,806,
PEDAL,Leg,leg,0,126,126,83,0,1,1,1,4,0.799,,,2018_Sep_12_1653,59.631370498,verb_norming_L2-eng_oral_translation,001,806,
PEDAL,,,0,126,126,83,,,,,,,return,2.68359992351,2018_Sep_12_1653,59.631370498,verb_norming_L2-eng_oral_translation,001,806,
SLITHER,Arm,arm,0,127,127,96,0,0,0,0,4,3.595,,,2018_Sep_12_1653,59.631370498,verb_norming_L2-eng_oral_translation,001,806,
SLITHER,Leg,leg,0,127,127,96,0,1,1,1,4,0.833,,,2018_Sep_12_1653,59.631370498,verb_norming_L2-eng_oral_translation,001,806,
SLITHER,,,0,127,127,96,,,,,,,return,1.54314225026,2018_Sep_12_1653,59.631370498,verb_norming_L2-eng_oral_translation,001,806,
