word,category,category_lowercase,trials.thisRepN,trials.thisTrialN,trials.thisN,trials.thisIndex,armleg_loop.thisRepN,armleg_loop.thisTrialN,armleg_loop.thisN,armleg_loop.thisIndex,rating.response,rating.rt,key_resp_7.keys,key_resp_7.rt,date,frameRate,expName,session,participant,
WADE,Leg,leg,0,0,0,124,0,0,0,0,4,13.948,,,2018_Sep_13_1343,59.6239251807,verb_norming_L2-eng_oral_translation,001,807,
WADE,Arm,arm,0,0,0,124,0,1,1,1,1,5.665,,,2018_Sep_13_1343,59.6239251807,verb_norming_L2-eng_oral_translation,001,807,
WADE,,,0,0,0,124,,,,,,,return,14.5579886969,2018_Sep_13_1343,59.6239251807,verb_norming_L2-eng_oral_translation,001,807,
KNEEL,Leg,leg,0,1,1,76,0,0,0,0,7,13.458,,,2018_Sep_13_1343,59.6239251807,verb_norming_L2-eng_oral_translation,001,807,
KNEEL,Arm,arm,0,1,1,76,0,1,1,1,1,9.303,,,2018_Sep_13_1343,59.6239251807,verb_norming_L2-eng_oral_translation,001,807,
KNEEL,,,0,1,1,76,,,,,,,return,24.3684128178,2018_Sep_13_1343,59.6239251807,verb_norming_L2-eng_oral_translation,001,807,
STAGGER,Leg,leg,0,2,2,100,0,0,0,0,3,8.307,,,2018_Sep_13_1343,59.6239251807,verb_norming_L2-eng_oral_translation,001,807,
STAGGER,Arm,arm,0,2,2,100,0,1,1,1,5,2.98,,,2018_Sep_13_1343,59.6239251807,verb_norming_L2-eng_oral_translation,001,807,
STAGGER,,,0,2,2,100,,,,,,,return,2.18049598258,2018_Sep_13_1343,59.6239251807,verb_norming_L2-eng_oral_translation,001,807,
GESTURE,Leg,leg,0,3,3,17,0,0,0,0,1,5.241,,,2018_Sep_13_1343,59.6239251807,verb_norming_L2-eng_oral_translation,001,807,
GESTURE,Arm,arm,0,3,3,17,0,1,1,1,6,3.869,,,2018_Sep_13_1343,59.6239251807,verb_norming_L2-eng_oral_translation,001,807,
GESTURE,,,0,3,3,17,,,,,,,return,2.95241519477,2018_Sep_13_1343,59.6239251807,verb_norming_L2-eng_oral_translation,001,807,
CUT,Leg,leg,0,4,4,12,0,0,0,0,1,5.377,,,2018_Sep_13_1343,59.6239251807,verb_norming_L2-eng_oral_translation,001,807,
CUT,Arm,arm,0,4,4,12,0,1,1,1,7,1.908,,,2018_Sep_13_1343,59.6239251807,verb_norming_L2-eng_oral_translation,001,807,
CUT,,,0,4,4,12,,,,,,,return,2.51604321811,2018_Sep_13_1343,59.6239251807,verb_norming_L2-eng_oral_translation,001,807,
WOBBLE,Leg,leg,0,5,5,127,0,0,0,0,5,13.359,,,2018_Sep_13_1343,59.6239251807,verb_norming_L2-eng_oral_translation,001,807,
WOBBLE,Arm,arm,0,5,5,127,0,1,1,1,1,9.639,,,2018_Sep_13_1343,59.6239251807,verb_norming_L2-eng_oral_translation,001,807,
WOBBLE,,,0,5,5,127,,,,,,,return,2.80118025615,2018_Sep_13_1343,59.6239251807,verb_norming_L2-eng_oral_translation,001,807,
WADDLE,Leg,leg,0,6,6,123,0,0,0,0,4,4.789,,,2018_Sep_13_1343,59.6239251807,verb_norming_L2-eng_oral_translation,001,807,
WADDLE,Arm,arm,0,6,6,123,0,1,1,1,4,0.582,,,2018_Sep_13_1343,59.6239251807,verb_norming_L2-eng_oral_translation,001,807,
WADDLE,,,0,6,6,123,,,,,,,return,1.56011751988,2018_Sep_13_1343,59.6239251807,verb_norming_L2-eng_oral_translation,001,807,
SLIP,Leg,leg,0,7,7,95,0,0,0,0,7,4.404,,,2018_Sep_13_1343,59.6239251807,verb_norming_L2-eng_oral_translation,001,807,
SLIP,Arm,arm,0,7,7,95,0,1,1,1,1,1.639,,,2018_Sep_13_1343,59.6239251807,verb_norming_L2-eng_oral_translation,001,807,
SLIP,,,0,7,7,95,,,,,,,return,1.89546917869,2018_Sep_13_1343,59.6239251807,verb_norming_L2-eng_oral_translation,001,807,
BOUNCE,Leg,leg,0,8,8,60,0,0,0,0,5,5.476,,,2018_Sep_13_1343,59.6239251807,verb_norming_L2-eng_oral_translation,001,807,
BOUNCE,Arm,arm,0,8,8,60,0,1,1,1,1,2.427,,,2018_Sep_13_1343,59.6239251807,verb_norming_L2-eng_oral_translation,001,807,
BOUNCE,,,0,8,8,60,,,,,,,return,2.66699249618,2018_Sep_13_1343,59.6239251807,verb_norming_L2-eng_oral_translation,001,807,
GRIP,Leg,leg,0,9,9,21,0,0,0,0,1,7.389,,,2018_Sep_13_1343,59.6239251807,verb_norming_L2-eng_oral_translation,001,807,
GRIP,Arm,arm,0,9,9,21,0,1,1,1,7,0.868,,,2018_Sep_13_1343,59.6239251807,verb_norming_L2-eng_oral_translation,001,807,
GRIP,,,0,9,9,21,,,,,,,return,10.5660772761,2018_Sep_13_1343,59.6239251807,verb_norming_L2-eng_oral_translation,001,807,
FILE,Leg,leg,0,10,10,15,0,0,0,0,1,13.611,,,2018_Sep_13_1343,59.6239251807,verb_norming_L2-eng_oral_translation,001,807,
FILE,Arm,arm,0,10,10,15,0,1,1,1,5,27.182,,,2018_Sep_13_1343,59.6239251807,verb_norming_L2-eng_oral_translation,001,807,
FILE,,,0,10,10,15,,,,,,,return,25.6607360165,2018_Sep_13_1343,59.6239251807,verb_norming_L2-eng_oral_translation,001,807,
PUNCH,Leg,leg,0,11,11,34,0,0,0,0,1,4.353,,,2018_Sep_13_1343,59.6239251807,verb_norming_L2-eng_oral_translation,001,807,
PUNCH,Arm,arm,0,11,11,34,0,1,1,1,5,3.249,,,2018_Sep_13_1343,59.6239251807,verb_norming_L2-eng_oral_translation,001,807,
PUNCH,,,0,11,11,34,,,,,,,return,2.01291399049,2018_Sep_13_1343,59.6239251807,verb_norming_L2-eng_oral_translation,001,807,
CYCLE,Leg,leg,0,12,12,63,0,0,0,0,5,6.835,,,2018_Sep_13_1343,59.6239251807,verb_norming_L2-eng_oral_translation,001,807,
CYCLE,Arm,arm,0,12,12,63,0,1,1,1,1,33.453,,,2018_Sep_13_1343,59.6239251807,verb_norming_L2-eng_oral_translation,001,807,
CYCLE,,,0,12,12,63,,,,,,,return,1.92907321128,2018_Sep_13_1343,59.6239251807,verb_norming_L2-eng_oral_translation,001,807,
STAMP,Leg,leg,0,13,13,101,0,0,0,0,7,11.476,,,2018_Sep_13_1343,59.6239251807,verb_norming_L2-eng_oral_translation,001,807,
STAMP,Arm,arm,0,13,13,101,0,1,1,1,1,0.547,,,2018_Sep_13_1343,59.6239251807,verb_norming_L2-eng_oral_translation,001,807,
STAMP,,,0,13,13,101,,,,,,,return,4.54516202445,2018_Sep_13_1343,59.6239251807,verb_norming_L2-eng_oral_translation,001,807,
WASH,Leg,leg,0,14,14,56,0,0,0,0,1,4.068,,,2018_Sep_13_1343,59.6239251807,verb_norming_L2-eng_oral_translation,001,807,
WASH,Arm,arm,0,14,14,56,0,1,1,1,7,1.019,,,2018_Sep_13_1343,59.6239251807,verb_norming_L2-eng_oral_translation,001,807,
WASH,,,0,14,14,56,,,,,,,return,1.6605902229,2018_Sep_13_1343,59.6239251807,verb_norming_L2-eng_oral_translation,001,807,
POKE,Leg,leg,0,15,15,31,0,0,0,0,1,3.163,,,2018_Sep_13_1343,59.6239251807,verb_norming_L2-eng_oral_translation,001,807,
POKE,Arm,arm,0,15,15,31,0,1,1,1,7,2.562,,,2018_Sep_13_1343,59.6239251807,verb_norming_L2-eng_oral_translation,001,807,
POKE,,,0,15,15,31,,,,,,,return,1.77818280379,2018_Sep_13_1343,59.6239251807,verb_norming_L2-eng_oral_translation,001,807,
SWITCH,Leg,leg,0,16,16,51,0,0,0,0,1,3.833,,,2018_Sep_13_1343,59.6239251807,verb_norming_L2-eng_oral_translation,001,807,
SWITCH,Arm,arm,0,16,16,51,0,1,1,1,6,5.747,,,2018_Sep_13_1343,59.6239251807,verb_norming_L2-eng_oral_translation,001,807,
SWITCH,,,0,16,16,51,,,,,,,return,2.41542788237,2018_Sep_13_1343,59.6239251807,verb_norming_L2-eng_oral_translation,001,807,
WALK,Leg,leg,0,17,17,125,0,0,0,0,7,3.263,,,2018_Sep_13_1343,59.6239251807,verb_norming_L2-eng_oral_translation,001,807,
WALK,Arm,arm,0,17,17,125,0,1,1,1,1,0.6,,,2018_Sep_13_1343,59.6239251807,verb_norming_L2-eng_oral_translation,001,807,
WALK,,,0,17,17,125,,,,,,,return,2.09667219286,2018_Sep_13_1343,59.6239251807,verb_norming_L2-eng_oral_translation,001,807,
TRUDGE,Leg,leg,0,18,18,122,0,0,0,0,4,2.692,,,2018_Sep_13_1343,59.6239251807,verb_norming_L2-eng_oral_translation,001,807,
TRUDGE,Arm,arm,0,18,18,122,0,1,1,1,4,0.549,,,2018_Sep_13_1343,59.6239251807,verb_norming_L2-eng_oral_translation,001,807,
TRUDGE,,,0,18,18,122,,,,,,,return,1.57676919892,2018_Sep_13_1343,59.6239251807,verb_norming_L2-eng_oral_translation,001,807,
DUNK,Leg,leg,0,19,19,14,0,0,0,0,1,3.901,,,2018_Sep_13_1343,59.6239251807,verb_norming_L2-eng_oral_translation,001,807,
DUNK,Arm,arm,0,19,19,14,0,1,1,1,7,0.6,,,2018_Sep_13_1343,59.6239251807,verb_norming_L2-eng_oral_translation,001,807,
DUNK,,,0,19,19,14,,,,,,,return,1.5602072086,2018_Sep_13_1343,59.6239251807,verb_norming_L2-eng_oral_translation,001,807,
LUMBER,Leg,leg,0,20,20,79,0,0,0,0,5,9.835,,,2018_Sep_13_1343,59.6239251807,verb_norming_L2-eng_oral_translation,001,807,
LUMBER,Arm,arm,0,20,20,79,0,1,1,1,1,10.274,,,2018_Sep_13_1343,59.6239251807,verb_norming_L2-eng_oral_translation,001,807,
LUMBER,,,0,20,20,79,,,,,,,return,1.52659053266,2018_Sep_13_1343,59.6239251807,verb_norming_L2-eng_oral_translation,001,807,
HIKE,Leg,leg,0,21,21,69,0,0,0,0,6,6.081,,,2018_Sep_13_1343,59.6239251807,verb_norming_L2-eng_oral_translation,001,807,
HIKE,Arm,arm,0,21,21,69,0,1,1,1,1,7.224,,,2018_Sep_13_1343,59.6239251807,verb_norming_L2-eng_oral_translation,001,807,
HIKE,,,0,21,21,69,,,,,,,return,2.48231670312,2018_Sep_13_1343,59.6239251807,verb_norming_L2-eng_oral_translation,001,807,
PEDAL,Leg,leg,0,22,22,83,0,0,0,0,4,2.508,,,2018_Sep_13_1343,59.6239251807,verb_norming_L2-eng_oral_translation,001,807,
PEDAL,Arm,arm,0,22,22,83,0,1,1,1,4,4.322,,,2018_Sep_13_1343,59.6239251807,verb_norming_L2-eng_oral_translation,001,807,
PEDAL,,,0,22,22,83,,,,,,,return,2.06310727561,2018_Sep_13_1343,59.6239251807,verb_norming_L2-eng_oral_translation,001,807,
CLAP,Leg,leg,0,23,23,7,0,0,0,0,1,4.303,,,2018_Sep_13_1343,59.6239251807,verb_norming_L2-eng_oral_translation,001,807,
CLAP,Arm,arm,0,23,23,7,0,1,1,1,7,1.086,,,2018_Sep_13_1343,59.6239251807,verb_norming_L2-eng_oral_translation,001,807,
CLAP,,,0,23,23,7,,,,,,,return,1.49293237075,2018_Sep_13_1343,59.6239251807,verb_norming_L2-eng_oral_translation,001,807,
TOSS,Leg,leg,0,24,24,53,0,0,0,0,7,3.566,,,2018_Sep_13_1343,59.6239251807,verb_norming_L2-eng_oral_translation,001,807,
TOSS,Arm,arm,0,24,24,53,0,1,1,1,1,1.036,,,2018_Sep_13_1343,59.6239251807,verb_norming_L2-eng_oral_translation,001,807,
TOSS,,,0,24,24,53,,,,,,,return,2.23088010317,2018_Sep_13_1343,59.6239251807,verb_norming_L2-eng_oral_translation,001,807,
SHAKE,Leg,leg,0,25,25,43,0,0,0,0,1,2.274,,,2018_Sep_13_1343,59.6239251807,verb_norming_L2-eng_oral_translation,001,807,
SHAKE,Arm,arm,0,25,25,43,0,1,1,1,7,0.935,,,2018_Sep_13_1343,59.6239251807,verb_norming_L2-eng_oral_translation,001,807,
SHAKE,,,0,25,25,43,,,,,,,return,1.6606166949,2018_Sep_13_1343,59.6239251807,verb_norming_L2-eng_oral_translation,001,807,
SAUNTER,Leg,leg,0,26,26,90,0,0,0,0,4,3.246,,,2018_Sep_13_1343,59.6239251807,verb_norming_L2-eng_oral_translation,001,807,
SAUNTER,Arm,arm,0,26,26,90,0,1,1,1,4,0.598,,,2018_Sep_13_1343,59.6239251807,verb_norming_L2-eng_oral_translation,001,807,
SAUNTER,,,0,26,26,90,,,,,,,return,1.64383739712,2018_Sep_13_1343,59.6239251807,verb_norming_L2-eng_oral_translation,001,807,
STRUT,Leg,leg,0,27,27,109,0,0,0,0,7,14.046,,,2018_Sep_13_1343,59.6239251807,verb_norming_L2-eng_oral_translation,001,807,
STRUT,Arm,arm,0,27,27,109,0,1,1,1,2,5.194,,,2018_Sep_13_1343,59.6239251807,verb_norming_L2-eng_oral_translation,001,807,
STRUT,,,0,27,27,109,,,,,,,return,1.39247942296,2018_Sep_13_1343,59.6239251807,verb_norming_L2-eng_oral_translation,001,807,
WHIP,Leg,leg,0,28,28,57,0,0,0,0,1,10.005,,,2018_Sep_13_1343,59.6239251807,verb_norming_L2-eng_oral_translation,001,807,
WHIP,Arm,arm,0,28,28,57,0,1,1,1,7,1.337,,,2018_Sep_13_1343,59.6239251807,verb_norming_L2-eng_oral_translation,001,807,
WHIP,,,0,28,28,57,,,,,,,return,1.34209569747,2018_Sep_13_1343,59.6239251807,verb_norming_L2-eng_oral_translation,001,807,
SHAMBLE,Leg,leg,0,29,29,91,0,0,0,0,4,3.729,,,2018_Sep_13_1343,59.6239251807,verb_norming_L2-eng_oral_translation,001,807,
SHAMBLE,Arm,arm,0,29,29,91,0,1,1,1,4,0.596,,,2018_Sep_13_1343,59.6239251807,verb_norming_L2-eng_oral_translation,001,807,
SHAMBLE,,,0,29,29,91,,,,,,,return,1.22443673903,2018_Sep_13_1343,59.6239251807,verb_norming_L2-eng_oral_translation,001,807,
SCRUB,Leg,leg,0,30,30,41,0,0,0,0,1,2.173,,,2018_Sep_13_1343,59.6239251807,verb_norming_L2-eng_oral_translation,001,807,
SCRUB,Arm,arm,0,30,30,41,0,1,1,1,7,0.633,,,2018_Sep_13_1343,59.6239251807,verb_norming_L2-eng_oral_translation,001,807,
SCRUB,,,0,30,30,41,,,,,,,return,1.56003217731,2018_Sep_13_1343,59.6239251807,verb_norming_L2-eng_oral_translation,001,807,
RUN,Leg,leg,0,31,31,88,0,0,0,0,7,2.459,,,2018_Sep_13_1343,59.6239251807,verb_norming_L2-eng_oral_translation,001,807,
RUN,Arm,arm,0,31,31,88,0,1,1,1,1,0.985,,,2018_Sep_13_1343,59.6239251807,verb_norming_L2-eng_oral_translation,001,807,
RUN,,,0,31,31,88,,,,,,,return,1.99619158775,2018_Sep_13_1343,59.6239251807,verb_norming_L2-eng_oral_translation,001,807,
JUMP,Leg,leg,0,32,32,74,0,0,0,0,7,2.186,,,2018_Sep_13_1343,59.6239251807,verb_norming_L2-eng_oral_translation,001,807,
JUMP,Arm,arm,0,32,32,74,0,1,1,1,1,0.899,,,2018_Sep_13_1343,59.6239251807,verb_norming_L2-eng_oral_translation,001,807,
JUMP,,,0,32,32,74,,,,,,,return,1.66062222637,2018_Sep_13_1343,59.6239251807,verb_norming_L2-eng_oral_translation,001,807,
TUG,Leg,leg,0,33,33,54,0,0,0,0,4,5.83,,,2018_Sep_13_1343,59.6239251807,verb_norming_L2-eng_oral_translation,001,807,
TUG,Arm,arm,0,33,33,54,0,1,1,1,4,0.533,,,2018_Sep_13_1343,59.6239251807,verb_norming_L2-eng_oral_translation,001,807,
TUG,,,0,33,33,54,,,,,,,return,1.34198822905,2018_Sep_13_1343,59.6239251807,verb_norming_L2-eng_oral_translation,001,807,
SKIP,Leg,leg,0,34,34,93,0,0,0,0,6,19.933,,,2018_Sep_13_1343,59.6239251807,verb_norming_L2-eng_oral_translation,001,807,
SKIP,Arm,arm,0,34,34,93,0,1,1,1,1,1.723,,,2018_Sep_13_1343,59.6239251807,verb_norming_L2-eng_oral_translation,001,807,
SKIP,,,0,34,34,93,,,,,,,return,2.66693994728,2018_Sep_13_1343,59.6239251807,verb_norming_L2-eng_oral_translation,001,807,
SNEAK,Leg,leg,0,35,35,97,0,0,0,0,3,6.181,,,2018_Sep_13_1343,59.6239251807,verb_norming_L2-eng_oral_translation,001,807,
SNEAK,Arm,arm,0,35,35,97,0,1,1,1,1,1.018,,,2018_Sep_13_1343,59.6239251807,verb_norming_L2-eng_oral_translation,001,807,
SNEAK,,,0,35,35,97,,,,,,,return,2.14707567357,2018_Sep_13_1343,59.6239251807,verb_norming_L2-eng_oral_translation,001,807,
HOBBLE,Leg,leg,0,36,36,70,0,0,0,0,4,1.686,,,2018_Sep_13_1343,59.6239251807,verb_norming_L2-eng_oral_translation,001,807,
HOBBLE,Arm,arm,0,36,36,70,0,1,1,1,4,0.616,,,2018_Sep_13_1343,59.6239251807,verb_norming_L2-eng_oral_translation,001,807,
HOBBLE,,,0,36,36,70,,,,,,,return,1.24150801904,2018_Sep_13_1343,59.6239251807,verb_norming_L2-eng_oral_translation,001,807,
GRATE,Leg,leg,0,37,37,20,0,0,0,0,1,15.54,,,2018_Sep_13_1343,59.6239251807,verb_norming_L2-eng_oral_translation,001,807,
GRATE,Arm,arm,0,37,37,20,0,1,1,1,5,0.683,,,2018_Sep_13_1343,59.6239251807,verb_norming_L2-eng_oral_translation,001,807,
GRATE,,,0,37,37,20,,,,,,,return,1.2583023308,2018_Sep_13_1343,59.6239251807,verb_norming_L2-eng_oral_translation,001,807,
WANDER,Leg,leg,0,38,38,126,0,0,0,0,6,5.51,,,2018_Sep_13_1343,59.6239251807,verb_norming_L2-eng_oral_translation,001,807,
WANDER,Arm,arm,0,38,38,126,0,1,1,1,1,30.87,,,2018_Sep_13_1343,59.6239251807,verb_norming_L2-eng_oral_translation,001,807,
WANDER,,,0,38,38,126,,,,,,,return,5.26643634708,2018_Sep_13_1343,59.6239251807,verb_norming_L2-eng_oral_translation,001,807,
GRASP,Leg,leg,0,39,39,19,0,0,0,0,3,10.961,,,2018_Sep_13_1343,59.6239251807,verb_norming_L2-eng_oral_translation,001,807,
GRASP,Arm,arm,0,39,39,19,0,1,1,1,6,5.227,,,2018_Sep_13_1343,59.6239251807,verb_norming_L2-eng_oral_translation,001,807,
GRASP,,,0,39,39,19,,,,,,,return,0.956182121047,2018_Sep_13_1343,59.6239251807,verb_norming_L2-eng_oral_translation,001,807,
SNATCH,Leg,leg,0,40,40,47,0,0,0,0,2,7.337,,,2018_Sep_13_1343,59.6239251807,verb_norming_L2-eng_oral_translation,001,807,
SNATCH,Arm,arm,0,40,40,47,0,1,1,1,6,6.922,,,2018_Sep_13_1343,59.6239251807,verb_norming_L2-eng_oral_translation,001,807,
SNATCH,,,0,40,40,47,,,,,,,return,1.34209135132,2018_Sep_13_1343,59.6239251807,verb_norming_L2-eng_oral_translation,001,807,
DASH,Leg,leg,0,41,41,65,0,0,0,0,4,4.924,,,2018_Sep_13_1343,59.6239251807,verb_norming_L2-eng_oral_translation,001,807,
DASH,Arm,arm,0,41,41,65,0,1,1,1,4,1.053,,,2018_Sep_13_1343,59.6239251807,verb_norming_L2-eng_oral_translation,001,807,
DASH,,,0,41,41,65,,,,,,,return,1.27503461115,2018_Sep_13_1343,59.6239251807,verb_norming_L2-eng_oral_translation,001,807,
CLEAN,Leg,leg,0,42,42,9,0,0,0,0,1,5.644,,,2018_Sep_13_1343,59.6239251807,verb_norming_L2-eng_oral_translation,001,807,
CLEAN,Arm,arm,0,42,42,9,0,1,1,1,7,0.616,,,2018_Sep_13_1343,59.6239251807,verb_norming_L2-eng_oral_translation,001,807,
CLEAN,,,0,42,42,9,,,,,,,return,1.7447376032,2018_Sep_13_1343,59.6239251807,verb_norming_L2-eng_oral_translation,001,807,
TWINE,Leg,leg,0,43,43,55,0,0,0,0,1,7.187,,,2018_Sep_13_1343,59.6239251807,verb_norming_L2-eng_oral_translation,001,807,
TWINE,Arm,arm,0,43,43,55,0,1,1,1,6,0.935,,,2018_Sep_13_1343,59.6239251807,verb_norming_L2-eng_oral_translation,001,807,
TWINE,,,0,43,43,55,,,,,,,return,3.33784358287,2018_Sep_13_1343,59.6239251807,verb_norming_L2-eng_oral_translation,001,807,
KNOCK,Leg,leg,0,44,44,24,0,0,0,0,1,2.106,,,2018_Sep_13_1343,59.6239251807,verb_norming_L2-eng_oral_translation,001,807,
KNOCK,Arm,arm,0,44,44,24,0,1,1,1,7,0.431,,,2018_Sep_13_1343,59.6239251807,verb_norming_L2-eng_oral_translation,001,807,
KNOCK,,,0,44,44,24,,,,,,,return,1.64374138672,2018_Sep_13_1343,59.6239251807,verb_norming_L2-eng_oral_translation,001,807,
TIPTOE,Leg,leg,0,45,45,112,0,0,0,0,7,3.296,,,2018_Sep_13_1343,59.6239251807,verb_norming_L2-eng_oral_translation,001,807,
TIPTOE,Arm,arm,0,45,45,112,0,1,1,1,1,0.833,,,2018_Sep_13_1343,59.6239251807,verb_norming_L2-eng_oral_translation,001,807,
TIPTOE,,,0,45,45,112,,,,,,,return,1.92907084066,2018_Sep_13_1343,59.6239251807,verb_norming_L2-eng_oral_translation,001,807,
RAMBLE,Leg,leg,0,46,46,86,0,0,0,0,4,9.684,,,2018_Sep_13_1343,59.6239251807,verb_norming_L2-eng_oral_translation,001,807,
RAMBLE,Arm,arm,0,46,46,86,0,1,1,1,4,0.664,,,2018_Sep_13_1343,59.6239251807,verb_norming_L2-eng_oral_translation,001,807,
RAMBLE,,,0,46,46,86,,,,,,,return,1.05679666658,2018_Sep_13_1343,59.6239251807,verb_norming_L2-eng_oral_translation,001,807,
PUSH,Leg,leg,0,47,47,35,0,0,0,0,1,1.989,,,2018_Sep_13_1343,59.6239251807,verb_norming_L2-eng_oral_translation,001,807,
PUSH,Arm,arm,0,47,47,35,0,1,1,1,7,2.444,,,2018_Sep_13_1343,59.6239251807,verb_norming_L2-eng_oral_translation,001,807,
PUSH,,,0,47,47,35,,,,,,,return,1.7781922863,2018_Sep_13_1343,59.6239251807,verb_norming_L2-eng_oral_translation,001,807,
SPRINT,Leg,leg,0,48,48,98,0,0,0,0,7,4.185,,,2018_Sep_13_1343,59.6239251807,verb_norming_L2-eng_oral_translation,001,807,
SPRINT,Arm,arm,0,48,48,98,0,1,1,1,1,0.599,,,2018_Sep_13_1343,59.6239251807,verb_norming_L2-eng_oral_translation,001,807,
SPRINT,,,0,48,48,98,,,,,,,return,1.76135174731,2018_Sep_13_1343,59.6239251807,verb_norming_L2-eng_oral_translation,001,807,
SLITHER,Leg,leg,0,49,49,96,0,0,0,0,4,2.44,,,2018_Sep_13_1343,59.6239251807,verb_norming_L2-eng_oral_translation,001,807,
SLITHER,Arm,arm,0,49,49,96,0,1,1,1,4,0.581,,,2018_Sep_13_1343,59.6239251807,verb_norming_L2-eng_oral_translation,001,807,
SLITHER,,,0,49,49,96,,,,,,,return,1.30841857054,2018_Sep_13_1343,59.6239251807,verb_norming_L2-eng_oral_translation,001,807,
SCOOP,Leg,leg,0,50,50,38,0,0,0,0,1,8.713,,,2018_Sep_13_1343,59.6239251807,verb_norming_L2-eng_oral_translation,001,807,
SCOOP,Arm,arm,0,50,50,38,0,1,1,1,6,2.091,,,2018_Sep_13_1343,59.6239251807,verb_norming_L2-eng_oral_translation,001,807,
SCOOP,,,0,50,50,38,,,,,,,return,1.2581087296,2018_Sep_13_1343,59.6239251807,verb_norming_L2-eng_oral_translation,001,807,
SCRATCH,Leg,leg,0,51,51,40,0,0,0,0,1,2.809,,,2018_Sep_13_1343,59.6239251807,verb_norming_L2-eng_oral_translation,001,807,
SCRATCH,Arm,arm,0,51,51,40,0,1,1,1,7,0.615,,,2018_Sep_13_1343,59.6239251807,verb_norming_L2-eng_oral_translation,001,807,
SCRATCH,,,0,51,51,40,,,,,,,return,1.375378115,2018_Sep_13_1343,59.6239251807,verb_norming_L2-eng_oral_translation,001,807,
BIND,Leg,leg,0,52,52,1,0,0,0,0,1,4.286,,,2018_Sep_13_1343,59.6239251807,verb_norming_L2-eng_oral_translation,001,807,
BIND,Arm,arm,0,52,52,1,0,1,1,1,7,4.91,,,2018_Sep_13_1343,59.6239251807,verb_norming_L2-eng_oral_translation,001,807,
BIND,,,0,52,52,1,,,,,,,return,2.11353999406,2018_Sep_13_1343,59.6239251807,verb_norming_L2-eng_oral_translation,001,807,
BRAID,Leg,leg,0,53,53,2,0,0,0,0,1,2.76,,,2018_Sep_13_1343,59.6239251807,verb_norming_L2-eng_oral_translation,001,807,
BRAID,Arm,arm,0,53,53,2,0,1,1,1,7,0.532,,,2018_Sep_13_1343,59.6239251807,verb_norming_L2-eng_oral_translation,001,807,
BRAID,,,0,53,53,2,,,,,,,return,2.16376251691,2018_Sep_13_1343,59.6239251807,verb_norming_L2-eng_oral_translation,001,807,
STOMP,Leg,leg,0,54,54,104,0,0,0,0,6,7.991,,,2018_Sep_13_1343,59.6239251807,verb_norming_L2-eng_oral_translation,001,807,
STOMP,Arm,arm,0,54,54,104,0,1,1,1,2,9.352,,,2018_Sep_13_1343,59.6239251807,verb_norming_L2-eng_oral_translation,001,807,
STOMP,,,0,54,54,104,,,,,,,return,4.09257219349,2018_Sep_13_1343,59.6239251807,verb_norming_L2-eng_oral_translation,001,807,
SWAY,Leg,leg,0,55,55,111,0,0,0,0,2,14.064,,,2018_Sep_13_1343,59.6239251807,verb_norming_L2-eng_oral_translation,001,807,
SWAY,Arm,arm,0,55,55,111,0,1,1,1,7,0.732,,,2018_Sep_13_1343,59.6239251807,verb_norming_L2-eng_oral_translation,001,807,
SWAY,,,0,55,55,111,,,,,,,return,2.0464575721,2018_Sep_13_1343,59.6239251807,verb_norming_L2-eng_oral_translation,001,807,
TREK,Leg,leg,0,56,56,119,0,0,0,0,5,2.676,,,2018_Sep_13_1343,59.6239251807,verb_norming_L2-eng_oral_translation,001,807,
TREK,Arm,arm,0,56,56,119,0,1,1,1,4,5.229,,,2018_Sep_13_1343,59.6239251807,verb_norming_L2-eng_oral_translation,001,807,
TREK,,,0,56,56,119,,,,,,,return,1.22458529832,2018_Sep_13_1343,59.6239251807,verb_norming_L2-eng_oral_translation,001,807,
SCRAPE,Leg,leg,0,57,57,39,0,0,0,0,4,6.75,,,2018_Sep_13_1343,59.6239251807,verb_norming_L2-eng_oral_translation,001,807,
SCRAPE,Arm,arm,0,57,57,39,0,1,1,1,4,0.498,,,2018_Sep_13_1343,59.6239251807,verb_norming_L2-eng_oral_translation,001,807,
SCRAPE,,,0,57,57,39,,,,,,,return,1.0246964017,2018_Sep_13_1343,59.6239251807,verb_norming_L2-eng_oral_translation,001,807,
SKATE,Leg,leg,0,58,58,92,0,0,0,0,7,3.766,,,2018_Sep_13_1343,59.6239251807,verb_norming_L2-eng_oral_translation,001,807,
SKATE,Arm,arm,0,58,58,92,0,1,1,1,1,2.729,,,2018_Sep_13_1343,59.6239251807,verb_norming_L2-eng_oral_translation,001,807,
SKATE,,,0,58,58,92,,,,,,,return,2.16387986295,2018_Sep_13_1343,59.6239251807,verb_norming_L2-eng_oral_translation,001,807,
STROLL,Leg,leg,0,59,59,108,0,0,0,0,7,5.829,,,2018_Sep_13_1343,59.6239251807,verb_norming_L2-eng_oral_translation,001,807,
STROLL,Arm,arm,0,59,59,108,0,1,1,1,1,5.143,,,2018_Sep_13_1343,59.6239251807,verb_norming_L2-eng_oral_translation,001,807,
STROLL,,,0,59,59,108,,,,,,,return,1.92901789665,2018_Sep_13_1343,59.6239251807,verb_norming_L2-eng_oral_translation,001,807,
ROAM,Leg,leg,0,60,60,87,0,0,0,0,4,3.815,,,2018_Sep_13_1343,59.6239251807,verb_norming_L2-eng_oral_translation,001,807,
ROAM,Arm,arm,0,60,60,87,0,1,1,1,4,0.531,,,2018_Sep_13_1343,59.6239251807,verb_norming_L2-eng_oral_translation,001,807,
ROAM,,,0,60,60,87,,,,,,,return,1.1911199474,2018_Sep_13_1343,59.6239251807,verb_norming_L2-eng_oral_translation,001,807,
GROVEL,Leg,leg,0,61,61,68,0,0,0,0,4,1.334,,,2018_Sep_13_1343,59.6239251807,verb_norming_L2-eng_oral_translation,001,807,
GROVEL,Arm,arm,0,61,61,68,0,1,1,1,4,0.565,,,2018_Sep_13_1343,59.6239251807,verb_norming_L2-eng_oral_translation,001,807,
GROVEL,,,0,61,61,68,,,,,,,return,2.93532573995,2018_Sep_13_1343,59.6239251807,verb_norming_L2-eng_oral_translation,001,807,
FOLD,Leg,leg,0,62,62,16,0,0,0,0,1,4.101,,,2018_Sep_13_1343,59.6239251807,verb_norming_L2-eng_oral_translation,001,807,
FOLD,Arm,arm,0,62,62,16,0,1,1,1,7,0.885,,,2018_Sep_13_1343,59.6239251807,verb_norming_L2-eng_oral_translation,001,807,
FOLD,,,0,62,62,16,,,,,,,return,1.76138335567,2018_Sep_13_1343,59.6239251807,verb_norming_L2-eng_oral_translation,001,807,
HACK,Leg,leg,0,63,63,22,0,0,0,0,1,11.732,,,2018_Sep_13_1343,59.6239251807,verb_norming_L2-eng_oral_translation,001,807,
HACK,Arm,arm,0,63,63,22,0,1,1,1,6,2.93,,,2018_Sep_13_1343,59.6239251807,verb_norming_L2-eng_oral_translation,001,807,
HACK,,,0,63,63,22,,,,,,,return,0.805382587587,2018_Sep_13_1343,59.6239251807,verb_norming_L2-eng_oral_translation,001,807,
PRANCE,Leg,leg,0,64,64,85,0,0,0,0,4,1.954,,,2018_Sep_13_1343,59.6239251807,verb_norming_L2-eng_oral_translation,001,807,
PRANCE,Arm,arm,0,64,64,85,0,1,1,1,4,0.513,,,2018_Sep_13_1343,59.6239251807,verb_norming_L2-eng_oral_translation,001,807,
PRANCE,,,0,64,64,85,,,,,,,return,1.29177913975,2018_Sep_13_1343,59.6239251807,verb_norming_L2-eng_oral_translation,001,807,
STUMBLE,Leg,leg,0,65,65,110,0,0,0,0,7,8.006,,,2018_Sep_13_1343,59.6239251807,verb_norming_L2-eng_oral_translation,001,807,
STUMBLE,Arm,arm,0,65,65,110,0,1,1,1,1,9.284,,,2018_Sep_13_1343,59.6239251807,verb_norming_L2-eng_oral_translation,001,807,
STUMBLE,,,0,65,65,110,,,,,,,return,3.43845931372,2018_Sep_13_1343,59.6239251807,verb_norming_L2-eng_oral_translation,001,807,
HOP,Leg,leg,0,66,66,71,0,0,0,0,6,26.223,,,2018_Sep_13_1343,59.6239251807,verb_norming_L2-eng_oral_translation,001,807,
HOP,Arm,arm,0,66,66,71,0,1,1,1,1,4.944,,,2018_Sep_13_1343,59.6239251807,verb_norming_L2-eng_oral_translation,001,807,
HOP,,,0,66,66,71,,,,,,,return,1.64396422566,2018_Sep_13_1343,59.6239251807,verb_norming_L2-eng_oral_translation,001,807,
PACE,Leg,leg,0,67,67,82,0,0,0,0,4,2.475,,,2018_Sep_13_1343,59.6239251807,verb_norming_L2-eng_oral_translation,001,807,
PACE,Arm,arm,0,67,67,82,0,1,1,1,4,0.616,,,2018_Sep_13_1343,59.6239251807,verb_norming_L2-eng_oral_translation,001,807,
PACE,,,0,67,67,82,,,,,,,return,1.02344787149,2018_Sep_13_1343,59.6239251807,verb_norming_L2-eng_oral_translation,001,807,
RUB,Leg,leg,0,68,68,37,0,0,0,0,1,3.18,,,2018_Sep_13_1343,59.6239251807,verb_norming_L2-eng_oral_translation,001,807,
RUB,Arm,arm,0,68,68,37,0,1,1,1,7,11.132,,,2018_Sep_13_1343,59.6239251807,verb_norming_L2-eng_oral_translation,001,807,
RUB,,,0,68,68,37,,,,,,,return,9.15731243599,2018_Sep_13_1343,59.6239251807,verb_norming_L2-eng_oral_translation,001,807,
WRAP,Leg,leg,0,69,69,59,0,0,0,0,1,7.523,,,2018_Sep_13_1343,59.6239251807,verb_norming_L2-eng_oral_translation,001,807,
WRAP,Arm,arm,0,69,69,59,0,1,1,1,7,4.172,,,2018_Sep_13_1343,59.6239251807,verb_norming_L2-eng_oral_translation,001,807,
WRAP,,,0,69,69,59,,,,,,,return,2.65010652017,2018_Sep_13_1343,59.6239251807,verb_norming_L2-eng_oral_translation,001,807,
NIP,Leg,leg,0,70,70,26,0,0,0,0,1,6.836,,,2018_Sep_13_1343,59.6239251807,verb_norming_L2-eng_oral_translation,001,807,
NIP,Arm,arm,0,70,70,26,0,1,1,1,6,2.143,,,2018_Sep_13_1343,59.6239251807,verb_norming_L2-eng_oral_translation,001,807,
NIP,,,0,70,70,26,,,,,,,return,1.24152737916,2018_Sep_13_1343,59.6239251807,verb_norming_L2-eng_oral_translation,001,807,
LIMP,Leg,leg,0,71,71,78,0,0,0,0,6,8.98,,,2018_Sep_13_1343,59.6239251807,verb_norming_L2-eng_oral_translation,001,807,
LIMP,Arm,arm,0,71,71,78,0,1,1,1,1,0.933,,,2018_Sep_13_1343,59.6239251807,verb_norming_L2-eng_oral_translation,001,807,
LIMP,,,0,71,71,78,,,,,,,return,1.84532686205,2018_Sep_13_1343,59.6239251807,verb_norming_L2-eng_oral_translation,001,807,
TOTTER,Leg,leg,0,72,72,114,0,0,0,0,4,1.535,,,2018_Sep_13_1343,59.6239251807,verb_norming_L2-eng_oral_translation,001,807,
TOTTER,Arm,arm,0,72,72,114,0,1,1,1,4,0.515,,,2018_Sep_13_1343,59.6239251807,verb_norming_L2-eng_oral_translation,001,807,
TOTTER,,,0,72,72,114,,,,,,,return,1.19121990884,2018_Sep_13_1343,59.6239251807,verb_norming_L2-eng_oral_translation,001,807,
CLUTCH,Leg,leg,0,73,73,11,0,0,0,0,4,4.705,,,2018_Sep_13_1343,59.6239251807,verb_norming_L2-eng_oral_translation,001,807,
CLUTCH,Arm,arm,0,73,73,11,0,1,1,1,4,0.766,,,2018_Sep_13_1343,59.6239251807,verb_norming_L2-eng_oral_translation,001,807,
CLUTCH,,,0,73,73,11,,,,,,,return,1.37556657985,2018_Sep_13_1343,59.6239251807,verb_norming_L2-eng_oral_translation,001,807,
TRAMP,Leg,leg,0,74,74,116,0,0,0,0,6,3.244,,,2018_Sep_13_1343,59.6239251807,verb_norming_L2-eng_oral_translation,001,807,
TRAMP,Arm,arm,0,74,74,116,0,1,1,1,1,3.717,,,2018_Sep_13_1343,59.6239251807,verb_norming_L2-eng_oral_translation,001,807,
TRAMP,,,0,74,74,116,,,,,,,return,1.10719777667,2018_Sep_13_1343,59.6239251807,verb_norming_L2-eng_oral_translation,001,807,
ROW,Leg,leg,0,75,75,36,0,0,0,0,1,5.075,,,2018_Sep_13_1343,59.6239251807,verb_norming_L2-eng_oral_translation,001,807,
ROW,Arm,arm,0,75,75,36,0,1,1,1,7,2.042,,,2018_Sep_13_1343,59.6239251807,verb_norming_L2-eng_oral_translation,001,807,
ROW,,,0,75,75,36,,,,,,,return,1.45943541148,2018_Sep_13_1343,59.6239251807,verb_norming_L2-eng_oral_translation,001,807,
CREEP,Leg,leg,0,76,76,61,0,0,0,0,6,15.12,,,2018_Sep_13_1343,59.6239251807,verb_norming_L2-eng_oral_translation,001,807,
CREEP,Arm,arm,0,76,76,61,0,1,1,1,2,2.427,,,2018_Sep_13_1343,59.6239251807,verb_norming_L2-eng_oral_translation,001,807,
CREEP,,,0,76,76,61,,,,,,,return,4.17643075241,2018_Sep_13_1343,59.6239251807,verb_norming_L2-eng_oral_translation,001,807,
TRAIPSE,Leg,leg,0,77,77,115,0,0,0,0,7,14.733,,,2018_Sep_13_1343,59.6239251807,verb_norming_L2-eng_oral_translation,001,807,
TRAIPSE,Arm,arm,0,77,77,115,0,1,1,1,2,0.447,,,2018_Sep_13_1343,59.6239251807,verb_norming_L2-eng_oral_translation,001,807,
TRAIPSE,,,0,77,77,115,,,,,,,return,1.39245334606,2018_Sep_13_1343,59.6239251807,verb_norming_L2-eng_oral_translation,001,807,
SEIZE,Leg,leg,0,78,78,42,0,0,0,0,2,33.044,,,2018_Sep_13_1343,59.6239251807,verb_norming_L2-eng_oral_translation,001,807,
SEIZE,Arm,arm,0,78,78,42,0,1,1,1,2,3.616,,,2018_Sep_13_1343,59.6239251807,verb_norming_L2-eng_oral_translation,001,807,
SEIZE,,,0,78,78,42,,,,,,,return,1.32537171431,2018_Sep_13_1343,59.6239251807,verb_norming_L2-eng_oral_translation,001,807,
CROUCH,Leg,leg,0,79,79,62,0,0,0,0,2,9.283,,,2018_Sep_13_1343,59.6239251807,verb_norming_L2-eng_oral_translation,001,807,
CROUCH,Arm,arm,0,79,79,62,0,1,1,1,6,7.223,,,2018_Sep_13_1343,59.6239251807,verb_norming_L2-eng_oral_translation,001,807,
CROUCH,,,0,79,79,62,,,,,,,return,10.8344203975,2018_Sep_13_1343,59.6239251807,verb_norming_L2-eng_oral_translation,001,807,
STRAY,Leg,leg,0,80,80,106,0,0,0,0,5,5.829,,,2018_Sep_13_1343,59.6239251807,verb_norming_L2-eng_oral_translation,001,807,
STRAY,Arm,arm,0,80,80,106,0,1,1,1,2,0.532,,,2018_Sep_13_1343,59.6239251807,verb_norming_L2-eng_oral_translation,001,807,
STRAY,,,0,80,80,106,,,,,,,return,3.10295435437,2018_Sep_13_1343,59.6239251807,verb_norming_L2-eng_oral_translation,001,807,
SIGN,Leg,leg,0,81,81,44,0,0,0,0,1,1.771,,,2018_Sep_13_1343,59.6239251807,verb_norming_L2-eng_oral_translation,001,807,
SIGN,Arm,arm,0,81,81,44,0,1,1,1,7,1.404,,,2018_Sep_13_1343,59.6239251807,verb_norming_L2-eng_oral_translation,001,807,
SIGN,,,0,81,81,44,,,,,,,return,1.42584007118,2018_Sep_13_1343,59.6239251807,verb_norming_L2-eng_oral_translation,001,807,
WIPE,Leg,leg,0,82,82,58,0,0,0,0,1,2.44,,,2018_Sep_13_1343,59.6239251807,verb_norming_L2-eng_oral_translation,001,807,
WIPE,Arm,arm,0,82,82,58,0,1,1,1,7,0.65,,,2018_Sep_13_1343,59.6239251807,verb_norming_L2-eng_oral_translation,001,807,
WIPE,,,0,82,82,58,,,,,,,return,1.67756509742,2018_Sep_13_1343,59.6239251807,verb_norming_L2-eng_oral_translation,001,807,
KICK,Leg,leg,0,83,83,75,0,0,0,0,7,5.41,,,2018_Sep_13_1343,59.6239251807,verb_norming_L2-eng_oral_translation,001,807,
KICK,Arm,arm,0,83,83,75,0,1,1,1,1,1.723,,,2018_Sep_13_1343,59.6239251807,verb_norming_L2-eng_oral_translation,001,807,
KICK,,,0,83,83,75,,,,,,,return,1.29187396483,2018_Sep_13_1343,59.6239251807,verb_norming_L2-eng_oral_translation,001,807,
POLISH,Leg,leg,0,84,84,32,0,0,0,0,1,2.793,,,2018_Sep_13_1343,59.6239251807,verb_norming_L2-eng_oral_translation,001,807,
POLISH,Arm,arm,0,84,84,32,0,1,1,1,7,0.934,,,2018_Sep_13_1343,59.6239251807,verb_norming_L2-eng_oral_translation,001,807,
POLISH,,,0,84,84,32,,,,,,,return,1.39248021317,2018_Sep_13_1343,59.6239251807,verb_norming_L2-eng_oral_translation,001,807,
DIG,Leg,leg,0,85,85,13,0,0,0,0,1,5.779,,,2018_Sep_13_1343,59.6239251807,verb_norming_L2-eng_oral_translation,001,807,
DIG,Arm,arm,0,85,85,13,0,1,1,1,7,0.634,,,2018_Sep_13_1343,59.6239251807,verb_norming_L2-eng_oral_translation,001,807,
DIG,,,0,85,85,13,,,,,,,return,1.56020325756,2018_Sep_13_1343,59.6239251807,verb_norming_L2-eng_oral_translation,001,807,
INCH,Leg,leg,0,86,86,72,0,0,0,0,4,2.341,,,2018_Sep_13_1343,59.6239251807,verb_norming_L2-eng_oral_translation,001,807,
INCH,Arm,arm,0,86,86,72,0,1,1,1,4,0.952,,,2018_Sep_13_1343,59.6239251807,verb_norming_L2-eng_oral_translation,001,807,
INCH,,,0,86,86,72,,,,,,,return,1.37568392588,2018_Sep_13_1343,59.6239251807,verb_norming_L2-eng_oral_translation,001,807,
CHOP,Leg,leg,0,87,87,6,0,0,0,0,1,2.458,,,2018_Sep_13_1343,59.6239251807,verb_norming_L2-eng_oral_translation,001,807,
CHOP,Arm,arm,0,87,87,6,0,1,1,1,7,1.086,,,2018_Sep_13_1343,59.6239251807,verb_norming_L2-eng_oral_translation,001,807,
CHOP,,,0,87,87,6,,,,,,,return,7.83211496277,2018_Sep_13_1343,59.6239251807,verb_norming_L2-eng_oral_translation,001,807,
TREAD,Leg,leg,0,88,88,118,0,0,0,0,4,1.854,,,2018_Sep_13_1343,59.6239251807,verb_norming_L2-eng_oral_translation,001,807,
TREAD,Arm,arm,0,88,88,118,0,1,1,1,4,1.471,,,2018_Sep_13_1343,59.6239251807,verb_norming_L2-eng_oral_translation,001,807,
TREAD,,,0,88,88,118,,,,,,,return,1.25819999874,2018_Sep_13_1343,59.6239251807,verb_norming_L2-eng_oral_translation,001,807,
GRAB,Leg,leg,0,89,89,18,0,0,0,0,1,2.207,,,2018_Sep_13_1343,59.6239251807,verb_norming_L2-eng_oral_translation,001,807,
GRAB,Arm,arm,0,89,89,18,0,1,1,1,7,2.444,,,2018_Sep_13_1343,59.6239251807,verb_norming_L2-eng_oral_translation,001,807,
GRAB,,,0,89,89,18,,,,,,,return,1.69414328702,2018_Sep_13_1343,59.6239251807,verb_norming_L2-eng_oral_translation,001,807,
STEP,Leg,leg,0,90,90,103,0,0,0,0,7,8.898,,,2018_Sep_13_1343,59.6239251807,verb_norming_L2-eng_oral_translation,001,807,
STEP,Arm,arm,0,90,90,103,0,1,1,1,1,2.445,,,2018_Sep_13_1343,59.6239251807,verb_norming_L2-eng_oral_translation,001,807,
STEP,,,0,90,90,103,,,,,,,return,5.08204542437,2018_Sep_13_1343,59.6239251807,verb_norming_L2-eng_oral_translation,001,807,
SLIDE,Leg,leg,0,91,91,94,0,0,0,0,7,3.028,,,2018_Sep_13_1343,59.6239251807,verb_norming_L2-eng_oral_translation,001,807,
SLIDE,Arm,arm,0,91,91,94,0,1,1,1,1,0.7,,,2018_Sep_13_1343,59.6239251807,verb_norming_L2-eng_oral_translation,001,807,
SLIDE,,,0,91,91,94,,,,,,,return,2.88506133602,2018_Sep_13_1343,59.6239251807,verb_norming_L2-eng_oral_translation,001,807,
TRAMPLE,Leg,leg,0,92,92,117,0,0,0,0,4,2.49,,,2018_Sep_13_1343,59.6239251807,verb_norming_L2-eng_oral_translation,001,807,
TRAMPLE,Arm,arm,0,92,92,117,0,1,1,1,4,0.68,,,2018_Sep_13_1343,59.6239251807,verb_norming_L2-eng_oral_translation,001,807,
TRAMPLE,,,0,92,92,117,,,,,,,return,1.34219210297,2018_Sep_13_1343,59.6239251807,verb_norming_L2-eng_oral_translation,001,807,
GLIDE,Leg,leg,0,93,93,67,0,0,0,0,7,2.423,,,2018_Sep_13_1343,59.6239251807,verb_norming_L2-eng_oral_translation,001,807,
GLIDE,Arm,arm,0,93,93,67,0,1,1,1,1,4.389,,,2018_Sep_13_1343,59.6239251807,verb_norming_L2-eng_oral_translation,001,807,
GLIDE,,,0,93,93,67,,,,,,,return,1.4762530344,2018_Sep_13_1343,59.6239251807,verb_norming_L2-eng_oral_translation,001,807,
CATCH,Leg,leg,0,94,94,5,0,0,0,0,1,1.837,,,2018_Sep_13_1343,59.6239251807,verb_norming_L2-eng_oral_translation,001,807,
CATCH,Arm,arm,0,94,94,5,0,1,1,1,7,0.616,,,2018_Sep_13_1343,59.6239251807,verb_norming_L2-eng_oral_translation,001,807,
CATCH,,,0,94,94,5,,,,,,,return,1.49300467488,2018_Sep_13_1343,59.6239251807,verb_norming_L2-eng_oral_translation,001,807,
PLOD,Leg,leg,0,95,95,84,0,0,0,0,4,1.653,,,2018_Sep_13_1343,59.6239251807,verb_norming_L2-eng_oral_translation,001,807,
PLOD,Arm,arm,0,95,95,84,0,1,1,1,4,0.717,,,2018_Sep_13_1343,59.6239251807,verb_norming_L2-eng_oral_translation,001,807,
PLOD,,,0,95,95,84,,,,,,,return,1.4930422098,2018_Sep_13_1343,59.6239251807,verb_norming_L2-eng_oral_translation,001,807,
PLUCK,Leg,leg,0,96,96,30,0,0,0,0,4,1.854,,,2018_Sep_13_1343,59.6239251807,verb_norming_L2-eng_oral_translation,001,807,
PLUCK,Arm,arm,0,96,96,30,0,1,1,1,4,0.515,,,2018_Sep_13_1343,59.6239251807,verb_norming_L2-eng_oral_translation,001,807,
PLUCK,,,0,96,96,30,,,,,,,return,1.35865729268,2018_Sep_13_1343,59.6239251807,verb_norming_L2-eng_oral_translation,001,807,
FLEE,Leg,leg,0,97,97,66,0,0,0,0,6,4.671,,,2018_Sep_13_1343,59.6239251807,verb_norming_L2-eng_oral_translation,001,807,
FLEE,Arm,arm,0,97,97,66,0,1,1,1,1,0.482,,,2018_Sep_13_1343,59.6239251807,verb_norming_L2-eng_oral_translation,001,807,
FLEE,,,0,97,97,66,,,,,,,return,0.872526250743,2018_Sep_13_1343,59.6239251807,verb_norming_L2-eng_oral_translation,001,807,
CLICK,Leg,leg,0,98,98,10,0,0,0,0,1,1.921,,,2018_Sep_13_1343,59.6239251807,verb_norming_L2-eng_oral_translation,001,807,
CLICK,Arm,arm,0,98,98,10,0,1,1,1,7,0.716,,,2018_Sep_13_1343,59.6239251807,verb_norming_L2-eng_oral_translation,001,807,
CLICK,,,0,98,98,10,,,,,,,return,1.6269593232,2018_Sep_13_1343,59.6239251807,verb_norming_L2-eng_oral_translation,001,807,
JOG,Leg,leg,0,99,99,73,0,0,0,0,7,2.576,,,2018_Sep_13_1343,59.6239251807,verb_norming_L2-eng_oral_translation,001,807,
JOG,Arm,arm,0,99,99,73,0,1,1,1,1,2.142,,,2018_Sep_13_1343,59.6239251807,verb_norming_L2-eng_oral_translation,001,807,
JOG,,,0,99,99,73,,,,,,,return,1.10734198981,2018_Sep_13_1343,59.6239251807,verb_norming_L2-eng_oral_translation,001,807,
SQUAT,Leg,leg,0,100,100,99,0,0,0,0,4,3.31,,,2018_Sep_13_1343,59.6239251807,verb_norming_L2-eng_oral_translation,001,807,
SQUAT,Arm,arm,0,100,100,99,0,1,1,1,2,2.994,,,2018_Sep_13_1343,59.6239251807,verb_norming_L2-eng_oral_translation,001,807,
SQUAT,,,0,100,100,99,,,,,,,return,0.872576033909,2018_Sep_13_1343,59.6239251807,verb_norming_L2-eng_oral_translation,001,807,
THROW,Leg,leg,0,101,101,52,0,0,0,0,1,1.804,,,2018_Sep_13_1343,59.6239251807,verb_norming_L2-eng_oral_translation,001,807,
THROW,Arm,arm,0,101,101,52,0,1,1,1,7,1.069,,,2018_Sep_13_1343,59.6239251807,verb_norming_L2-eng_oral_translation,001,807,
THROW,,,0,101,101,52,,,,,,,return,2.33170681982,2018_Sep_13_1343,59.6239251807,verb_norming_L2-eng_oral_translation,001,807,
TODDLE,Leg,leg,0,102,102,113,0,0,0,0,3,7.404,,,2018_Sep_13_1343,59.6239251807,verb_norming_L2-eng_oral_translation,001,807,
TODDLE,Arm,arm,0,102,102,113,0,1,1,1,3,0.968,,,2018_Sep_13_1343,59.6239251807,verb_norming_L2-eng_oral_translation,001,807,
TODDLE,,,0,102,102,113,,,,,,,return,1.02342732606,2018_Sep_13_1343,59.6239251807,verb_norming_L2-eng_oral_translation,001,807,
SKIM,Leg,leg,0,103,103,45,0,0,0,0,4,2.541,,,2018_Sep_13_1343,59.6239251807,verb_norming_L2-eng_oral_translation,001,807,
SKIM,Arm,arm,0,103,103,45,0,1,1,1,4,0.682,,,2018_Sep_13_1343,59.6239251807,verb_norming_L2-eng_oral_translation,001,807,
SKIM,,,0,103,103,45,,,,,,,return,1.19113180054,2018_Sep_13_1343,59.6239251807,verb_norming_L2-eng_oral_translation,001,807,
LIFT,Leg,leg,0,104,104,25,0,0,0,0,1,2.29,,,2018_Sep_13_1343,59.6239251807,verb_norming_L2-eng_oral_translation,001,807,
LIFT,Arm,arm,0,104,104,25,0,1,1,1,7,0.65,,,2018_Sep_13_1343,59.6239251807,verb_norming_L2-eng_oral_translation,001,807,
LIFT,,,0,104,104,25,,,,,,,return,1.10719817177,2018_Sep_13_1343,59.6239251807,verb_norming_L2-eng_oral_translation,001,807,
PULL,Leg,leg,0,105,105,33,0,0,0,0,1,2.458,,,2018_Sep_13_1343,59.6239251807,verb_norming_L2-eng_oral_translation,001,807,
PULL,Arm,arm,0,105,105,33,0,1,1,1,7,0.801,,,2018_Sep_13_1343,59.6239251807,verb_norming_L2-eng_oral_translation,001,807,
PULL,,,0,105,105,33,,,,,,,return,1.05538298269,2018_Sep_13_1343,59.6239251807,verb_norming_L2-eng_oral_translation,001,807,
PINCH,Leg,leg,0,106,106,29,0,0,0,0,1,6.868,,,2018_Sep_13_1343,59.6239251807,verb_norming_L2-eng_oral_translation,001,807,
PINCH,Arm,arm,0,106,106,29,0,1,1,1,7,1.034,,,2018_Sep_13_1343,59.6239251807,verb_norming_L2-eng_oral_translation,001,807,
PINCH,,,0,106,106,29,,,,,,,return,0.838773658857,2018_Sep_13_1343,59.6239251807,verb_norming_L2-eng_oral_translation,001,807,
STAND,Leg,leg,0,107,107,102,0,0,0,0,7,3.439,,,2018_Sep_13_1343,59.6239251807,verb_norming_L2-eng_oral_translation,001,807,
STAND,Arm,arm,0,107,107,102,0,1,1,1,1,0.717,,,2018_Sep_13_1343,59.6239251807,verb_norming_L2-eng_oral_translation,001,807,
STAND,,,0,107,107,102,,,,,,,return,1.39243161531,2018_Sep_13_1343,59.6239251807,verb_norming_L2-eng_oral_translation,001,807,
RUSH,Leg,leg,0,108,108,89,0,0,0,0,6,4.353,,,2018_Sep_13_1343,59.6239251807,verb_norming_L2-eng_oral_translation,001,807,
RUSH,Arm,arm,0,108,108,89,0,1,1,1,1,0.75,,,2018_Sep_13_1343,59.6239251807,verb_norming_L2-eng_oral_translation,001,807,
RUSH,,,0,108,108,89,,,,,,,return,1.91219948352,2018_Sep_13_1343,59.6239251807,verb_norming_L2-eng_oral_translation,001,807,
SQUEEZE,Leg,leg,0,109,109,48,0,0,0,0,2,9.714,,,2018_Sep_13_1343,59.6239251807,verb_norming_L2-eng_oral_translation,001,807,
SQUEEZE,Arm,arm,0,109,109,48,0,1,1,1,7,1.132,,,2018_Sep_13_1343,59.6239251807,verb_norming_L2-eng_oral_translation,001,807,
SQUEEZE,,,0,109,109,48,,,,,,,return,1.45936903392,2018_Sep_13_1343,59.6239251807,verb_norming_L2-eng_oral_translation,001,807,
MARCH,Leg,leg,0,110,110,80,0,0,0,0,7,2.34,,,2018_Sep_13_1343,59.6239251807,verb_norming_L2-eng_oral_translation,001,807,
MARCH,Arm,arm,0,110,110,80,0,1,1,1,2,1.0,,,2018_Sep_13_1343,59.6239251807,verb_norming_L2-eng_oral_translation,001,807,
MARCH,,,0,110,110,80,,,,,,,return,1.59366742316,2018_Sep_13_1343,59.6239251807,verb_norming_L2-eng_oral_translation,001,807,
STRADDLE,Leg,leg,0,111,111,105,0,0,0,0,4,2.591,,,2018_Sep_13_1343,59.6239251807,verb_norming_L2-eng_oral_translation,001,807,
STRADDLE,Arm,arm,0,111,111,105,0,1,1,1,4,0.614,,,2018_Sep_13_1343,59.6239251807,verb_norming_L2-eng_oral_translation,001,807,
STRADDLE,,,0,111,111,105,,,,,,,return,1.27504606919,2018_Sep_13_1343,59.6239251807,verb_norming_L2-eng_oral_translation,001,807,
STIR,Leg,leg,0,112,112,50,0,0,0,0,1,4.99,,,2018_Sep_13_1343,59.6239251807,verb_norming_L2-eng_oral_translation,001,807,
STIR,Arm,arm,0,112,112,50,0,1,1,1,7,1.79,,,2018_Sep_13_1343,59.6239251807,verb_norming_L2-eng_oral_translation,001,807,
STIR,,,0,112,112,50,,,,,,,return,1.61046252513,2018_Sep_13_1343,59.6239251807,verb_norming_L2-eng_oral_translation,001,807,
DANCE,Leg,leg,0,113,113,64,0,0,0,0,7,2.844,,,2018_Sep_13_1343,59.6239251807,verb_norming_L2-eng_oral_translation,001,807,
DANCE,Arm,arm,0,113,113,64,0,1,1,1,7,0.917,,,2018_Sep_13_1343,59.6239251807,verb_norming_L2-eng_oral_translation,001,807,
DANCE,,,0,113,113,64,,,,,,,return,1.35888842881,2018_Sep_13_1343,59.6239251807,verb_norming_L2-eng_oral_translation,001,807,
PEEL,Leg,leg,0,114,114,28,0,0,0,0,1,2.794,,,2018_Sep_13_1343,59.6239251807,verb_norming_L2-eng_oral_translation,001,807,
PEEL,Arm,arm,0,114,114,28,0,1,1,1,7,0.633,,,2018_Sep_13_1343,59.6239251807,verb_norming_L2-eng_oral_translation,001,807,
PEEL,,,0,114,114,28,,,,,,,return,1.29165428673,2018_Sep_13_1343,59.6239251807,verb_norming_L2-eng_oral_translation,001,807,
BRUSH,Leg,leg,0,115,115,3,0,0,0,0,1,2.457,,,2018_Sep_13_1343,59.6239251807,verb_norming_L2-eng_oral_translation,001,807,
BRUSH,Arm,arm,0,115,115,3,0,1,1,1,7,3.266,,,2018_Sep_13_1343,59.6239251807,verb_norming_L2-eng_oral_translation,001,807,
BRUSH,,,0,115,115,3,,,,,,,return,1.2078826508,2018_Sep_13_1343,59.6239251807,verb_norming_L2-eng_oral_translation,001,807,
STRIDE,Leg,leg,0,116,116,107,0,0,0,0,2,4.637,,,2018_Sep_13_1343,59.6239251807,verb_norming_L2-eng_oral_translation,001,807,
STRIDE,Arm,arm,0,116,116,107,0,1,1,1,6,2.158,,,2018_Sep_13_1343,59.6239251807,verb_norming_L2-eng_oral_translation,001,807,
STRIDE,,,0,116,116,107,,,,,,,return,0.989782597701,2018_Sep_13_1343,59.6239251807,verb_norming_L2-eng_oral_translation,001,807,
BASH,Leg,leg,0,117,117,0,0,0,0,0,4,1.536,,,2018_Sep_13_1343,59.6239251807,verb_norming_L2-eng_oral_translation,001,807,
BASH,Arm,arm,0,117,117,0,0,1,1,1,4,0.499,,,2018_Sep_13_1343,59.6239251807,verb_norming_L2-eng_oral_translation,001,807,
BASH,,,0,117,117,0,,,,,,,return,1.00667173454,2018_Sep_13_1343,59.6239251807,verb_norming_L2-eng_oral_translation,001,807,
TRIP,Leg,leg,0,118,118,120,0,0,0,0,7,14.598,,,2018_Sep_13_1343,59.6239251807,verb_norming_L2-eng_oral_translation,001,807,
TRIP,Arm,arm,0,118,118,120,0,1,1,1,1,0.684,,,2018_Sep_13_1343,59.6239251807,verb_norming_L2-eng_oral_translation,001,807,
TRIP,,,0,118,118,120,,,,,,,return,0.905902703147,2018_Sep_13_1343,59.6239251807,verb_norming_L2-eng_oral_translation,001,807,
MOUNT,Leg,leg,0,119,119,81,0,0,0,0,4,5.778,,,2018_Sep_13_1343,59.6239251807,verb_norming_L2-eng_oral_translation,001,807,
MOUNT,Arm,arm,0,119,119,81,0,1,1,1,4,0.496,,,2018_Sep_13_1343,59.6239251807,verb_norming_L2-eng_oral_translation,001,807,
MOUNT,,,0,119,119,81,,,,,,,return,1.04021887209,2018_Sep_13_1343,59.6239251807,verb_norming_L2-eng_oral_translation,001,807,
STAB,Leg,leg,0,120,120,49,0,0,0,0,1,2.827,,,2018_Sep_13_1343,59.6239251807,verb_norming_L2-eng_oral_translation,001,807,
STAB,Arm,arm,0,120,120,49,0,1,1,1,7,2.159,,,2018_Sep_13_1343,59.6239251807,verb_norming_L2-eng_oral_translation,001,807,
STAB,,,0,120,120,49,,,,,,,return,3.84096016714,2018_Sep_13_1343,59.6239251807,verb_norming_L2-eng_oral_translation,001,807,
HUG,Leg,leg,0,121,121,23,0,0,0,0,1,2.09,,,2018_Sep_13_1343,59.6239251807,verb_norming_L2-eng_oral_translation,001,807,
HUG,Arm,arm,0,121,121,23,0,1,1,1,7,0.684,,,2018_Sep_13_1343,59.6239251807,verb_norming_L2-eng_oral_translation,001,807,
HUG,,,0,121,121,23,,,,,,,return,1.30859478715,2018_Sep_13_1343,59.6239251807,verb_norming_L2-eng_oral_translation,001,807,
CARVE,Leg,leg,0,122,122,4,0,0,0,0,1,2.542,,,2018_Sep_13_1343,59.6239251807,verb_norming_L2-eng_oral_translation,001,807,
CARVE,Arm,arm,0,122,122,4,0,1,1,1,7,0.499,,,2018_Sep_13_1343,59.6239251807,verb_norming_L2-eng_oral_translation,001,807,
CARVE,,,0,122,122,4,,,,,,,return,7.44672727043,2018_Sep_13_1343,59.6239251807,verb_norming_L2-eng_oral_translation,001,807,
CLAW,Leg,leg,0,123,123,8,0,0,0,0,4,3.045,,,2018_Sep_13_1343,59.6239251807,verb_norming_L2-eng_oral_translation,001,807,
CLAW,Arm,arm,0,123,123,8,0,1,1,1,4,0.667,,,2018_Sep_13_1343,59.6239251807,verb_norming_L2-eng_oral_translation,001,807,
CLAW,,,0,123,123,8,,,,,,,return,0.788677964549,2018_Sep_13_1343,59.6239251807,verb_norming_L2-eng_oral_translation,001,807,
TROT,Leg,leg,0,124,124,121,0,0,0,0,4,1.721,,,2018_Sep_13_1343,59.6239251807,verb_norming_L2-eng_oral_translation,001,807,
TROT,Arm,arm,0,124,124,121,0,1,1,1,4,0.465,,,2018_Sep_13_1343,59.6239251807,verb_norming_L2-eng_oral_translation,001,807,
TROT,,,0,124,124,121,,,,,,,return,1.42595544169,2018_Sep_13_1343,59.6239251807,verb_norming_L2-eng_oral_translation,001,807,
LEAP,Leg,leg,0,125,125,77,0,0,0,0,7,5.108,,,2018_Sep_13_1343,59.6239251807,verb_norming_L2-eng_oral_translation,001,807,
LEAP,Arm,arm,0,125,125,77,0,1,1,1,2,1.455,,,2018_Sep_13_1343,59.6239251807,verb_norming_L2-eng_oral_translation,001,807,
LEAP,,,0,125,125,77,,,,,,,return,1.54302134829,2018_Sep_13_1343,59.6239251807,verb_norming_L2-eng_oral_translation,001,807,
PAT,Leg,leg,0,126,126,27,0,0,0,0,1,3.046,,,2018_Sep_13_1343,59.6239251807,verb_norming_L2-eng_oral_translation,001,807,
PAT,Arm,arm,0,126,126,27,0,1,1,1,7,0.416,,,2018_Sep_13_1343,59.6239251807,verb_norming_L2-eng_oral_translation,001,807,
PAT,,,0,126,126,27,,,,,,,return,1.15748786239,2018_Sep_13_1343,59.6239251807,verb_norming_L2-eng_oral_translation,001,807,
SLAP,Leg,leg,0,127,127,46,0,0,0,0,1,2.861,,,2018_Sep_13_1343,59.6239251807,verb_norming_L2-eng_oral_translation,001,807,
SLAP,Arm,arm,0,127,127,46,0,1,1,1,7,6.065,,,2018_Sep_13_1343,59.6239251807,verb_norming_L2-eng_oral_translation,001,807,
SLAP,,,0,127,127,46,,,,,,,return,1.42582308169,2018_Sep_13_1343,59.6239251807,verb_norming_L2-eng_oral_translation,001,807,
