word,category,category_lowercase,trials.thisRepN,trials.thisTrialN,trials.thisN,trials.thisIndex,armleg_loop.thisRepN,armleg_loop.thisTrialN,armleg_loop.thisN,armleg_loop.thisIndex,rating.response,rating.rt,key_resp_8.keys,key_resp_8.rt,date,frameRate,expName,session,participant,
SIGNERA,Ben/fötter,ben/fötter,0,0,0,68,0,0,0,0,1,25.506,,,2018_Sep_13_1321,59.6201329982,verb_norming_L1-swe_no_translation,001,807,
SIGNERA,Armar/händer,armar/händer,0,0,0,68,0,1,1,1,7,8.252,,,2018_Sep_13_1321,59.6201329982,verb_norming_L1-swe_no_translation,001,807,
SIGNERA,,,0,0,0,68,,,,,,,,,2018_Sep_13_1321,59.6201329982,verb_norming_L1-swe_no_translation,001,807,
SVASSA,Ben/fötter,ben/fötter,0,1,1,157,0,0,0,0,5,7.85,,,2018_Sep_13_1321,59.6201329982,verb_norming_L1-swe_no_translation,001,807,
SVASSA,Armar/händer,armar/händer,0,1,1,157,0,1,1,1,1,2.551,,,2018_Sep_13_1321,59.6201329982,verb_norming_L1-swe_no_translation,001,807,
SVASSA,,,0,1,1,157,,,,,,,,,2018_Sep_13_1321,59.6201329982,verb_norming_L1-swe_no_translation,001,807,
TVÄTTA,Ben/fötter,ben/fötter,0,2,2,96,0,0,0,0,1,6.525,,,2018_Sep_13_1321,59.6201329982,verb_norming_L1-swe_no_translation,001,807,
TVÄTTA,Armar/händer,armar/händer,0,2,2,96,0,1,1,1,6,7.918,,,2018_Sep_13_1321,59.6201329982,verb_norming_L1-swe_no_translation,001,807,
TVÄTTA,,,0,2,2,96,,,,,,,,,2018_Sep_13_1321,59.6201329982,verb_norming_L1-swe_no_translation,001,807,
VIKA,Ben/fötter,ben/fötter,0,3,3,98,0,0,0,0,1,3.675,,,2018_Sep_13_1321,59.6201329982,verb_norming_L1-swe_no_translation,001,807,
VIKA,Armar/händer,armar/händer,0,3,3,98,0,1,1,1,7,2.25,,,2018_Sep_13_1321,59.6201329982,verb_norming_L1-swe_no_translation,001,807,
VIKA,,,0,3,3,98,,,,,,,,,2018_Sep_13_1321,59.6201329982,verb_norming_L1-swe_no_translation,001,807,
RAKA,Ben/fötter,ben/fötter,0,4,4,59,0,0,0,0,4,10.686,,,2018_Sep_13_1321,59.6201329982,verb_norming_L1-swe_no_translation,001,807,
RAKA,Armar/händer,armar/händer,0,4,4,59,0,1,1,1,6,3.491,,,2018_Sep_13_1321,59.6201329982,verb_norming_L1-swe_no_translation,001,807,
RAKA,,,0,4,4,59,,,,,,,,,2018_Sep_13_1321,59.6201329982,verb_norming_L1-swe_no_translation,001,807,
HÖJA,Ben/fötter,ben/fötter,0,5,5,25,0,0,0,0,1,3.152,,,2018_Sep_13_1321,59.6201329982,verb_norming_L1-swe_no_translation,001,807,
HÖJA,Armar/händer,armar/händer,0,5,5,25,0,1,1,1,7,5.051,,,2018_Sep_13_1321,59.6201329982,verb_norming_L1-swe_no_translation,001,807,
HÖJA,,,0,5,5,25,,,,,,,,,2018_Sep_13_1321,59.6201329982,verb_norming_L1-swe_no_translation,001,807,
TRYCKA,Ben/fötter,ben/fötter,0,6,6,95,0,0,0,0,3,4.258,,,2018_Sep_13_1321,59.6201329982,verb_norming_L1-swe_no_translation,001,807,
TRYCKA,Armar/händer,armar/händer,0,6,6,95,0,1,1,1,6,3.96,,,2018_Sep_13_1321,59.6201329982,verb_norming_L1-swe_no_translation,001,807,
TRYCKA,,,0,6,6,95,,,,,,,,,2018_Sep_13_1321,59.6201329982,verb_norming_L1-swe_no_translation,001,807,
FLÄTA,Ben/fötter,ben/fötter,0,7,7,11,0,0,0,0,1,2.496,,,2018_Sep_13_1321,59.6201329982,verb_norming_L1-swe_no_translation,001,807,
FLÄTA,Armar/händer,armar/händer,0,7,7,11,0,1,1,1,7,2.801,,,2018_Sep_13_1321,59.6201329982,verb_norming_L1-swe_no_translation,001,807,
FLÄTA,,,0,7,7,11,,,,,,,,,2018_Sep_13_1321,59.6201329982,verb_norming_L1-swe_no_translation,001,807,
KNOGA,Ben/fötter,ben/fötter,0,8,8,121,0,0,0,0,1,5.369,,,2018_Sep_13_1321,59.6201329982,verb_norming_L1-swe_no_translation,001,807,
KNOGA,Armar/händer,armar/händer,0,8,8,121,0,1,1,1,5,6.408,,,2018_Sep_13_1321,59.6201329982,verb_norming_L1-swe_no_translation,001,807,
KNOGA,,,0,8,8,121,,,,,,,,,2018_Sep_13_1321,59.6201329982,verb_norming_L1-swe_no_translation,001,807,
PRESSA,Ben/fötter,ben/fötter,0,9,9,55,0,0,0,0,1,5.402,,,2018_Sep_13_1321,59.6201329982,verb_norming_L1-swe_no_translation,001,807,
PRESSA,Armar/händer,armar/händer,0,9,9,55,0,1,1,1,7,5.083,,,2018_Sep_13_1321,59.6201329982,verb_norming_L1-swe_no_translation,001,807,
PRESSA,,,0,9,9,55,,,,,,,,,2018_Sep_13_1321,59.6201329982,verb_norming_L1-swe_no_translation,001,807,
SNO,Ben/fötter,ben/fötter,0,10,10,87,0,0,0,0,1,7.298,,,2018_Sep_13_1321,59.6201329982,verb_norming_L1-swe_no_translation,001,807,
SNO,Armar/händer,armar/händer,0,10,10,87,0,1,1,1,2,1.478,,,2018_Sep_13_1321,59.6201329982,verb_norming_L1-swe_no_translation,001,807,
SNO,,,0,10,10,87,,,,,,,,,2018_Sep_13_1321,59.6201329982,verb_norming_L1-swe_no_translation,001,807,
KILA,Ben/fötter,ben/fötter,0,11,11,115,0,0,0,0,6,5.786,,,2018_Sep_13_1321,59.6201329982,verb_norming_L1-swe_no_translation,001,807,
KILA,Armar/händer,armar/händer,0,11,11,115,0,1,1,1,1,2.097,,,2018_Sep_13_1321,59.6201329982,verb_norming_L1-swe_no_translation,001,807,
KILA,,,0,11,11,115,,,,,,,,,2018_Sep_13_1321,59.6201329982,verb_norming_L1-swe_no_translation,001,807,
TORKA,Ben/fötter,ben/fötter,0,12,12,93,0,0,0,0,1,7.481,,,2018_Sep_13_1321,59.6201329982,verb_norming_L1-swe_no_translation,001,807,
TORKA,Armar/händer,armar/händer,0,12,12,93,0,1,1,1,7,1.344,,,2018_Sep_13_1321,59.6201329982,verb_norming_L1-swe_no_translation,001,807,
TORKA,,,0,12,12,93,,,,,,,,,2018_Sep_13_1321,59.6201329982,verb_norming_L1-swe_no_translation,001,807,
ILA,Ben/fötter,ben/fötter,0,13,13,112,0,0,0,0,1,2.969,,,2018_Sep_13_1321,59.6201329982,verb_norming_L1-swe_no_translation,001,807,
ILA,Armar/händer,armar/händer,0,13,13,112,0,1,1,1,1,0.823,,,2018_Sep_13_1321,59.6201329982,verb_norming_L1-swe_no_translation,001,807,
ILA,,,0,13,13,112,,,,,,,,,2018_Sep_13_1321,59.6201329982,verb_norming_L1-swe_no_translation,001,807,
STAPPLA,Ben/fötter,ben/fötter,0,14,14,149,0,0,0,0,7,5.248,,,2018_Sep_13_1321,59.6201329982,verb_norming_L1-swe_no_translation,001,807,
STAPPLA,Armar/händer,armar/händer,0,14,14,149,0,1,1,1,1,1.106,,,2018_Sep_13_1321,59.6201329982,verb_norming_L1-swe_no_translation,001,807,
STAPPLA,,,0,14,14,149,,,,,,,,,2018_Sep_13_1321,59.6201329982,verb_norming_L1-swe_no_translation,001,807,
SKRIDA,Ben/fötter,ben/fötter,0,15,15,136,0,0,0,0,7,4.864,,,2018_Sep_13_1321,59.6201329982,verb_norming_L1-swe_no_translation,001,807,
SKRIDA,Armar/händer,armar/händer,0,15,15,136,0,1,1,1,1,1.125,,,2018_Sep_13_1321,59.6201329982,verb_norming_L1-swe_no_translation,001,807,
SKRIDA,,,0,15,15,136,,,,,,,,,2018_Sep_13_1321,59.6201329982,verb_norming_L1-swe_no_translation,001,807,
KNÄA,Ben/fötter,ben/fötter,0,16,16,118,0,0,0,0,7,6.006,,,2018_Sep_13_1321,59.6201329982,verb_norming_L1-swe_no_translation,001,807,
KNÄA,Armar/händer,armar/händer,0,16,16,118,0,1,1,1,1,1.227,,,2018_Sep_13_1321,59.6201329982,verb_norming_L1-swe_no_translation,001,807,
KNÄA,,,0,16,16,118,,,,,,,,,2018_Sep_13_1321,59.6201329982,verb_norming_L1-swe_no_translation,001,807,
KOPPLA,Ben/fötter,ben/fötter,0,17,17,40,0,0,0,0,1,6.272,,,2018_Sep_13_1321,59.6201329982,verb_norming_L1-swe_no_translation,001,807,
KOPPLA,Armar/händer,armar/händer,0,17,17,40,0,1,1,1,1,0.705,,,2018_Sep_13_1321,59.6201329982,verb_norming_L1-swe_no_translation,001,807,
KOPPLA,,,0,17,17,40,,,,,,,,,2018_Sep_13_1321,59.6201329982,verb_norming_L1-swe_no_translation,001,807,
GRIPA,Ben/fötter,ben/fötter,0,18,18,19,0,0,0,0,1,2.584,,,2018_Sep_13_1321,59.6201329982,verb_norming_L1-swe_no_translation,001,807,
GRIPA,Armar/händer,armar/händer,0,18,18,19,0,1,1,1,5,2.166,,,2018_Sep_13_1321,59.6201329982,verb_norming_L1-swe_no_translation,001,807,
GRIPA,,,0,18,18,19,,,,,,,,,2018_Sep_13_1321,59.6201329982,verb_norming_L1-swe_no_translation,001,807,
SNAVA,Ben/fötter,ben/fötter,0,19,19,142,0,0,0,0,7,2.734,,,2018_Sep_13_1321,59.6201329982,verb_norming_L1-swe_no_translation,001,807,
SNAVA,Armar/händer,armar/händer,0,19,19,142,0,1,1,1,1,1.277,,,2018_Sep_13_1321,59.6201329982,verb_norming_L1-swe_no_translation,001,807,
SNAVA,,,0,19,19,142,,,,,,,,,2018_Sep_13_1321,59.6201329982,verb_norming_L1-swe_no_translation,001,807,
PILLA,Ben/fötter,ben/fötter,0,20,20,51,0,0,0,0,1,1.744,,,2018_Sep_13_1321,59.6201329982,verb_norming_L1-swe_no_translation,001,807,
PILLA,Armar/händer,armar/händer,0,20,20,51,0,1,1,1,7,0.755,,,2018_Sep_13_1321,59.6201329982,verb_norming_L1-swe_no_translation,001,807,
PILLA,,,0,20,20,51,,,,,,,,,2018_Sep_13_1321,59.6201329982,verb_norming_L1-swe_no_translation,001,807,
KLÅ,Ben/fötter,ben/fötter,0,21,21,29,0,0,0,0,1,5.215,,,2018_Sep_13_1321,59.6201329982,verb_norming_L1-swe_no_translation,001,807,
KLÅ,Armar/händer,armar/händer,0,21,21,29,0,1,1,1,7,9.132,,,2018_Sep_13_1321,59.6201329982,verb_norming_L1-swe_no_translation,001,807,
KLÅ,,,0,21,21,29,,,,,,,,,2018_Sep_13_1321,59.6201329982,verb_norming_L1-swe_no_translation,001,807,
SMEKA,Ben/fötter,ben/fötter,0,22,22,85,0,0,0,0,2,4.912,,,2018_Sep_13_1321,59.6201329982,verb_norming_L1-swe_no_translation,001,807,
SMEKA,Armar/händer,armar/händer,0,22,22,85,0,1,1,1,7,1.912,,,2018_Sep_13_1321,59.6201329982,verb_norming_L1-swe_no_translation,001,807,
SMEKA,,,0,22,22,85,,,,,,,,,2018_Sep_13_1321,59.6201329982,verb_norming_L1-swe_no_translation,001,807,
RUSA,Ben/fötter,ben/fötter,0,23,23,134,0,0,0,0,7,2.363,,,2018_Sep_13_1321,59.6201329982,verb_norming_L1-swe_no_translation,001,807,
RUSA,Armar/händer,armar/händer,0,23,23,134,0,1,1,1,1,1.661,,,2018_Sep_13_1321,59.6201329982,verb_norming_L1-swe_no_translation,001,807,
RUSA,,,0,23,23,134,,,,,,,,,2018_Sep_13_1321,59.6201329982,verb_norming_L1-swe_no_translation,001,807,
STRÖVA,Ben/fötter,ben/fötter,0,24,24,153,0,0,0,0,7,3.137,,,2018_Sep_13_1321,59.6201329982,verb_norming_L1-swe_no_translation,001,807,
STRÖVA,Armar/händer,armar/händer,0,24,24,153,0,1,1,1,1,0.723,,,2018_Sep_13_1321,59.6201329982,verb_norming_L1-swe_no_translation,001,807,
STRÖVA,,,0,24,24,153,,,,,,,,,2018_Sep_13_1321,59.6201329982,verb_norming_L1-swe_no_translation,001,807,
PUTSA,Ben/fötter,ben/fötter,0,25,25,56,0,0,0,0,1,2.179,,,2018_Sep_13_1321,59.6201329982,verb_norming_L1-swe_no_translation,001,807,
PUTSA,Armar/händer,armar/händer,0,25,25,56,0,1,1,1,7,0.671,,,2018_Sep_13_1321,59.6201329982,verb_norming_L1-swe_no_translation,001,807,
PUTSA,,,0,25,25,56,,,,,,,,,2018_Sep_13_1321,59.6201329982,verb_norming_L1-swe_no_translation,001,807,
PLOCKA,Ben/fötter,ben/fötter,0,26,26,53,0,0,0,0,1,3.354,,,2018_Sep_13_1321,59.6201329982,verb_norming_L1-swe_no_translation,001,807,
PLOCKA,Armar/händer,armar/händer,0,26,26,53,0,1,1,1,7,0.704,,,2018_Sep_13_1321,59.6201329982,verb_norming_L1-swe_no_translation,001,807,
PLOCKA,,,0,26,26,53,,,,,,,,,2018_Sep_13_1321,59.6201329982,verb_norming_L1-swe_no_translation,001,807,
SPRINTA,Ben/fötter,ben/fötter,0,27,27,146,0,0,0,0,7,2.214,,,2018_Sep_13_1321,59.6201329982,verb_norming_L1-swe_no_translation,001,807,
SPRINTA,Armar/händer,armar/händer,0,27,27,146,0,1,1,1,1,0.873,,,2018_Sep_13_1321,59.6201329982,verb_norming_L1-swe_no_translation,001,807,
SPRINTA,,,0,27,27,146,,,,,,,,,2018_Sep_13_1321,59.6201329982,verb_norming_L1-swe_no_translation,001,807,
KRYPA,Ben/fötter,ben/fötter,0,28,28,123,0,0,0,0,7,9.611,,,2018_Sep_13_1321,59.6201329982,verb_norming_L1-swe_no_translation,001,807,
KRYPA,Armar/händer,armar/händer,0,28,28,123,0,1,1,1,6,1.478,,,2018_Sep_13_1321,59.6201329982,verb_norming_L1-swe_no_translation,001,807,
KRYPA,,,0,28,28,123,,,,,,,,,2018_Sep_13_1321,59.6201329982,verb_norming_L1-swe_no_translation,001,807,
BINDA,Ben/fötter,ben/fötter,0,29,29,2,0,0,0,0,1,3.22,,,2018_Sep_13_1321,59.6201329982,verb_norming_L1-swe_no_translation,001,807,
BINDA,Armar/händer,armar/händer,0,29,29,2,0,1,1,1,7,1.83,,,2018_Sep_13_1321,59.6201329982,verb_norming_L1-swe_no_translation,001,807,
BINDA,,,0,29,29,2,,,,,,,,,2018_Sep_13_1321,59.6201329982,verb_norming_L1-swe_no_translation,001,807,
STÖVLA,Ben/fötter,ben/fötter,0,30,30,152,0,0,0,0,5,7.881,,,2018_Sep_13_1321,59.6201329982,verb_norming_L1-swe_no_translation,001,807,
STÖVLA,Armar/händer,armar/händer,0,30,30,152,0,1,1,1,1,1.158,,,2018_Sep_13_1321,59.6201329982,verb_norming_L1-swe_no_translation,001,807,
STÖVLA,,,0,30,30,152,,,,,,,,,2018_Sep_13_1321,59.6201329982,verb_norming_L1-swe_no_translation,001,807,
KRAMA,Ben/fötter,ben/fötter,0,31,31,41,0,0,0,0,1,2.582,,,2018_Sep_13_1321,59.6201329982,verb_norming_L1-swe_no_translation,001,807,
KRAMA,Armar/händer,armar/händer,0,31,31,41,0,1,1,1,7,1.392,,,2018_Sep_13_1321,59.6201329982,verb_norming_L1-swe_no_translation,001,807,
KRAMA,,,0,31,31,41,,,,,,,,,2018_Sep_13_1321,59.6201329982,verb_norming_L1-swe_no_translation,001,807,
VANDRA,Ben/fötter,ben/fötter,0,32,32,166,0,0,0,0,7,2.718,,,2018_Sep_13_1321,59.6201329982,verb_norming_L1-swe_no_translation,001,807,
VANDRA,Armar/händer,armar/händer,0,32,32,166,0,1,1,1,1,2.048,,,2018_Sep_13_1321,59.6201329982,verb_norming_L1-swe_no_translation,001,807,
VANDRA,,,0,32,32,166,,,,,,,,,2018_Sep_13_1321,59.6201329982,verb_norming_L1-swe_no_translation,001,807,
GESTIKULERA,Ben/fötter,ben/fötter,0,33,33,13,0,0,0,0,1,2.932,,,2018_Sep_13_1321,59.6201329982,verb_norming_L1-swe_no_translation,001,807,
GESTIKULERA,Armar/händer,armar/händer,0,33,33,13,0,1,1,1,6,2.547,,,2018_Sep_13_1321,59.6201329982,verb_norming_L1-swe_no_translation,001,807,
GESTIKULERA,,,0,33,33,13,,,,,,,,,2018_Sep_13_1321,59.6201329982,verb_norming_L1-swe_no_translation,001,807,
KELA,Ben/fötter,ben/fötter,0,34,34,28,0,0,0,0,1,9.157,,,2018_Sep_13_1321,59.6201329982,verb_norming_L1-swe_no_translation,001,807,
KELA,Armar/händer,armar/händer,0,34,34,28,0,1,1,1,3,5.4,,,2018_Sep_13_1321,59.6201329982,verb_norming_L1-swe_no_translation,001,807,
KELA,,,0,34,34,28,,,,,,,,,2018_Sep_13_1321,59.6201329982,verb_norming_L1-swe_no_translation,001,807,
KNATA,Ben/fötter,ben/fötter,0,35,35,120,0,0,0,0,7,1.813,,,2018_Sep_13_1321,59.6201329982,verb_norming_L1-swe_no_translation,001,807,
KNATA,Armar/händer,armar/händer,0,35,35,120,0,1,1,1,1,1.495,,,2018_Sep_13_1321,59.6201329982,verb_norming_L1-swe_no_translation,001,807,
KNATA,,,0,35,35,120,,,,,,,,,2018_Sep_13_1321,59.6201329982,verb_norming_L1-swe_no_translation,001,807,
RULTA,Ben/fötter,ben/fötter,0,36,36,133,0,0,0,0,1,4.695,,,2018_Sep_13_1321,59.6201329982,verb_norming_L1-swe_no_translation,001,807,
RULTA,Armar/händer,armar/händer,0,36,36,133,0,1,1,1,1,0.654,,,2018_Sep_13_1321,59.6201329982,verb_norming_L1-swe_no_translation,001,807,
RULTA,,,0,36,36,133,,,,,,,,,2018_Sep_13_1321,59.6201329982,verb_norming_L1-swe_no_translation,001,807,
SKYFFLA,Ben/fötter,ben/fötter,0,37,37,78,0,0,0,0,1,2.766,,,2018_Sep_13_1321,59.6201329982,verb_norming_L1-swe_no_translation,001,807,
SKYFFLA,Armar/händer,armar/händer,0,37,37,78,0,1,1,1,6,0.855,,,2018_Sep_13_1321,59.6201329982,verb_norming_L1-swe_no_translation,001,807,
SKYFFLA,,,0,37,37,78,,,,,,,,,2018_Sep_13_1321,59.6201329982,verb_norming_L1-swe_no_translation,001,807,
ÖSA,Ben/fötter,ben/fötter,0,38,38,48,0,0,0,0,1,1.914,,,2018_Sep_13_1321,59.6201329982,verb_norming_L1-swe_no_translation,001,807,
ÖSA,Armar/händer,armar/händer,0,38,38,48,0,1,1,1,7,5.336,,,2018_Sep_13_1321,59.6201329982,verb_norming_L1-swe_no_translation,001,807,
ÖSA,,,0,38,38,48,,,,,,,,,2018_Sep_13_1321,59.6201329982,verb_norming_L1-swe_no_translation,001,807,
HÅVA,Ben/fötter,ben/fötter,0,39,39,22,0,0,0,0,1,3.421,,,2018_Sep_13_1321,59.6201329982,verb_norming_L1-swe_no_translation,001,807,
HÅVA,Armar/händer,armar/händer,0,39,39,22,0,1,1,1,7,3.421,,,2018_Sep_13_1321,59.6201329982,verb_norming_L1-swe_no_translation,001,807,
HÅVA,,,0,39,39,22,,,,,,,,,2018_Sep_13_1321,59.6201329982,verb_norming_L1-swe_no_translation,001,807,
SKRAPA,Ben/fötter,ben/fötter,0,40,40,74,0,0,0,0,1,5.183,,,2018_Sep_13_1321,59.6201329982,verb_norming_L1-swe_no_translation,001,807,
SKRAPA,Armar/händer,armar/händer,0,40,40,74,0,1,1,1,7,2.634,,,2018_Sep_13_1321,59.6201329982,verb_norming_L1-swe_no_translation,001,807,
SKRAPA,,,0,40,40,74,,,,,,,,,2018_Sep_13_1321,59.6201329982,verb_norming_L1-swe_no_translation,001,807,
GRÄVA,Ben/fötter,ben/fötter,0,41,41,17,0,0,0,0,1,2.635,,,2018_Sep_13_1321,59.6201329982,verb_norming_L1-swe_no_translation,001,807,
GRÄVA,Armar/händer,armar/händer,0,41,41,17,0,1,1,1,7,0.588,,,2018_Sep_13_1321,59.6201329982,verb_norming_L1-swe_no_translation,001,807,
GRÄVA,,,0,41,41,17,,,,,,,,,2018_Sep_13_1321,59.6201329982,verb_norming_L1-swe_no_translation,001,807,
SLÄNTRA,Ben/fötter,ben/fötter,0,42,42,139,0,0,0,0,3,7.177,,,2018_Sep_13_1321,59.6201329982,verb_norming_L1-swe_no_translation,001,807,
SLÄNTRA,Armar/händer,armar/händer,0,42,42,139,0,1,1,1,1,0.805,,,2018_Sep_13_1321,59.6201329982,verb_norming_L1-swe_no_translation,001,807,
SLÄNTRA,,,0,42,42,139,,,,,,,,,2018_Sep_13_1321,59.6201329982,verb_norming_L1-swe_no_translation,001,807,
RULLA,Ben/fötter,ben/fötter,0,43,43,132,0,0,0,0,1,4.793,,,2018_Sep_13_1321,59.6201329982,verb_norming_L1-swe_no_translation,001,807,
RULLA,Armar/händer,armar/händer,0,43,43,132,0,1,1,1,1,0.604,,,2018_Sep_13_1321,59.6201329982,verb_norming_L1-swe_no_translation,001,807,
RULLA,,,0,43,43,132,,,,,,,,,2018_Sep_13_1321,59.6201329982,verb_norming_L1-swe_no_translation,001,807,
LINKA,Ben/fötter,ben/fötter,0,44,44,124,0,0,0,0,1,1.593,,,2018_Sep_13_1321,59.6201329982,verb_norming_L1-swe_no_translation,001,807,
LINKA,Armar/händer,armar/händer,0,44,44,124,0,1,1,1,1,0.586,,,2018_Sep_13_1321,59.6201329982,verb_norming_L1-swe_no_translation,001,807,
LINKA,,,0,44,44,124,,,,,,,,,2018_Sep_13_1321,59.6201329982,verb_norming_L1-swe_no_translation,001,807,
FATTA,Ben/fötter,ben/fötter,0,45,45,9,0,0,0,0,1,2.081,,,2018_Sep_13_1321,59.6201329982,verb_norming_L1-swe_no_translation,001,807,
FATTA,Armar/händer,armar/händer,0,45,45,9,0,1,1,1,1,1.763,,,2018_Sep_13_1321,59.6201329982,verb_norming_L1-swe_no_translation,001,807,
FATTA,,,0,45,45,9,,,,,,,,,2018_Sep_13_1321,59.6201329982,verb_norming_L1-swe_no_translation,001,807,
SPARKA,Ben/fötter,ben/fötter,0,46,46,144,0,0,0,0,7,3.053,,,2018_Sep_13_1321,59.6201329982,verb_norming_L1-swe_no_translation,001,807,
SPARKA,Armar/händer,armar/händer,0,46,46,144,0,1,1,1,1,2.433,,,2018_Sep_13_1321,59.6201329982,verb_norming_L1-swe_no_translation,001,807,
SPARKA,,,0,46,46,144,,,,,,,,,2018_Sep_13_1321,59.6201329982,verb_norming_L1-swe_no_translation,001,807,
RAFSA,Ben/fötter,ben/fötter,0,47,47,58,0,0,0,0,1,3.691,,,2018_Sep_13_1321,59.6201329982,verb_norming_L1-swe_no_translation,001,807,
RAFSA,Armar/händer,armar/händer,0,47,47,58,0,1,1,1,7,2.97,,,2018_Sep_13_1321,59.6201329982,verb_norming_L1-swe_no_translation,001,807,
RAFSA,,,0,47,47,58,,,,,,,,,2018_Sep_13_1321,59.6201329982,verb_norming_L1-swe_no_translation,001,807,
KLIPPA,Ben/fötter,ben/fötter,0,48,48,34,0,0,0,0,1,2.129,,,2018_Sep_13_1321,59.6201329982,verb_norming_L1-swe_no_translation,001,807,
KLIPPA,Armar/händer,armar/händer,0,48,48,34,0,1,1,1,7,0.872,,,2018_Sep_13_1321,59.6201329982,verb_norming_L1-swe_no_translation,001,807,
KLIPPA,,,0,48,48,34,,,,,,,,,2018_Sep_13_1321,59.6201329982,verb_norming_L1-swe_no_translation,001,807,
DASKA,Ben/fötter,ben/fötter,0,49,49,5,0,0,0,0,1,2.919,,,2018_Sep_13_1321,59.6201329982,verb_norming_L1-swe_no_translation,001,807,
DASKA,Armar/händer,armar/händer,0,49,49,5,0,1,1,1,7,3.155,,,2018_Sep_13_1321,59.6201329982,verb_norming_L1-swe_no_translation,001,807,
DASKA,,,0,49,49,5,,,,,,,,,2018_Sep_13_1321,59.6201329982,verb_norming_L1-swe_no_translation,001,807,
SKYNDA,Ben/fötter,ben/fötter,0,50,50,138,0,0,0,0,4,8.369,,,2018_Sep_13_1321,59.6201329982,verb_norming_L1-swe_no_translation,001,807,
SKYNDA,Armar/händer,armar/händer,0,50,50,138,0,1,1,1,1,1.494,,,2018_Sep_13_1321,59.6201329982,verb_norming_L1-swe_no_translation,001,807,
SKYNDA,,,0,50,50,138,,,,,,,,,2018_Sep_13_1321,59.6201329982,verb_norming_L1-swe_no_translation,001,807,
BADDA,Ben/fötter,ben/fötter,0,51,51,0,0,0,0,0,1,1.963,,,2018_Sep_13_1321,59.6201329982,verb_norming_L1-swe_no_translation,001,807,
BADDA,Armar/händer,armar/händer,0,51,51,0,0,1,1,1,7,0.992,,,2018_Sep_13_1321,59.6201329982,verb_norming_L1-swe_no_translation,001,807,
BADDA,,,0,51,51,0,,,,,,,,,2018_Sep_13_1321,59.6201329982,verb_norming_L1-swe_no_translation,001,807,
PISKA,Ben/fötter,ben/fötter,0,52,52,52,0,0,0,0,1,2.299,,,2018_Sep_13_1321,59.6201329982,verb_norming_L1-swe_no_translation,001,807,
PISKA,Armar/händer,armar/händer,0,52,52,52,0,1,1,1,7,0.573,,,2018_Sep_13_1321,59.6201329982,verb_norming_L1-swe_no_translation,001,807,
PISKA,,,0,52,52,52,,,,,,,,,2018_Sep_13_1321,59.6201329982,verb_norming_L1-swe_no_translation,001,807,
PUTTA,Ben/fötter,ben/fötter,0,53,53,57,0,0,0,0,1,1.928,,,2018_Sep_13_1321,59.6201329982,verb_norming_L1-swe_no_translation,001,807,
PUTTA,Armar/händer,armar/händer,0,53,53,57,0,1,1,1,7,0.52,,,2018_Sep_13_1321,59.6201329982,verb_norming_L1-swe_no_translation,001,807,
PUTTA,,,0,53,53,57,,,,,,,,,2018_Sep_13_1321,59.6201329982,verb_norming_L1-swe_no_translation,001,807,
NAPPA,Ben/fötter,ben/fötter,0,54,54,45,0,0,0,0,1,3.423,,,2018_Sep_13_1321,59.6201329982,verb_norming_L1-swe_no_translation,001,807,
NAPPA,Armar/händer,armar/händer,0,54,54,45,0,1,1,1,1,1.427,,,2018_Sep_13_1321,59.6201329982,verb_norming_L1-swe_no_translation,001,807,
NAPPA,,,0,54,54,45,,,,,,,,,2018_Sep_13_1321,59.6201329982,verb_norming_L1-swe_no_translation,001,807,
GLIDA,Ben/fötter,ben/fötter,0,55,55,107,0,0,0,0,4,4.142,,,2018_Sep_13_1321,59.6201329982,verb_norming_L1-swe_no_translation,001,807,
GLIDA,Armar/händer,armar/händer,0,55,55,107,0,1,1,1,1,1.04,,,2018_Sep_13_1321,59.6201329982,verb_norming_L1-swe_no_translation,001,807,
GLIDA,,,0,55,55,107,,,,,,,,,2018_Sep_13_1321,59.6201329982,verb_norming_L1-swe_no_translation,001,807,
TRAMPA,Ben/fötter,ben/fötter,0,56,56,161,0,0,0,0,7,3.404,,,2018_Sep_13_1321,59.6201329982,verb_norming_L1-swe_no_translation,001,807,
TRAMPA,Armar/händer,armar/händer,0,56,56,161,0,1,1,1,1,2.432,,,2018_Sep_13_1321,59.6201329982,verb_norming_L1-swe_no_translation,001,807,
TRAMPA,,,0,56,56,161,,,,,,,,,2018_Sep_13_1321,59.6201329982,verb_norming_L1-swe_no_translation,001,807,
FÅNGA,Ben/fötter,ben/fötter,0,57,57,8,0,0,0,0,1,4.779,,,2018_Sep_13_1321,59.6201329982,verb_norming_L1-swe_no_translation,001,807,
FÅNGA,Armar/händer,armar/händer,0,57,57,8,0,1,1,1,6,1.677,,,2018_Sep_13_1321,59.6201329982,verb_norming_L1-swe_no_translation,001,807,
FÅNGA,,,0,57,57,8,,,,,,,,,2018_Sep_13_1321,59.6201329982,verb_norming_L1-swe_no_translation,001,807,
KNIPA,Ben/fötter,ben/fötter,0,58,58,37,0,0,0,0,1,4.11,,,2018_Sep_13_1321,59.6201329982,verb_norming_L1-swe_no_translation,001,807,
KNIPA,Armar/händer,armar/händer,0,58,58,37,0,1,1,1,4,4.497,,,2018_Sep_13_1321,59.6201329982,verb_norming_L1-swe_no_translation,001,807,
KNIPA,,,0,58,58,37,,,,,,,,,2018_Sep_13_1321,59.6201329982,verb_norming_L1-swe_no_translation,001,807,
SKALA,Ben/fötter,ben/fötter,0,59,59,70,0,0,0,0,1,1.576,,,2018_Sep_13_1321,59.6201329982,verb_norming_L1-swe_no_translation,001,807,
SKALA,Armar/händer,armar/händer,0,59,59,70,0,1,1,1,7,0.872,,,2018_Sep_13_1321,59.6201329982,verb_norming_L1-swe_no_translation,001,807,
SKALA,,,0,59,59,70,,,,,,,,,2018_Sep_13_1321,59.6201329982,verb_norming_L1-swe_no_translation,001,807,
RAGLA,Ben/fötter,ben/fötter,0,60,60,130,0,0,0,0,2,6.322,,,2018_Sep_13_1321,59.6201329982,verb_norming_L1-swe_no_translation,001,807,
RAGLA,Armar/händer,armar/händer,0,60,60,130,0,1,1,1,1,1.022,,,2018_Sep_13_1321,59.6201329982,verb_norming_L1-swe_no_translation,001,807,
RAGLA,,,0,60,60,130,,,,,,,,,2018_Sep_13_1321,59.6201329982,verb_norming_L1-swe_no_translation,001,807,
TASSA,Ben/fötter,ben/fötter,0,61,61,159,0,0,0,0,7,1.98,,,2018_Sep_13_1321,59.6201329982,verb_norming_L1-swe_no_translation,001,807,
TASSA,Armar/händer,armar/händer,0,61,61,159,0,1,1,1,1,0.79,,,2018_Sep_13_1321,59.6201329982,verb_norming_L1-swe_no_translation,001,807,
TASSA,,,0,61,61,159,,,,,,,,,2018_Sep_13_1321,59.6201329982,verb_norming_L1-swe_no_translation,001,807,
SLITA,Ben/fötter,ben/fötter,0,62,62,82,0,0,0,0,1,2.918,,,2018_Sep_13_1321,59.6201329982,verb_norming_L1-swe_no_translation,001,807,
SLITA,Armar/händer,armar/händer,0,62,62,82,0,1,1,1,1,1.006,,,2018_Sep_13_1321,59.6201329982,verb_norming_L1-swe_no_translation,001,807,
SLITA,,,0,62,62,82,,,,,,,,,2018_Sep_13_1321,59.6201329982,verb_norming_L1-swe_no_translation,001,807,
VINGLA,Ben/fötter,ben/fötter,0,63,63,168,0,0,0,0,7,4.326,,,2018_Sep_13_1321,59.6201329982,verb_norming_L1-swe_no_translation,001,807,
VINGLA,Armar/händer,armar/händer,0,63,63,168,0,1,1,1,1,1.459,,,2018_Sep_13_1321,59.6201329982,verb_norming_L1-swe_no_translation,001,807,
VINGLA,,,0,63,63,168,,,,,,,,,2018_Sep_13_1321,59.6201329982,verb_norming_L1-swe_no_translation,001,807,
DANSA,Ben/fötter,ben/fötter,0,64,64,102,0,0,0,0,7,5.905,,,2018_Sep_13_1321,59.6201329982,verb_norming_L1-swe_no_translation,001,807,
DANSA,Armar/händer,armar/händer,0,64,64,102,0,1,1,1,7,0.908,,,2018_Sep_13_1321,59.6201329982,verb_norming_L1-swe_no_translation,001,807,
DANSA,,,0,64,64,102,,,,,,,,,2018_Sep_13_1321,59.6201329982,verb_norming_L1-swe_no_translation,001,807,
HOPPA,Ben/fötter,ben/fötter,0,65,65,111,0,0,0,0,7,3.037,,,2018_Sep_13_1321,59.6201329982,verb_norming_L1-swe_no_translation,001,807,
HOPPA,Armar/händer,armar/händer,0,65,65,111,0,1,1,1,1,2.401,,,2018_Sep_13_1321,59.6201329982,verb_norming_L1-swe_no_translation,001,807,
HOPPA,,,0,65,65,111,,,,,,,,,2018_Sep_13_1321,59.6201329982,verb_norming_L1-swe_no_translation,001,807,
NORPA,Ben/fötter,ben/fötter,0,66,66,46,0,0,0,0,1,2.249,,,2018_Sep_13_1321,59.6201329982,verb_norming_L1-swe_no_translation,001,807,
NORPA,Armar/händer,armar/händer,0,66,66,46,0,1,1,1,7,0.934,,,2018_Sep_13_1321,59.6201329982,verb_norming_L1-swe_no_translation,001,807,
NORPA,,,0,66,66,46,,,,,,,,,2018_Sep_13_1321,59.6201329982,verb_norming_L1-swe_no_translation,001,807,
GÅ,Ben/fötter,ben/fötter,0,67,67,106,0,0,0,0,7,2.567,,,2018_Sep_13_1321,59.6201329982,verb_norming_L1-swe_no_translation,001,807,
GÅ,Armar/händer,armar/händer,0,67,67,106,0,1,1,1,1,2.501,,,2018_Sep_13_1321,59.6201329982,verb_norming_L1-swe_no_translation,001,807,
GÅ,,,0,67,67,106,,,,,,,,,2018_Sep_13_1321,59.6201329982,verb_norming_L1-swe_no_translation,001,807,
TÅGA,Ben/fötter,ben/fötter,0,68,68,158,0,0,0,0,7,4.428,,,2018_Sep_13_1321,59.6201329982,verb_norming_L1-swe_no_translation,001,807,
TÅGA,Armar/händer,armar/händer,0,68,68,158,0,1,1,1,1,1.342,,,2018_Sep_13_1321,59.6201329982,verb_norming_L1-swe_no_translation,001,807,
TÅGA,,,0,68,68,158,,,,,,,,,2018_Sep_13_1321,59.6201329982,verb_norming_L1-swe_no_translation,001,807,
KLÄMMA,Ben/fötter,ben/fötter,0,69,69,30,0,0,0,0,1,10.363,,,2018_Sep_13_1321,59.6201329982,verb_norming_L1-swe_no_translation,001,807,
KLÄMMA,Armar/händer,armar/händer,0,69,69,30,0,1,1,1,5,1.407,,,2018_Sep_13_1321,59.6201329982,verb_norming_L1-swe_no_translation,001,807,
KLÄMMA,,,0,69,69,30,,,,,,,,,2018_Sep_13_1321,59.6201329982,verb_norming_L1-swe_no_translation,001,807,
RÖRA,Ben/fötter,ben/fötter,0,70,70,65,0,0,0,0,1,2.551,,,2018_Sep_13_1321,59.6201329982,verb_norming_L1-swe_no_translation,001,807,
RÖRA,Armar/händer,armar/händer,0,70,70,65,0,1,1,1,7,0.724,,,2018_Sep_13_1321,59.6201329982,verb_norming_L1-swe_no_translation,001,807,
RÖRA,,,0,70,70,65,,,,,,,,,2018_Sep_13_1321,59.6201329982,verb_norming_L1-swe_no_translation,001,807,
KRATSA,Ben/fötter,ben/fötter,0,71,71,42,0,0,0,0,1,6.005,,,2018_Sep_13_1321,59.6201329982,verb_norming_L1-swe_no_translation,001,807,
KRATSA,Armar/händer,armar/händer,0,71,71,42,0,1,1,1,1,0.622,,,2018_Sep_13_1321,59.6201329982,verb_norming_L1-swe_no_translation,001,807,
KRATSA,,,0,71,71,42,,,,,,,,,2018_Sep_13_1321,59.6201329982,verb_norming_L1-swe_no_translation,001,807,
FLACKA,Ben/fötter,ben/fötter,0,72,72,103,0,0,0,0,1,2.917,,,2018_Sep_13_1321,59.6201329982,verb_norming_L1-swe_no_translation,001,807,
FLACKA,Armar/händer,armar/händer,0,72,72,103,0,1,1,1,1,0.485,,,2018_Sep_13_1321,59.6201329982,verb_norming_L1-swe_no_translation,001,807,
FLACKA,,,0,72,72,103,,,,,,,,,2018_Sep_13_1321,59.6201329982,verb_norming_L1-swe_no_translation,001,807,
SVABBA,Ben/fötter,ben/fötter,0,73,73,90,0,0,0,0,1,2.583,,,2018_Sep_13_1321,59.6201329982,verb_norming_L1-swe_no_translation,001,807,
SVABBA,Armar/händer,armar/händer,0,73,73,90,0,1,1,1,7,0.857,,,2018_Sep_13_1321,59.6201329982,verb_norming_L1-swe_no_translation,001,807,
SVABBA,,,0,73,73,90,,,,,,,,,2018_Sep_13_1321,59.6201329982,verb_norming_L1-swe_no_translation,001,807,
PETA,Ben/fötter,ben/fötter,0,74,74,50,0,0,0,0,1,1.83,,,2018_Sep_13_1321,59.6201329982,verb_norming_L1-swe_no_translation,001,807,
PETA,Armar/händer,armar/händer,0,74,74,50,0,1,1,1,7,0.59,,,2018_Sep_13_1321,59.6201329982,verb_norming_L1-swe_no_translation,001,807,
PETA,,,0,74,74,50,,,,,,,,,2018_Sep_13_1321,59.6201329982,verb_norming_L1-swe_no_translation,001,807,
SKAKA,Ben/fötter,ben/fötter,0,75,75,69,0,0,0,0,1,1.98,,,2018_Sep_13_1321,59.6201329982,verb_norming_L1-swe_no_translation,001,807,
SKAKA,Armar/händer,armar/händer,0,75,75,69,0,1,1,1,7,0.69,,,2018_Sep_13_1321,59.6201329982,verb_norming_L1-swe_no_translation,001,807,
SKAKA,,,0,75,75,69,,,,,,,,,2018_Sep_13_1321,59.6201329982,verb_norming_L1-swe_no_translation,001,807,
KRAVLA,Ben/fötter,ben/fötter,0,76,76,122,0,0,0,0,6,5.534,,,2018_Sep_13_1321,59.6201329982,verb_norming_L1-swe_no_translation,001,807,
KRAVLA,Armar/händer,armar/händer,0,76,76,122,0,1,1,1,6,1.141,,,2018_Sep_13_1321,59.6201329982,verb_norming_L1-swe_no_translation,001,807,
KRAVLA,,,0,76,76,122,,,,,,,,,2018_Sep_13_1321,59.6201329982,verb_norming_L1-swe_no_translation,001,807,
KLICKA,Ben/fötter,ben/fötter,0,77,77,33,0,0,0,0,1,2.146,,,2018_Sep_13_1321,59.6201329982,verb_norming_L1-swe_no_translation,001,807,
KLICKA,Armar/händer,armar/händer,0,77,77,33,0,1,1,1,7,0.519,,,2018_Sep_13_1321,59.6201329982,verb_norming_L1-swe_no_translation,001,807,
KLICKA,,,0,77,77,33,,,,,,,,,2018_Sep_13_1321,59.6201329982,verb_norming_L1-swe_no_translation,001,807,
DRA,Ben/fötter,ben/fötter,0,78,78,6,0,0,0,0,1,1.864,,,2018_Sep_13_1321,59.6201329982,verb_norming_L1-swe_no_translation,001,807,
DRA,Armar/händer,armar/händer,0,78,78,6,0,1,1,1,7,0.489,,,2018_Sep_13_1321,59.6201329982,verb_norming_L1-swe_no_translation,001,807,
DRA,,,0,78,78,6,,,,,,,,,2018_Sep_13_1321,59.6201329982,verb_norming_L1-swe_no_translation,001,807,
CYKLA,Ben/fötter,ben/fötter,0,79,79,101,0,0,0,0,7,3.203,,,2018_Sep_13_1321,59.6201329982,verb_norming_L1-swe_no_translation,001,807,
CYKLA,Armar/händer,armar/händer,0,79,79,101,0,1,1,1,2,3.79,,,2018_Sep_13_1321,59.6201329982,verb_norming_L1-swe_no_translation,001,807,
CYKLA,,,0,79,79,101,,,,,,,,,2018_Sep_13_1321,59.6201329982,verb_norming_L1-swe_no_translation,001,807,
PROMENERA,Ben/fötter,ben/fötter,0,80,80,129,0,0,0,0,7,1.624,,,2018_Sep_13_1321,59.6201329982,verb_norming_L1-swe_no_translation,001,807,
PROMENERA,Armar/händer,armar/händer,0,80,80,129,0,1,1,1,1,0.82,,,2018_Sep_13_1321,59.6201329982,verb_norming_L1-swe_no_translation,001,807,
PROMENERA,,,0,80,80,129,,,,,,,,,2018_Sep_13_1321,59.6201329982,verb_norming_L1-swe_no_translation,001,807,
SMÄLLA,Ben/fötter,ben/fötter,0,81,81,84,0,0,0,0,1,2.245,,,2018_Sep_13_1321,59.6201329982,verb_norming_L1-swe_no_translation,001,807,
SMÄLLA,Armar/händer,armar/händer,0,81,81,84,0,1,1,1,6,3.924,,,2018_Sep_13_1321,59.6201329982,verb_norming_L1-swe_no_translation,001,807,
SMÄLLA,,,0,81,81,84,,,,,,,,,2018_Sep_13_1321,59.6201329982,verb_norming_L1-swe_no_translation,001,807,
SVAJA,Ben/fötter,ben/fötter,0,82,82,156,0,0,0,0,5,3.221,,,2018_Sep_13_1321,59.6201329982,verb_norming_L1-swe_no_translation,001,807,
SVAJA,Armar/händer,armar/händer,0,82,82,156,0,1,1,1,4,4.01,,,2018_Sep_13_1321,59.6201329982,verb_norming_L1-swe_no_translation,001,807,
SVAJA,,,0,82,82,156,,,,,,,,,2018_Sep_13_1321,59.6201329982,verb_norming_L1-swe_no_translation,001,807,
SKOPA,Ben/fötter,ben/fötter,0,83,83,73,0,0,0,0,7,1.964,,,2018_Sep_13_1321,59.6201329982,verb_norming_L1-swe_no_translation,001,807,
SKOPA,Armar/händer,armar/händer,0,83,83,73,0,1,1,1,7,25.745,,,2018_Sep_13_1321,59.6201329982,verb_norming_L1-swe_no_translation,001,807,
SKOPA,,,0,83,83,73,,,,,,,,,2018_Sep_13_1321,59.6201329982,verb_norming_L1-swe_no_translation,001,807,
HALKA,Ben/fötter,ben/fötter,0,84,84,109,0,0,0,0,7,9.006,,,2018_Sep_13_1321,59.6201329982,verb_norming_L1-swe_no_translation,001,807,
HALKA,Armar/händer,armar/händer,0,84,84,109,0,1,1,1,1,4.578,,,2018_Sep_13_1321,59.6201329982,verb_norming_L1-swe_no_translation,001,807,
HALKA,,,0,84,84,109,,,,,,,,,2018_Sep_13_1321,59.6201329982,verb_norming_L1-swe_no_translation,001,807,
VACKLA,Ben/fötter,ben/fötter,0,85,85,164,0,0,0,0,6,10.431,,,2018_Sep_13_1321,59.6201329982,verb_norming_L1-swe_no_translation,001,807,
VACKLA,Armar/händer,armar/händer,0,85,85,164,0,1,1,1,1,2.599,,,2018_Sep_13_1321,59.6201329982,verb_norming_L1-swe_no_translation,001,807,
VACKLA,,,0,85,85,164,,,,,,,,,2018_Sep_13_1321,59.6201329982,verb_norming_L1-swe_no_translation,001,807,
SPRINGA,Ben/fötter,ben/fötter,0,86,86,145,0,0,0,0,7,3.084,,,2018_Sep_13_1321,59.6201329982,verb_norming_L1-swe_no_translation,001,807,
SPRINGA,Armar/händer,armar/händer,0,86,86,145,0,1,1,1,1,1.125,,,2018_Sep_13_1321,59.6201329982,verb_norming_L1-swe_no_translation,001,807,
SPRINGA,,,0,86,86,145,,,,,,,,,2018_Sep_13_1321,59.6201329982,verb_norming_L1-swe_no_translation,001,807,
RYCKA,Ben/fötter,ben/fötter,0,87,87,67,0,0,0,0,1,2.618,,,2018_Sep_13_1321,59.6201329982,verb_norming_L1-swe_no_translation,001,807,
RYCKA,Armar/händer,armar/händer,0,87,87,67,0,1,1,1,7,0.807,,,2018_Sep_13_1321,59.6201329982,verb_norming_L1-swe_no_translation,001,807,
RYCKA,,,0,87,87,67,,,,,,,,,2018_Sep_13_1321,59.6201329982,verb_norming_L1-swe_no_translation,001,807,
REPA,Ben/fötter,ben/fötter,0,88,88,61,0,0,0,0,1,5.302,,,2018_Sep_13_1321,59.6201329982,verb_norming_L1-swe_no_translation,001,807,
REPA,Armar/händer,armar/händer,0,88,88,61,0,1,1,1,4,6.963,,,2018_Sep_13_1321,59.6201329982,verb_norming_L1-swe_no_translation,001,807,
REPA,,,0,88,88,61,,,,,,,,,2018_Sep_13_1321,59.6201329982,verb_norming_L1-swe_no_translation,001,807,
TA,Ben/fötter,ben/fötter,0,89,89,92,0,0,0,0,1,1.933,,,2018_Sep_13_1321,59.6201329982,verb_norming_L1-swe_no_translation,001,807,
TA,Armar/händer,armar/händer,0,89,89,92,0,1,1,1,7,4.18,,,2018_Sep_13_1321,59.6201329982,verb_norming_L1-swe_no_translation,001,807,
TA,,,0,89,89,92,,,,,,,,,2018_Sep_13_1321,59.6201329982,verb_norming_L1-swe_no_translation,001,807,
BULTA,Ben/fötter,ben/fötter,0,90,90,4,0,0,0,0,1,2.331,,,2018_Sep_13_1321,59.6201329982,verb_norming_L1-swe_no_translation,001,807,
BULTA,Armar/händer,armar/händer,0,90,90,4,0,1,1,1,7,0.62,,,2018_Sep_13_1321,59.6201329982,verb_norming_L1-swe_no_translation,001,807,
BULTA,,,0,90,90,4,,,,,,,,,2018_Sep_13_1321,59.6201329982,verb_norming_L1-swe_no_translation,001,807,
SNUBBLA,Ben/fötter,ben/fötter,0,91,91,143,0,0,0,0,7,1.96,,,2018_Sep_13_1321,59.6201329982,verb_norming_L1-swe_no_translation,001,807,
SNUBBLA,Armar/händer,armar/händer,0,91,91,143,0,1,1,1,1,1.558,,,2018_Sep_13_1321,59.6201329982,verb_norming_L1-swe_no_translation,001,807,
SNUBBLA,,,0,91,91,143,,,,,,,,,2018_Sep_13_1321,59.6201329982,verb_norming_L1-swe_no_translation,001,807,
KASTA,Ben/fötter,ben/fötter,0,92,92,27,0,0,0,0,1,1.846,,,2018_Sep_13_1321,59.6201329982,verb_norming_L1-swe_no_translation,001,807,
KASTA,Armar/händer,armar/händer,0,92,92,27,0,1,1,1,7,0.773,,,2018_Sep_13_1321,59.6201329982,verb_norming_L1-swe_no_translation,001,807,
KASTA,,,0,92,92,27,,,,,,,,,2018_Sep_13_1321,59.6201329982,verb_norming_L1-swe_no_translation,001,807,
KNYCKA,Ben/fötter,ben/fötter,0,93,93,39,0,0,0,0,1,9.074,,,2018_Sep_13_1321,59.6201329982,verb_norming_L1-swe_no_translation,001,807,
KNYCKA,Armar/händer,armar/händer,0,93,93,39,0,1,1,1,7,3.59,,,2018_Sep_13_1321,59.6201329982,verb_norming_L1-swe_no_translation,001,807,
KNYCKA,,,0,93,93,39,,,,,,,,,2018_Sep_13_1321,59.6201329982,verb_norming_L1-swe_no_translation,001,807,
HISSA,Ben/fötter,ben/fötter,0,94,94,23,0,0,0,0,1,3.926,,,2018_Sep_13_1321,59.6201329982,verb_norming_L1-swe_no_translation,001,807,
HISSA,Armar/händer,armar/händer,0,94,94,23,0,1,1,1,7,0.639,,,2018_Sep_13_1321,59.6201329982,verb_norming_L1-swe_no_translation,001,807,
HISSA,,,0,94,94,23,,,,,,,,,2018_Sep_13_1321,59.6201329982,verb_norming_L1-swe_no_translation,001,807,
SKURA,Ben/fötter,ben/fötter,0,95,95,77,0,0,0,0,1,7.261,,,2018_Sep_13_1321,59.6201329982,verb_norming_L1-swe_no_translation,001,807,
SKURA,Armar/händer,armar/händer,0,95,95,77,0,1,1,1,7,0.788,,,2018_Sep_13_1321,59.6201329982,verb_norming_L1-swe_no_translation,001,807,
SKURA,,,0,95,95,77,,,,,,,,,2018_Sep_13_1321,59.6201329982,verb_norming_L1-swe_no_translation,001,807,
BANKA,Ben/fötter,ben/fötter,0,96,96,1,0,0,0,0,1,1.528,,,2018_Sep_13_1321,59.6201329982,verb_norming_L1-swe_no_translation,001,807,
BANKA,Armar/händer,armar/händer,0,96,96,1,0,1,1,1,7,0.621,,,2018_Sep_13_1321,59.6201329982,verb_norming_L1-swe_no_translation,001,807,
BANKA,,,0,96,96,1,,,,,,,,,2018_Sep_13_1321,59.6201329982,verb_norming_L1-swe_no_translation,001,807,
HACKA,Ben/fötter,ben/fötter,0,97,97,20,0,0,0,0,1,1.813,,,2018_Sep_13_1321,59.6201329982,verb_norming_L1-swe_no_translation,001,807,
HACKA,Armar/händer,armar/händer,0,97,97,20,0,1,1,1,7,0.539,,,2018_Sep_13_1321,59.6201329982,verb_norming_L1-swe_no_translation,001,807,
HACKA,,,0,97,97,20,,,,,,,,,2018_Sep_13_1321,59.6201329982,verb_norming_L1-swe_no_translation,001,807,
VADA,Ben/fötter,ben/fötter,0,98,98,165,0,0,0,0,7,1.847,,,2018_Sep_13_1321,59.6201329982,verb_norming_L1-swe_no_translation,001,807,
VADA,Armar/händer,armar/händer,0,98,98,165,0,1,1,1,1,0.891,,,2018_Sep_13_1321,59.6201329982,verb_norming_L1-swe_no_translation,001,807,
VADA,,,0,98,98,165,,,,,,,,,2018_Sep_13_1321,59.6201329982,verb_norming_L1-swe_no_translation,001,807,
GUPPA,Ben/fötter,ben/fötter,0,99,99,108,0,0,0,0,1,5.031,,,2018_Sep_13_1321,59.6201329982,verb_norming_L1-swe_no_translation,001,807,
GUPPA,Armar/händer,armar/händer,0,99,99,108,0,1,1,1,1,0.603,,,2018_Sep_13_1321,59.6201329982,verb_norming_L1-swe_no_translation,001,807,
GUPPA,,,0,99,99,108,,,,,,,,,2018_Sep_13_1321,59.6201329982,verb_norming_L1-swe_no_translation,001,807,
GNUGGA,Ben/fötter,ben/fötter,0,100,100,15,0,0,0,0,1,1.86,,,2018_Sep_13_1321,59.6201329982,verb_norming_L1-swe_no_translation,001,807,
GNUGGA,Armar/händer,armar/händer,0,100,100,15,0,1,1,1,7,1.123,,,2018_Sep_13_1321,59.6201329982,verb_norming_L1-swe_no_translation,001,807,
GNUGGA,,,0,100,100,15,,,,,,,,,2018_Sep_13_1321,59.6201329982,verb_norming_L1-swe_no_translation,001,807,
SKUMMA,Ben/fötter,ben/fötter,0,101,101,76,0,0,0,0,1,5.315,,,2018_Sep_13_1321,59.6201329982,verb_norming_L1-swe_no_translation,001,807,
SKUMMA,Armar/händer,armar/händer,0,101,101,76,0,1,1,1,1,1.543,,,2018_Sep_13_1321,59.6201329982,verb_norming_L1-swe_no_translation,001,807,
SKUMMA,,,0,101,101,76,,,,,,,,,2018_Sep_13_1321,59.6201329982,verb_norming_L1-swe_no_translation,001,807,
BORSTA,Ben/fötter,ben/fötter,0,102,102,3,0,0,0,0,1,1.61,,,2018_Sep_13_1321,59.6201329982,verb_norming_L1-swe_no_translation,001,807,
BORSTA,Armar/händer,armar/händer,0,102,102,3,0,1,1,1,7,0.555,,,2018_Sep_13_1321,59.6201329982,verb_norming_L1-swe_no_translation,001,807,
BORSTA,,,0,102,102,3,,,,,,,,,2018_Sep_13_1321,59.6201329982,verb_norming_L1-swe_no_translation,001,807,
KLÖSA,Ben/fötter,ben/fötter,0,103,103,35,0,0,0,0,1,1.71,,,2018_Sep_13_1321,59.6201329982,verb_norming_L1-swe_no_translation,001,807,
KLÖSA,Armar/händer,armar/händer,0,103,103,35,0,1,1,1,7,0.57,,,2018_Sep_13_1321,59.6201329982,verb_norming_L1-swe_no_translation,001,807,
KLÖSA,,,0,103,103,35,,,,,,,,,2018_Sep_13_1321,59.6201329982,verb_norming_L1-swe_no_translation,001,807,
KNIVHUGGA,Ben/fötter,ben/fötter,0,104,104,38,0,0,0,0,1,4.291,,,2018_Sep_13_1321,59.6201329982,verb_norming_L1-swe_no_translation,001,807,
KNIVHUGGA,Armar/händer,armar/händer,0,104,104,38,0,1,1,1,7,1.173,,,2018_Sep_13_1321,59.6201329982,verb_norming_L1-swe_no_translation,001,807,
KNIVHUGGA,,,0,104,104,38,,,,,,,,,2018_Sep_13_1321,59.6201329982,verb_norming_L1-swe_no_translation,001,807,
SKEJTA,Ben/fötter,ben/fötter,0,105,105,135,0,0,0,0,7,1.561,,,2018_Sep_13_1321,59.6201329982,verb_norming_L1-swe_no_translation,001,807,
SKEJTA,Armar/händer,armar/händer,0,105,105,135,0,1,1,1,2,8.085,,,2018_Sep_13_1321,59.6201329982,verb_norming_L1-swe_no_translation,001,807,
SKEJTA,,,0,105,105,135,,,,,,,,,2018_Sep_13_1321,59.6201329982,verb_norming_L1-swe_no_translation,001,807,
SLUNGA,Ben/fötter,ben/fötter,0,106,106,83,0,0,0,0,1,2.8,,,2018_Sep_13_1321,59.6201329982,verb_norming_L1-swe_no_translation,001,807,
SLUNGA,Armar/händer,armar/händer,0,106,106,83,0,1,1,1,5,4.613,,,2018_Sep_13_1321,59.6201329982,verb_norming_L1-swe_no_translation,001,807,
SLUNGA,,,0,106,106,83,,,,,,,,,2018_Sep_13_1321,59.6201329982,verb_norming_L1-swe_no_translation,001,807,
STÅ,Ben/fötter,ben/fötter,0,107,107,147,0,0,0,0,7,1.979,,,2018_Sep_13_1321,59.6201329982,verb_norming_L1-swe_no_translation,001,807,
STÅ,Armar/händer,armar/händer,0,107,107,147,0,1,1,1,1,1.477,,,2018_Sep_13_1321,59.6201329982,verb_norming_L1-swe_no_translation,001,807,
STÅ,,,0,107,107,147,,,,,,,,,2018_Sep_13_1321,59.6201329982,verb_norming_L1-swe_no_translation,001,807,
SLINTA,Ben/fötter,ben/fötter,0,108,108,140,0,0,0,0,1,4.544,,,2018_Sep_13_1321,59.6201329982,verb_norming_L1-swe_no_translation,001,807,
SLINTA,Armar/händer,armar/händer,0,108,108,140,0,1,1,1,7,4.597,,,2018_Sep_13_1321,59.6201329982,verb_norming_L1-swe_no_translation,001,807,
SLINTA,,,0,108,108,140,,,,,,,,,2018_Sep_13_1321,59.6201329982,verb_norming_L1-swe_no_translation,001,807,
DUNKA,Ben/fötter,ben/fötter,0,109,109,7,0,0,0,0,1,1.844,,,2018_Sep_13_1321,59.6201329982,verb_norming_L1-swe_no_translation,001,807,
DUNKA,Armar/händer,armar/händer,0,109,109,7,0,1,1,1,7,0.638,,,2018_Sep_13_1321,59.6201329982,verb_norming_L1-swe_no_translation,001,807,
DUNKA,,,0,109,109,7,,,,,,,,,2018_Sep_13_1321,59.6201329982,verb_norming_L1-swe_no_translation,001,807,
MARSCHERA,Ben/fötter,ben/fötter,0,110,110,127,0,0,0,0,7,1.826,,,2018_Sep_13_1321,59.6201329982,verb_norming_L1-swe_no_translation,001,807,
MARSCHERA,Armar/händer,armar/händer,0,110,110,127,0,1,1,1,1,1.29,,,2018_Sep_13_1321,59.6201329982,verb_norming_L1-swe_no_translation,001,807,
MARSCHERA,,,0,110,110,127,,,,,,,,,2018_Sep_13_1321,59.6201329982,verb_norming_L1-swe_no_translation,001,807,
GNIDA,Ben/fötter,ben/fötter,0,111,111,14,0,0,0,0,1,20.109,,,2018_Sep_13_1321,59.6201329982,verb_norming_L1-swe_no_translation,001,807,
GNIDA,Armar/händer,armar/händer,0,111,111,14,0,1,1,1,7,0.656,,,2018_Sep_13_1321,59.6201329982,verb_norming_L1-swe_no_translation,001,807,
GNIDA,,,0,111,111,14,,,,,,,,,2018_Sep_13_1321,59.6201329982,verb_norming_L1-swe_no_translation,001,807,
FLANERA,Ben/fötter,ben/fötter,0,112,112,104,0,0,0,0,3,3.839,,,2018_Sep_13_1321,59.6201329982,verb_norming_L1-swe_no_translation,001,807,
FLANERA,Armar/händer,armar/händer,0,112,112,104,0,1,1,1,1,1.24,,,2018_Sep_13_1321,59.6201329982,verb_norming_L1-swe_no_translation,001,807,
FLANERA,,,0,112,112,104,,,,,,,,,2018_Sep_13_1321,59.6201329982,verb_norming_L1-swe_no_translation,001,807,
PINNA,Ben/fötter,ben/fötter,0,113,113,128,0,0,0,0,7,2.266,,,2018_Sep_13_1321,59.6201329982,verb_norming_L1-swe_no_translation,001,807,
PINNA,Armar/händer,armar/händer,0,113,113,128,0,1,1,1,1,1.075,,,2018_Sep_13_1321,59.6201329982,verb_norming_L1-swe_no_translation,001,807,
PINNA,,,0,113,113,128,,,,,,,,,2018_Sep_13_1321,59.6201329982,verb_norming_L1-swe_no_translation,001,807,
SKJUTA,Ben/fötter,ben/fötter,0,114,114,72,0,0,0,0,4,9.476,,,2018_Sep_13_1321,59.6201329982,verb_norming_L1-swe_no_translation,001,807,
SKJUTA,Armar/händer,armar/händer,0,114,114,72,0,1,1,1,7,0.872,,,2018_Sep_13_1321,59.6201329982,verb_norming_L1-swe_no_translation,001,807,
SKJUTA,,,0,114,114,72,,,,,,,,,2018_Sep_13_1321,59.6201329982,verb_norming_L1-swe_no_translation,001,807,
HIVA,Ben/fötter,ben/fötter,0,115,115,24,0,0,0,0,1,2.132,,,2018_Sep_13_1321,59.6201329982,verb_norming_L1-swe_no_translation,001,807,
HIVA,Armar/händer,armar/händer,0,115,115,24,0,1,1,1,7,0.707,,,2018_Sep_13_1321,59.6201329982,verb_norming_L1-swe_no_translation,001,807,
HIVA,,,0,115,115,24,,,,,,,,,2018_Sep_13_1321,59.6201329982,verb_norming_L1-swe_no_translation,001,807,
SNÄRTA,Ben/fötter,ben/fötter,0,116,116,86,0,0,0,0,1,4.479,,,2018_Sep_13_1321,59.6201329982,verb_norming_L1-swe_no_translation,001,807,
SNÄRTA,Armar/händer,armar/händer,0,116,116,86,0,1,1,1,5,0.637,,,2018_Sep_13_1321,59.6201329982,verb_norming_L1-swe_no_translation,001,807,
SNÄRTA,,,0,116,116,86,,,,,,,,,2018_Sep_13_1321,59.6201329982,verb_norming_L1-swe_no_translation,001,807,
LYFTA,Ben/fötter,ben/fötter,0,117,117,44,0,0,0,0,1,2.935,,,2018_Sep_13_1321,59.6201329982,verb_norming_L1-swe_no_translation,001,807,
LYFTA,Armar/händer,armar/händer,0,117,117,44,0,1,1,1,7,0.873,,,2018_Sep_13_1321,59.6201329982,verb_norming_L1-swe_no_translation,001,807,
LYFTA,,,0,117,117,44,,,,,,,,,2018_Sep_13_1321,59.6201329982,verb_norming_L1-swe_no_translation,001,807,
LUNKA,Ben/fötter,ben/fötter,0,118,118,126,0,0,0,0,7,1.845,,,2018_Sep_13_1321,59.6201329982,verb_norming_L1-swe_no_translation,001,807,
LUNKA,Armar/händer,armar/händer,0,118,118,126,0,1,1,1,1,0.688,,,2018_Sep_13_1321,59.6201329982,verb_norming_L1-swe_no_translation,001,807,
LUNKA,,,0,118,118,126,,,,,,,,,2018_Sep_13_1321,59.6201329982,verb_norming_L1-swe_no_translation,001,807,
SLIPA,Ben/fötter,ben/fötter,0,119,119,81,0,0,0,0,1,1.928,,,2018_Sep_13_1321,59.6201329982,verb_norming_L1-swe_no_translation,001,807,
SLIPA,Armar/händer,armar/händer,0,119,119,81,0,1,1,1,7,1.56,,,2018_Sep_13_1321,59.6201329982,verb_norming_L1-swe_no_translation,001,807,
SLIPA,,,0,119,119,81,,,,,,,,,2018_Sep_13_1321,59.6201329982,verb_norming_L1-swe_no_translation,001,807,
TRÄDA,Ben/fötter,ben/fötter,0,120,120,160,0,0,0,0,7,8.269,,,2018_Sep_13_1321,59.6201329982,verb_norming_L1-swe_no_translation,001,807,
TRÄDA,Armar/händer,armar/händer,0,120,120,160,0,1,1,1,1,1.377,,,2018_Sep_13_1321,59.6201329982,verb_norming_L1-swe_no_translation,001,807,
TRÄDA,,,0,120,120,160,,,,,,,,,2018_Sep_13_1321,59.6201329982,verb_norming_L1-swe_no_translation,001,807,
SKRUBBA,Ben/fötter,ben/fötter,0,121,121,75,0,0,0,0,1,3.135,,,2018_Sep_13_1321,59.6201329982,verb_norming_L1-swe_no_translation,001,807,
SKRUBBA,Armar/händer,armar/händer,0,121,121,75,0,1,1,1,7,0.938,,,2018_Sep_13_1321,59.6201329982,verb_norming_L1-swe_no_translation,001,807,
SKRUBBA,,,0,121,121,75,,,,,,,,,2018_Sep_13_1321,59.6201329982,verb_norming_L1-swe_no_translation,001,807,
TRASKA,Ben/fötter,ben/fötter,0,122,122,162,0,0,0,0,7,1.594,,,2018_Sep_13_1321,59.6201329982,verb_norming_L1-swe_no_translation,001,807,
TRASKA,Armar/händer,armar/händer,0,122,122,162,0,1,1,1,1,0.974,,,2018_Sep_13_1321,59.6201329982,verb_norming_L1-swe_no_translation,001,807,
TRASKA,,,0,122,122,162,,,,,,,,,2018_Sep_13_1321,59.6201329982,verb_norming_L1-swe_no_translation,001,807,
HAFFA,Ben/fötter,ben/fötter,0,123,123,21,0,0,0,0,1,4.161,,,2018_Sep_13_1321,59.6201329982,verb_norming_L1-swe_no_translation,001,807,
HAFFA,Armar/händer,armar/händer,0,123,123,21,0,1,1,1,6,1.562,,,2018_Sep_13_1321,59.6201329982,verb_norming_L1-swe_no_translation,001,807,
HAFFA,,,0,123,123,21,,,,,,,,,2018_Sep_13_1321,59.6201329982,verb_norming_L1-swe_no_translation,001,807,
FLY,Ben/fötter,ben/fötter,0,124,124,105,0,0,0,0,7,3.64,,,2018_Sep_13_1321,59.6201329982,verb_norming_L1-swe_no_translation,001,807,
FLY,Armar/händer,armar/händer,0,124,124,105,0,1,1,1,1,1.612,,,2018_Sep_13_1321,59.6201329982,verb_norming_L1-swe_no_translation,001,807,
FLY,,,0,124,124,105,,,,,,,,,2018_Sep_13_1321,59.6201329982,verb_norming_L1-swe_no_translation,001,807,
SLEVA,Ben/fötter,ben/fötter,0,125,125,80,0,0,0,0,1,2.531,,,2018_Sep_13_1321,59.6201329982,verb_norming_L1-swe_no_translation,001,807,
SLEVA,Armar/händer,armar/händer,0,125,125,80,0,1,1,1,7,0.621,,,2018_Sep_13_1321,59.6201329982,verb_norming_L1-swe_no_translation,001,807,
SLEVA,,,0,125,125,80,,,,,,,,,2018_Sep_13_1321,59.6201329982,verb_norming_L1-swe_no_translation,001,807,
STRUTTA,Ben/fötter,ben/fötter,0,126,126,154,0,0,0,0,1,3.403,,,2018_Sep_13_1321,59.6201329982,verb_norming_L1-swe_no_translation,001,807,
STRUTTA,Armar/händer,armar/händer,0,126,126,154,0,1,1,1,1,0.685,,,2018_Sep_13_1321,59.6201329982,verb_norming_L1-swe_no_translation,001,807,
STRUTTA,,,0,126,126,154,,,,,,,,,2018_Sep_13_1321,59.6201329982,verb_norming_L1-swe_no_translation,001,807,
STIGA,Ben/fötter,ben/fötter,0,127,127,151,0,0,0,0,7,10.148,,,2018_Sep_13_1321,59.6201329982,verb_norming_L1-swe_no_translation,001,807,
STIGA,Armar/händer,armar/händer,0,127,127,151,0,1,1,1,1,1.612,,,2018_Sep_13_1321,59.6201329982,verb_norming_L1-swe_no_translation,001,807,
STIGA,,,0,127,127,151,,,,,,,,,2018_Sep_13_1321,59.6201329982,verb_norming_L1-swe_no_translation,001,807,
KLIA,Ben/fötter,ben/fötter,0,128,128,32,0,0,0,0,1,3.605,,,2018_Sep_13_1321,59.6201329982,verb_norming_L1-swe_no_translation,001,807,
KLIA,Armar/händer,armar/händer,0,128,128,32,0,1,1,1,7,0.621,,,2018_Sep_13_1321,59.6201329982,verb_norming_L1-swe_no_translation,001,807,
KLIA,,,0,128,128,32,,,,,,,,,2018_Sep_13_1321,59.6201329982,verb_norming_L1-swe_no_translation,001,807,
JOGGA,Ben/fötter,ben/fötter,0,129,129,114,0,0,0,0,7,1.511,,,2018_Sep_13_1321,59.6201329982,verb_norming_L1-swe_no_translation,001,807,
JOGGA,Armar/händer,armar/händer,0,129,129,114,0,1,1,1,1,2.199,,,2018_Sep_13_1321,59.6201329982,verb_norming_L1-swe_no_translation,001,807,
JOGGA,,,0,129,129,114,,,,,,,,,2018_Sep_13_1321,59.6201329982,verb_norming_L1-swe_no_translation,001,807,
KARVA,Ben/fötter,ben/fötter,0,130,130,26,0,0,0,0,1,2.886,,,2018_Sep_13_1321,59.6201329982,verb_norming_L1-swe_no_translation,001,807,
KARVA,Armar/händer,armar/händer,0,130,130,26,0,1,1,1,7,1.998,,,2018_Sep_13_1321,59.6201329982,verb_norming_L1-swe_no_translation,001,807,
KARVA,,,0,130,130,26,,,,,,,,,2018_Sep_13_1321,59.6201329982,verb_norming_L1-swe_no_translation,001,807,
SVEPA,Ben/fötter,ben/fötter,0,131,131,91,0,0,0,0,1,4.362,,,2018_Sep_13_1321,59.6201329982,verb_norming_L1-swe_no_translation,001,807,
SVEPA,Armar/händer,armar/händer,0,131,131,91,0,1,1,1,7,7.464,,,2018_Sep_13_1321,59.6201329982,verb_norming_L1-swe_no_translation,001,807,
SVEPA,,,0,131,131,91,,,,,,,,,2018_Sep_13_1321,59.6201329982,verb_norming_L1-swe_no_translation,001,807,
SKÄRA,Ben/fötter,ben/fötter,0,132,132,71,0,0,0,0,1,2.147,,,2018_Sep_13_1321,59.6201329982,verb_norming_L1-swe_no_translation,001,807,
SKÄRA,Armar/händer,armar/händer,0,132,132,71,0,1,1,1,7,0.656,,,2018_Sep_13_1321,59.6201329982,verb_norming_L1-swe_no_translation,001,807,
SKÄRA,,,0,132,132,71,,,,,,,,,2018_Sep_13_1321,59.6201329982,verb_norming_L1-swe_no_translation,001,807,
KNACKA,Ben/fötter,ben/fötter,0,133,133,36,0,0,0,0,1,1.678,,,2018_Sep_13_1321,59.6201329982,verb_norming_L1-swe_no_translation,001,807,
KNACKA,Armar/händer,armar/händer,0,133,133,36,0,1,1,1,7,0.673,,,2018_Sep_13_1321,59.6201329982,verb_norming_L1-swe_no_translation,001,807,
KNACKA,,,0,133,133,36,,,,,,,,,2018_Sep_13_1321,59.6201329982,verb_norming_L1-swe_no_translation,001,807,
TVINNA,Ben/fötter,ben/fötter,0,134,134,97,0,0,0,0,1,2.634,,,2018_Sep_13_1321,59.6201329982,verb_norming_L1-swe_no_translation,001,807,
TVINNA,Armar/händer,armar/händer,0,134,134,97,0,1,1,1,6,2.316,,,2018_Sep_13_1321,59.6201329982,verb_norming_L1-swe_no_translation,001,807,
TVINNA,,,0,134,134,97,,,,,,,,,2018_Sep_13_1321,59.6201329982,verb_norming_L1-swe_no_translation,001,807,
NYPA,Ben/fötter,ben/fötter,0,135,135,47,0,0,0,0,1,1.629,,,2018_Sep_13_1321,59.6201329982,verb_norming_L1-swe_no_translation,001,807,
NYPA,Armar/händer,armar/händer,0,135,135,47,0,1,1,1,7,0.606,,,2018_Sep_13_1321,59.6201329982,verb_norming_L1-swe_no_translation,001,807,
NYPA,,,0,135,135,47,,,,,,,,,2018_Sep_13_1321,59.6201329982,verb_norming_L1-swe_no_translation,001,807,
GREPPA,Ben/fötter,ben/fötter,0,136,136,18,0,0,0,0,1,2.634,,,2018_Sep_13_1321,59.6201329982,verb_norming_L1-swe_no_translation,001,807,
GREPPA,Armar/händer,armar/händer,0,136,136,18,0,1,1,1,7,0.605,,,2018_Sep_13_1321,59.6201329982,verb_norming_L1-swe_no_translation,001,807,
GREPPA,,,0,136,136,18,,,,,,,,,2018_Sep_13_1321,59.6201329982,verb_norming_L1-swe_no_translation,001,807,
TRIPPA,Ben/fötter,ben/fötter,0,137,137,163,0,0,0,0,7,2.416,,,2018_Sep_13_1321,59.6201329982,verb_norming_L1-swe_no_translation,001,807,
TRIPPA,Armar/händer,armar/händer,0,137,137,163,0,1,1,1,1,4.008,,,2018_Sep_13_1321,59.6201329982,verb_norming_L1-swe_no_translation,001,807,
TRIPPA,,,0,137,137,163,,,,,,,,,2018_Sep_13_1321,59.6201329982,verb_norming_L1-swe_no_translation,001,807,
LINDA,Ben/fötter,ben/fötter,0,138,138,43,0,0,0,0,1,1.744,,,2018_Sep_13_1321,59.6201329982,verb_norming_L1-swe_no_translation,001,807,
LINDA,Armar/händer,armar/händer,0,138,138,43,0,1,1,1,7,0.571,,,2018_Sep_13_1321,59.6201329982,verb_norming_L1-swe_no_translation,001,807,
LINDA,,,0,138,138,43,,,,,,,,,2018_Sep_13_1321,59.6201329982,verb_norming_L1-swe_no_translation,001,807,
KNALLA,Ben/fötter,ben/fötter,0,139,139,119,0,0,0,0,7,1.76,,,2018_Sep_13_1321,59.6201329982,verb_norming_L1-swe_no_translation,001,807,
KNALLA,Armar/händer,armar/händer,0,139,139,119,0,1,1,1,1,0.822,,,2018_Sep_13_1321,59.6201329982,verb_norming_L1-swe_no_translation,001,807,
KNALLA,,,0,139,139,119,,,,,,,,,2018_Sep_13_1321,59.6201329982,verb_norming_L1-swe_no_translation,001,807,
KLÄTTRA,Ben/fötter,ben/fötter,0,140,140,116,0,0,0,0,7,5.449,,,2018_Sep_13_1321,59.6201329982,verb_norming_L1-swe_no_translation,001,807,
KLÄTTRA,Armar/händer,armar/händer,0,140,140,116,0,1,1,1,7,0.704,,,2018_Sep_13_1321,59.6201329982,verb_norming_L1-swe_no_translation,001,807,
KLÄTTRA,,,0,140,140,116,,,,,,,,,2018_Sep_13_1321,59.6201329982,verb_norming_L1-swe_no_translation,001,807,
FILA,Ben/fötter,ben/fötter,0,141,141,10,0,0,0,0,1,14.171,,,2018_Sep_13_1321,59.6201329982,verb_norming_L1-swe_no_translation,001,807,
FILA,Armar/händer,armar/händer,0,141,141,10,0,1,1,1,7,1.426,,,2018_Sep_13_1321,59.6201329982,verb_norming_L1-swe_no_translation,001,807,
FILA,,,0,141,141,10,,,,,,,,,2018_Sep_13_1321,59.6201329982,verb_norming_L1-swe_no_translation,001,807,
SKUTTA,Ben/fötter,ben/fötter,0,142,142,137,0,0,0,0,7,3.941,,,2018_Sep_13_1321,59.6201329982,verb_norming_L1-swe_no_translation,001,807,
SKUTTA,Armar/händer,armar/händer,0,142,142,137,0,1,1,1,1,0.586,,,2018_Sep_13_1321,59.6201329982,verb_norming_L1-swe_no_translation,001,807,
SKUTTA,,,0,142,142,137,,,,,,,,,2018_Sep_13_1321,59.6201329982,verb_norming_L1-swe_no_translation,001,807,
ÅLA,Ben/fötter,ben/fötter,0,143,143,100,0,0,0,0,2,8.554,,,2018_Sep_13_1321,59.6201329982,verb_norming_L1-swe_no_translation,001,807,
ÅLA,Armar/händer,armar/händer,0,143,143,100,0,1,1,1,5,4.731,,,2018_Sep_13_1321,59.6201329982,verb_norming_L1-swe_no_translation,001,807,
ÅLA,,,0,143,143,100,,,,,,,,,2018_Sep_13_1321,59.6201329982,verb_norming_L1-swe_no_translation,001,807,
STUDSA,Ben/fötter,ben/fötter,0,144,144,155,0,0,0,0,7,2.968,,,2018_Sep_13_1321,59.6201329982,verb_norming_L1-swe_no_translation,001,807,
STUDSA,Armar/händer,armar/händer,0,144,144,155,0,1,1,1,1,1.041,,,2018_Sep_13_1321,59.6201329982,verb_norming_L1-swe_no_translation,001,807,
STUDSA,,,0,144,144,155,,,,,,,,,2018_Sep_13_1321,59.6201329982,verb_norming_L1-swe_no_translation,001,807,
STÖTA,Ben/fötter,ben/fötter,0,145,145,89,0,0,0,0,1,10.08,,,2018_Sep_13_1321,59.6201329982,verb_norming_L1-swe_no_translation,001,807,
STÖTA,Armar/händer,armar/händer,0,145,145,89,0,1,1,1,6,0.522,,,2018_Sep_13_1321,59.6201329982,verb_norming_L1-swe_no_translation,001,807,
STÖTA,,,0,145,145,89,,,,,,,,,2018_Sep_13_1321,59.6201329982,verb_norming_L1-swe_no_translation,001,807,
VIRA,Ben/fötter,ben/fötter,0,146,146,99,0,0,0,0,1,1.746,,,2018_Sep_13_1321,59.6201329982,verb_norming_L1-swe_no_translation,001,807,
VIRA,Armar/händer,armar/händer,0,146,146,99,0,1,1,1,7,0.439,,,2018_Sep_13_1321,59.6201329982,verb_norming_L1-swe_no_translation,001,807,
VIRA,,,0,146,146,99,,,,,,,,,2018_Sep_13_1321,59.6201329982,verb_norming_L1-swe_no_translation,001,807,
STÄDA,Ben/fötter,ben/fötter,0,147,147,88,0,0,0,0,4,6.559,,,2018_Sep_13_1321,59.6201329982,verb_norming_L1-swe_no_translation,001,807,
STÄDA,Armar/händer,armar/händer,0,147,147,88,0,1,1,1,7,0.673,,,2018_Sep_13_1321,59.6201329982,verb_norming_L1-swe_no_translation,001,807,
STÄDA,,,0,147,147,88,,,,,,,,,2018_Sep_13_1321,59.6201329982,verb_norming_L1-swe_no_translation,001,807,
SMYGA,Ben/fötter,ben/fötter,0,148,148,141,0,0,0,0,7,2.314,,,2018_Sep_13_1321,59.6201329982,verb_norming_L1-swe_no_translation,001,807,
SMYGA,Armar/händer,armar/händer,0,148,148,141,0,1,1,1,1,0.771,,,2018_Sep_13_1321,59.6201329982,verb_norming_L1-swe_no_translation,001,807,
SMYGA,,,0,148,148,141,,,,,,,,,2018_Sep_13_1321,59.6201329982,verb_norming_L1-swe_no_translation,001,807,
RÄNNA,Ben/fötter,ben/fötter,0,149,149,131,0,0,0,0,7,2.232,,,2018_Sep_13_1321,59.6201329982,verb_norming_L1-swe_no_translation,001,807,
RÄNNA,Armar/händer,armar/händer,0,149,149,131,0,1,1,1,1,2.635,,,2018_Sep_13_1321,59.6201329982,verb_norming_L1-swe_no_translation,001,807,
RÄNNA,,,0,149,149,131,,,,,,,,,2018_Sep_13_1321,59.6201329982,verb_norming_L1-swe_no_translation,001,807,
PADDLA,Ben/fötter,ben/fötter,0,150,150,49,0,0,0,0,1,3.17,,,2018_Sep_13_1321,59.6201329982,verb_norming_L1-swe_no_translation,001,807,
PADDLA,Armar/händer,armar/händer,0,150,150,49,0,1,1,1,7,0.872,,,2018_Sep_13_1321,59.6201329982,verb_norming_L1-swe_no_translation,001,807,
PADDLA,,,0,150,150,49,,,,,,,,,2018_Sep_13_1321,59.6201329982,verb_norming_L1-swe_no_translation,001,807,
FÖSA,Ben/fötter,ben/fötter,0,151,151,12,0,0,0,0,1,1.796,,,2018_Sep_13_1321,59.6201329982,verb_norming_L1-swe_no_translation,001,807,
FÖSA,Armar/händer,armar/händer,0,151,151,12,0,1,1,1,7,0.59,,,2018_Sep_13_1321,59.6201329982,verb_norming_L1-swe_no_translation,001,807,
FÖSA,,,0,151,151,12,,,,,,,,,2018_Sep_13_1321,59.6201329982,verb_norming_L1-swe_no_translation,001,807,
ROTA,Ben/fötter,ben/fötter,0,152,152,66,0,0,0,0,1,1.998,,,2018_Sep_13_1321,59.6201329982,verb_norming_L1-swe_no_translation,001,807,
ROTA,Armar/händer,armar/händer,0,152,152,66,0,1,1,1,7,0.623,,,2018_Sep_13_1321,59.6201329982,verb_norming_L1-swe_no_translation,001,807,
ROTA,,,0,152,152,66,,,,,,,,,2018_Sep_13_1321,59.6201329982,verb_norming_L1-swe_no_translation,001,807,
HALTA,Ben/fötter,ben/fötter,0,153,153,110,0,0,0,0,7,1.676,,,2018_Sep_13_1321,59.6201329982,verb_norming_L1-swe_no_translation,001,807,
HALTA,Armar/händer,armar/händer,0,153,153,110,0,1,1,1,1,0.721,,,2018_Sep_13_1321,59.6201329982,verb_norming_L1-swe_no_translation,001,807,
HALTA,,,0,153,153,110,,,,,,,,,2018_Sep_13_1321,59.6201329982,verb_norming_L1-swe_no_translation,001,807,
VANKA,Ben/fötter,ben/fötter,0,154,154,167,0,0,0,0,7,3.892,,,2018_Sep_13_1321,59.6201329982,verb_norming_L1-swe_no_translation,001,807,
VANKA,Armar/händer,armar/händer,0,154,154,167,0,1,1,1,1,1.713,,,2018_Sep_13_1321,59.6201329982,verb_norming_L1-swe_no_translation,001,807,
VANKA,,,0,154,154,167,,,,,,,,,2018_Sep_13_1321,59.6201329982,verb_norming_L1-swe_no_translation,001,807,
LÖPA,Ben/fötter,ben/fötter,0,155,155,125,0,0,0,0,7,1.544,,,2018_Sep_13_1321,59.6201329982,verb_norming_L1-swe_no_translation,001,807,
LÖPA,Armar/händer,armar/händer,0,155,155,125,0,1,1,1,1,2.582,,,2018_Sep_13_1321,59.6201329982,verb_norming_L1-swe_no_translation,001,807,
LÖPA,,,0,155,155,125,,,,,,,,,2018_Sep_13_1321,59.6201329982,verb_norming_L1-swe_no_translation,001,807,
POLERA,Ben/fötter,ben/fötter,0,156,156,54,0,0,0,0,1,2.196,,,2018_Sep_13_1321,59.6201329982,verb_norming_L1-swe_no_translation,001,807,
POLERA,Armar/händer,armar/händer,0,156,156,54,0,1,1,1,7,0.621,,,2018_Sep_13_1321,59.6201329982,verb_norming_L1-swe_no_translation,001,807,
POLERA,,,0,156,156,54,,,,,,,,,2018_Sep_13_1321,59.6201329982,verb_norming_L1-swe_no_translation,001,807,
SLÅ,Ben/fötter,ben/fötter,0,157,157,79,0,0,0,0,1,2.197,,,2018_Sep_13_1321,59.6201329982,verb_norming_L1-swe_no_translation,001,807,
SLÅ,Armar/händer,armar/händer,0,157,157,79,0,1,1,1,7,1.008,,,2018_Sep_13_1321,59.6201329982,verb_norming_L1-swe_no_translation,001,807,
SLÅ,,,0,157,157,79,,,,,,,,,2018_Sep_13_1321,59.6201329982,verb_norming_L1-swe_no_translation,001,807,
RISTA,Ben/fötter,ben/fötter,0,158,158,62,0,0,0,0,1,3.236,,,2018_Sep_13_1321,59.6201329982,verb_norming_L1-swe_no_translation,001,807,
RISTA,Armar/händer,armar/händer,0,158,158,62,0,1,1,1,7,0.572,,,2018_Sep_13_1321,59.6201329982,verb_norming_L1-swe_no_translation,001,807,
RISTA,,,0,158,158,62,,,,,,,,,2018_Sep_13_1321,59.6201329982,verb_norming_L1-swe_no_translation,001,807,
RASPA,Ben/fötter,ben/fötter,0,159,159,60,0,0,0,0,1,4.077,,,2018_Sep_13_1321,59.6201329982,verb_norming_L1-swe_no_translation,001,807,
RASPA,Armar/händer,armar/händer,0,159,159,60,0,1,1,1,3,5.788,,,2018_Sep_13_1321,59.6201329982,verb_norming_L1-swe_no_translation,001,807,
RASPA,,,0,159,159,60,,,,,,,,,2018_Sep_13_1321,59.6201329982,verb_norming_L1-swe_no_translation,001,807,
KLIVA,Ben/fötter,ben/fötter,0,160,160,117,0,0,0,0,7,1.878,,,2018_Sep_13_1321,59.6201329982,verb_norming_L1-swe_no_translation,001,807,
KLIVA,Armar/händer,armar/händer,0,160,160,117,0,1,1,1,1,1.006,,,2018_Sep_13_1321,59.6201329982,verb_norming_L1-swe_no_translation,001,807,
KLIVA,,,0,160,160,117,,,,,,,,,2018_Sep_13_1321,59.6201329982,verb_norming_L1-swe_no_translation,001,807,
IRRA,Ben/fötter,ben/fötter,0,161,161,113,0,0,0,0,4,5.217,,,2018_Sep_13_1321,59.6201329982,verb_norming_L1-swe_no_translation,001,807,
IRRA,Armar/händer,armar/händer,0,161,161,113,0,1,1,1,1,1.243,,,2018_Sep_13_1321,59.6201329982,verb_norming_L1-swe_no_translation,001,807,
IRRA,,,0,161,161,113,,,,,,,,,2018_Sep_13_1321,59.6201329982,verb_norming_L1-swe_no_translation,001,807,
RIVA,Ben/fötter,ben/fötter,0,162,162,63,0,0,0,0,1,1.646,,,2018_Sep_13_1321,59.6201329982,verb_norming_L1-swe_no_translation,001,807,
RIVA,Armar/händer,armar/händer,0,162,162,63,0,1,1,1,7,0.824,,,2018_Sep_13_1321,59.6201329982,verb_norming_L1-swe_no_translation,001,807,
RIVA,,,0,162,162,63,,,,,,,,,2018_Sep_13_1321,59.6201329982,verb_norming_L1-swe_no_translation,001,807,
KLAPPA,Ben/fötter,ben/fötter,0,163,163,31,0,0,0,0,1,2.045,,,2018_Sep_13_1321,59.6201329982,verb_norming_L1-swe_no_translation,001,807,
KLAPPA,Armar/händer,armar/händer,0,163,163,31,0,1,1,1,7,0.889,,,2018_Sep_13_1321,59.6201329982,verb_norming_L1-swe_no_translation,001,807,
KLAPPA,,,0,163,163,31,,,,,,,,,2018_Sep_13_1321,59.6201329982,verb_norming_L1-swe_no_translation,001,807,
STEGA,Ben/fötter,ben/fötter,0,164,164,150,0,0,0,0,2,11.59,,,2018_Sep_13_1321,59.6201329982,verb_norming_L1-swe_no_translation,001,807,
STEGA,Armar/händer,armar/händer,0,164,164,150,0,1,1,1,1,0.622,,,2018_Sep_13_1321,59.6201329982,verb_norming_L1-swe_no_translation,001,807,
STEGA,,,0,164,164,150,,,,,,,,,2018_Sep_13_1321,59.6201329982,verb_norming_L1-swe_no_translation,001,807,
GRABBA,Ben/fötter,ben/fötter,0,165,165,16,0,0,0,0,1,2.248,,,2018_Sep_13_1321,59.6201329982,verb_norming_L1-swe_no_translation,001,807,
GRABBA,Armar/händer,armar/händer,0,165,165,16,0,1,1,1,7,1.394,,,2018_Sep_13_1321,59.6201329982,verb_norming_L1-swe_no_translation,001,807,
GRABBA,,,0,165,165,16,,,,,,,,,2018_Sep_13_1321,59.6201329982,verb_norming_L1-swe_no_translation,001,807,
RO,Ben/fötter,ben/fötter,0,166,166,64,0,0,0,0,1,2.149,,,2018_Sep_13_1321,59.6201329982,verb_norming_L1-swe_no_translation,001,807,
RO,Armar/händer,armar/händer,0,166,166,64,0,1,1,1,7,0.574,,,2018_Sep_13_1321,59.6201329982,verb_norming_L1-swe_no_translation,001,807,
RO,,,0,166,166,64,,,,,,,,,2018_Sep_13_1321,59.6201329982,verb_norming_L1-swe_no_translation,001,807,
STAMPA,Ben/fötter,ben/fötter,0,167,167,148,0,0,0,0,7,1.794,,,2018_Sep_13_1321,59.6201329982,verb_norming_L1-swe_no_translation,001,807,
STAMPA,Armar/händer,armar/händer,0,167,167,148,0,1,1,1,1,0.771,,,2018_Sep_13_1321,59.6201329982,verb_norming_L1-swe_no_translation,001,807,
STAMPA,,,0,167,167,148,,,,,,,,,2018_Sep_13_1321,59.6201329982,verb_norming_L1-swe_no_translation,001,807,
TRUMMA,Ben/fötter,ben/fötter,0,168,168,94,0,0,0,0,1,2.348,,,2018_Sep_13_1321,59.6201329982,verb_norming_L1-swe_no_translation,001,807,
TRUMMA,Armar/händer,armar/händer,0,168,168,94,0,1,1,1,7,2.063,,,2018_Sep_13_1321,59.6201329982,verb_norming_L1-swe_no_translation,001,807,
TRUMMA,,,0,168,168,94,,,,,,,,,2018_Sep_13_1321,59.6201329982,verb_norming_L1-swe_no_translation,001,807,
,,,,,,,,,,,,,space,11.0522932655,2018_Sep_13_1321,59.6201329982,verb_norming_L1-swe_no_translation,001,807,
