word,category,category_lowercase,trials.thisRepN,trials.thisTrialN,trials.thisN,trials.thisIndex,armleg_loop.thisRepN,armleg_loop.thisTrialN,armleg_loop.thisN,armleg_loop.thisIndex,rating.response,rating.rt,key_resp_8.keys,key_resp_8.rt,date,frameRate,expName,session,participant,
SNUBBLA,Arm,arm,0,0,0,143,0,0,0,0,6,11.092,,,2018_Sep_13_1547,59.6264535706,verb_norming_L1-swe_no_translation,001,808,
SNUBBLA,Ben,ben,0,0,0,143,0,1,1,1,7,2.158,,,2018_Sep_13_1547,59.6264535706,verb_norming_L1-swe_no_translation,001,808,
SNUBBLA,,,0,0,0,143,,,,,,,,,2018_Sep_13_1547,59.6264535706,verb_norming_L1-swe_no_translation,001,808,
SKYFFLA,Arm,arm,0,1,1,78,0,0,0,0,7,2.905,,,2018_Sep_13_1547,59.6264535706,verb_norming_L1-swe_no_translation,001,808,
SKYFFLA,Ben,ben,0,1,1,78,0,1,1,1,1,2.824,,,2018_Sep_13_1547,59.6264535706,verb_norming_L1-swe_no_translation,001,808,
SKYFFLA,,,0,1,1,78,,,,,,,,,2018_Sep_13_1547,59.6264535706,verb_norming_L1-swe_no_translation,001,808,
TRÄDA,Arm,arm,0,2,2,160,0,0,0,0,2,5.677,,,2018_Sep_13_1547,59.6264535706,verb_norming_L1-swe_no_translation,001,808,
TRÄDA,Ben,ben,0,2,2,160,0,1,1,1,7,3.484,,,2018_Sep_13_1547,59.6264535706,verb_norming_L1-swe_no_translation,001,808,
TRÄDA,,,0,2,2,160,,,,,,,,,2018_Sep_13_1547,59.6264535706,verb_norming_L1-swe_no_translation,001,808,
PADDLA,Arm,arm,0,3,3,49,0,0,0,0,7,2.591,,,2018_Sep_13_1547,59.6264535706,verb_norming_L1-swe_no_translation,001,808,
PADDLA,Ben,ben,0,3,3,49,0,1,1,1,5,4.808,,,2018_Sep_13_1547,59.6264535706,verb_norming_L1-swe_no_translation,001,808,
PADDLA,,,0,3,3,49,,,,,,,,,2018_Sep_13_1547,59.6264535706,verb_norming_L1-swe_no_translation,001,808,
FATTA,Arm,arm,0,4,4,9,0,0,0,0,6,9.267,,,2018_Sep_13_1547,59.6264535706,verb_norming_L1-swe_no_translation,001,808,
FATTA,Ben,ben,0,4,4,9,0,1,1,1,2,1.89,,,2018_Sep_13_1547,59.6264535706,verb_norming_L1-swe_no_translation,001,808,
FATTA,,,0,4,4,9,,,,,,,,,2018_Sep_13_1547,59.6264535706,verb_norming_L1-swe_no_translation,001,808,
SVEPA,Arm,arm,0,5,5,91,0,0,0,0,6,7.437,,,2018_Sep_13_1547,59.6264535706,verb_norming_L1-swe_no_translation,001,808,
SVEPA,Ben,ben,0,5,5,91,0,1,1,1,3,1.119,,,2018_Sep_13_1547,59.6264535706,verb_norming_L1-swe_no_translation,001,808,
SVEPA,,,0,5,5,91,,,,,,,,,2018_Sep_13_1547,59.6264535706,verb_norming_L1-swe_no_translation,001,808,
KRATSA,Arm,arm,0,6,6,42,0,0,0,0,7,5.526,,,2018_Sep_13_1547,59.6264535706,verb_norming_L1-swe_no_translation,001,808,
KRATSA,Ben,ben,0,6,6,42,0,1,1,1,1,4.673,,,2018_Sep_13_1547,59.6264535706,verb_norming_L1-swe_no_translation,001,808,
KRATSA,,,0,6,6,42,,,,,,,,,2018_Sep_13_1547,59.6264535706,verb_norming_L1-swe_no_translation,001,808,
SMÄLLA,Arm,arm,0,7,7,84,0,0,0,0,4,9.399,,,2018_Sep_13_1547,59.6264535706,verb_norming_L1-swe_no_translation,001,808,
SMÄLLA,Ben,ben,0,7,7,84,0,1,1,1,4,0.884,,,2018_Sep_13_1547,59.6264535706,verb_norming_L1-swe_no_translation,001,808,
SMÄLLA,,,0,7,7,84,,,,,,,,,2018_Sep_13_1547,59.6264535706,verb_norming_L1-swe_no_translation,001,808,
TÅGA,Arm,arm,0,8,8,158,0,0,0,0,2,10.267,,,2018_Sep_13_1547,59.6264535706,verb_norming_L1-swe_no_translation,001,808,
TÅGA,Ben,ben,0,8,8,158,0,1,1,1,7,3.549,,,2018_Sep_13_1547,59.6264535706,verb_norming_L1-swe_no_translation,001,808,
TÅGA,,,0,8,8,158,,,,,,,,,2018_Sep_13_1547,59.6264535706,verb_norming_L1-swe_no_translation,001,808,
SVABBA,Arm,arm,0,9,9,90,0,0,0,0,6,6.095,,,2018_Sep_13_1547,59.6264535706,verb_norming_L1-swe_no_translation,001,808,
SVABBA,Ben,ben,0,9,9,90,0,1,1,1,1,6.334,,,2018_Sep_13_1547,59.6264535706,verb_norming_L1-swe_no_translation,001,808,
SVABBA,,,0,9,9,90,,,,,,,,,2018_Sep_13_1547,59.6264535706,verb_norming_L1-swe_no_translation,001,808,
KNÄA,Arm,arm,0,10,10,118,0,0,0,0,2,20.537,,,2018_Sep_13_1547,59.6264535706,verb_norming_L1-swe_no_translation,001,808,
KNÄA,Ben,ben,0,10,10,118,0,1,1,1,7,4.222,,,2018_Sep_13_1547,59.6264535706,verb_norming_L1-swe_no_translation,001,808,
KNÄA,,,0,10,10,118,,,,,,,,,2018_Sep_13_1547,59.6264535706,verb_norming_L1-swe_no_translation,001,808,
HOPPA,Arm,arm,0,11,11,111,0,0,0,0,3,7.321,,,2018_Sep_13_1547,59.6264535706,verb_norming_L1-swe_no_translation,001,808,
HOPPA,Ben,ben,0,11,11,111,0,1,1,1,7,4.071,,,2018_Sep_13_1547,59.6264535706,verb_norming_L1-swe_no_translation,001,808,
HOPPA,,,0,11,11,111,,,,,,,,,2018_Sep_13_1547,59.6264535706,verb_norming_L1-swe_no_translation,001,808,
STRÖVA,Arm,arm,0,12,12,153,0,0,0,0,3,5.506,,,2018_Sep_13_1547,59.6264535706,verb_norming_L1-swe_no_translation,001,808,
STRÖVA,Ben,ben,0,12,12,153,0,1,1,1,7,2.509,,,2018_Sep_13_1547,59.6264535706,verb_norming_L1-swe_no_translation,001,808,
STRÖVA,,,0,12,12,153,,,,,,,,,2018_Sep_13_1547,59.6264535706,verb_norming_L1-swe_no_translation,001,808,
ILA,Arm,arm,0,13,13,112,0,0,0,0,3,8.345,,,2018_Sep_13_1547,59.6264535706,verb_norming_L1-swe_no_translation,001,808,
ILA,Ben,ben,0,13,13,112,0,1,1,1,7,1.79,,,2018_Sep_13_1547,59.6264535706,verb_norming_L1-swe_no_translation,001,808,
ILA,,,0,13,13,112,,,,,,,,,2018_Sep_13_1547,59.6264535706,verb_norming_L1-swe_no_translation,001,808,
STEGA,Arm,arm,0,14,14,150,0,0,0,0,2,4.686,,,2018_Sep_13_1547,59.6264535706,verb_norming_L1-swe_no_translation,001,808,
STEGA,Ben,ben,0,14,14,150,0,1,1,1,7,1.955,,,2018_Sep_13_1547,59.6264535706,verb_norming_L1-swe_no_translation,001,808,
STEGA,,,0,14,14,150,,,,,,,,,2018_Sep_13_1547,59.6264535706,verb_norming_L1-swe_no_translation,001,808,
KLÅ,Arm,arm,0,15,15,29,0,0,0,0,5,7.859,,,2018_Sep_13_1547,59.6264535706,verb_norming_L1-swe_no_translation,001,808,
KLÅ,Ben,ben,0,15,15,29,0,1,1,1,2,2.311,,,2018_Sep_13_1547,59.6264535706,verb_norming_L1-swe_no_translation,001,808,
KLÅ,,,0,15,15,29,,,,,,,,,2018_Sep_13_1547,59.6264535706,verb_norming_L1-swe_no_translation,001,808,
TVINNA,Arm,arm,0,16,16,97,0,0,0,0,6,4.553,,,2018_Sep_13_1547,59.6264535706,verb_norming_L1-swe_no_translation,001,808,
TVINNA,Ben,ben,0,16,16,97,0,1,1,1,2,1.873,,,2018_Sep_13_1547,59.6264535706,verb_norming_L1-swe_no_translation,001,808,
TVINNA,,,0,16,16,97,,,,,,,,,2018_Sep_13_1547,59.6264535706,verb_norming_L1-swe_no_translation,001,808,
RAGLA,Arm,arm,0,17,17,130,0,0,0,0,6,4.333,,,2018_Sep_13_1547,59.6264535706,verb_norming_L1-swe_no_translation,001,808,
RAGLA,Ben,ben,0,17,17,130,0,1,1,1,7,1.251,,,2018_Sep_13_1547,59.6264535706,verb_norming_L1-swe_no_translation,001,808,
RAGLA,,,0,17,17,130,,,,,,,,,2018_Sep_13_1547,59.6264535706,verb_norming_L1-swe_no_translation,001,808,
TORKA,Arm,arm,0,18,18,93,0,0,0,0,7,2.591,,,2018_Sep_13_1547,59.6264535706,verb_norming_L1-swe_no_translation,001,808,
TORKA,Ben,ben,0,18,18,93,0,1,1,1,1,2.192,,,2018_Sep_13_1547,59.6264535706,verb_norming_L1-swe_no_translation,001,808,
TORKA,,,0,18,18,93,,,,,,,,,2018_Sep_13_1547,59.6264535706,verb_norming_L1-swe_no_translation,001,808,
NYPA,Arm,arm,0,19,19,47,0,0,0,0,7,3.884,,,2018_Sep_13_1547,59.6264535706,verb_norming_L1-swe_no_translation,001,808,
NYPA,Ben,ben,0,19,19,47,0,1,1,1,3,8.113,,,2018_Sep_13_1547,59.6264535706,verb_norming_L1-swe_no_translation,001,808,
NYPA,,,0,19,19,47,,,,,,,,,2018_Sep_13_1547,59.6264535706,verb_norming_L1-swe_no_translation,001,808,
RAKA,Arm,arm,0,20,20,59,0,0,0,0,7,3.481,,,2018_Sep_13_1547,59.6264535706,verb_norming_L1-swe_no_translation,001,808,
RAKA,Ben,ben,0,20,20,59,0,1,1,1,5,3.317,,,2018_Sep_13_1547,59.6264535706,verb_norming_L1-swe_no_translation,001,808,
RAKA,,,0,20,20,59,,,,,,,,,2018_Sep_13_1547,59.6264535706,verb_norming_L1-swe_no_translation,001,808,
RISTA,Arm,arm,0,21,21,62,0,0,0,0,7,2.961,,,2018_Sep_13_1547,59.6264535706,verb_norming_L1-swe_no_translation,001,808,
RISTA,Ben,ben,0,21,21,62,0,1,1,1,1,3.249,,,2018_Sep_13_1547,59.6264535706,verb_norming_L1-swe_no_translation,001,808,
RISTA,,,0,21,21,62,,,,,,,,,2018_Sep_13_1547,59.6264535706,verb_norming_L1-swe_no_translation,001,808,
KOPPLA,Arm,arm,0,22,22,40,0,0,0,0,7,4.0,,,2018_Sep_13_1547,59.6264535706,verb_norming_L1-swe_no_translation,001,808,
KOPPLA,Ben,ben,0,22,22,40,0,1,1,1,1,2.779,,,2018_Sep_13_1547,59.6264535706,verb_norming_L1-swe_no_translation,001,808,
KOPPLA,,,0,22,22,40,,,,,,,,,2018_Sep_13_1547,59.6264535706,verb_norming_L1-swe_no_translation,001,808,
GRABBA,Arm,arm,0,23,23,16,0,0,0,0,7,4.401,,,2018_Sep_13_1547,59.6264535706,verb_norming_L1-swe_no_translation,001,808,
GRABBA,Ben,ben,0,23,23,16,0,1,1,1,1,2.022,,,2018_Sep_13_1547,59.6264535706,verb_norming_L1-swe_no_translation,001,808,
GRABBA,,,0,23,23,16,,,,,,,,,2018_Sep_13_1547,59.6264535706,verb_norming_L1-swe_no_translation,001,808,
FLACKA,Arm,arm,0,24,24,103,0,0,0,0,4,4.752,,,2018_Sep_13_1547,59.6264535706,verb_norming_L1-swe_no_translation,001,808,
FLACKA,Ben,ben,0,24,24,103,0,1,1,1,5,5.879,,,2018_Sep_13_1547,59.6264535706,verb_norming_L1-swe_no_translation,001,808,
FLACKA,,,0,24,24,103,,,,,,,,,2018_Sep_13_1547,59.6264535706,verb_norming_L1-swe_no_translation,001,808,
VACKLA,Arm,arm,0,25,25,164,0,0,0,0,6,3.176,,,2018_Sep_13_1547,59.6264535706,verb_norming_L1-swe_no_translation,001,808,
VACKLA,Ben,ben,0,25,25,164,0,1,1,1,7,2.006,,,2018_Sep_13_1547,59.6264535706,verb_norming_L1-swe_no_translation,001,808,
VACKLA,,,0,25,25,164,,,,,,,,,2018_Sep_13_1547,59.6264535706,verb_norming_L1-swe_no_translation,001,808,
SKRIDA,Arm,arm,0,26,26,136,0,0,0,0,2,7.052,,,2018_Sep_13_1547,59.6264535706,verb_norming_L1-swe_no_translation,001,808,
SKRIDA,Ben,ben,0,26,26,136,0,1,1,1,7,0.883,,,2018_Sep_13_1547,59.6264535706,verb_norming_L1-swe_no_translation,001,808,
SKRIDA,,,0,26,26,136,,,,,,,,,2018_Sep_13_1547,59.6264535706,verb_norming_L1-swe_no_translation,001,808,
SKYNDA,Arm,arm,0,27,27,138,0,0,0,0,4,4.553,,,2018_Sep_13_1547,59.6264535706,verb_norming_L1-swe_no_translation,001,808,
SKYNDA,Ben,ben,0,27,27,138,0,1,1,1,7,2.376,,,2018_Sep_13_1547,59.6264535706,verb_norming_L1-swe_no_translation,001,808,
SKYNDA,,,0,27,27,138,,,,,,,,,2018_Sep_13_1547,59.6264535706,verb_norming_L1-swe_no_translation,001,808,
HISSA,Arm,arm,0,28,28,23,0,0,0,0,7,3.447,,,2018_Sep_13_1547,59.6264535706,verb_norming_L1-swe_no_translation,001,808,
HISSA,Ben,ben,0,28,28,23,0,1,1,1,2,2.276,,,2018_Sep_13_1547,59.6264535706,verb_norming_L1-swe_no_translation,001,808,
HISSA,,,0,28,28,23,,,,,,,,,2018_Sep_13_1547,59.6264535706,verb_norming_L1-swe_no_translation,001,808,
BINDA,Arm,arm,0,29,29,2,0,0,0,0,7,2.491,,,2018_Sep_13_1547,59.6264535706,verb_norming_L1-swe_no_translation,001,808,
BINDA,Ben,ben,0,29,29,2,0,1,1,1,2,6.653,,,2018_Sep_13_1547,59.6264535706,verb_norming_L1-swe_no_translation,001,808,
BINDA,,,0,29,29,2,,,,,,,,,2018_Sep_13_1547,59.6264535706,verb_norming_L1-swe_no_translation,001,808,
HALKA,Arm,arm,0,30,30,109,0,0,0,0,6,3.833,,,2018_Sep_13_1547,59.6264535706,verb_norming_L1-swe_no_translation,001,808,
HALKA,Ben,ben,0,30,30,109,0,1,1,1,7,0.985,,,2018_Sep_13_1547,59.6264535706,verb_norming_L1-swe_no_translation,001,808,
HALKA,,,0,30,30,109,,,,,,,,,2018_Sep_13_1547,59.6264535706,verb_norming_L1-swe_no_translation,001,808,
KLIVA,Arm,arm,0,31,31,117,0,0,0,0,1,5.206,,,2018_Sep_13_1547,59.6264535706,verb_norming_L1-swe_no_translation,001,808,
KLIVA,Ben,ben,0,31,31,117,0,1,1,1,7,1.588,,,2018_Sep_13_1547,59.6264535706,verb_norming_L1-swe_no_translation,001,808,
KLIVA,,,0,31,31,117,,,,,,,,,2018_Sep_13_1547,59.6264535706,verb_norming_L1-swe_no_translation,001,808,
MARSCHERA,Arm,arm,0,32,32,127,0,0,0,0,6,3.658,,,2018_Sep_13_1547,59.6264535706,verb_norming_L1-swe_no_translation,001,808,
MARSCHERA,Ben,ben,0,32,32,127,0,1,1,1,7,1.316,,,2018_Sep_13_1547,59.6264535706,verb_norming_L1-swe_no_translation,001,808,
MARSCHERA,,,0,32,32,127,,,,,,,,,2018_Sep_13_1547,59.6264535706,verb_norming_L1-swe_no_translation,001,808,
LÖPA,Arm,arm,0,33,33,125,0,0,0,0,5,4.385,,,2018_Sep_13_1547,59.6264535706,verb_norming_L1-swe_no_translation,001,808,
LÖPA,Ben,ben,0,33,33,125,0,1,1,1,7,1.688,,,2018_Sep_13_1547,59.6264535706,verb_norming_L1-swe_no_translation,001,808,
LÖPA,,,0,33,33,125,,,,,,,,,2018_Sep_13_1547,59.6264535706,verb_norming_L1-swe_no_translation,001,808,
RAFSA,Arm,arm,0,34,34,58,0,0,0,0,7,4.738,,,2018_Sep_13_1547,59.6264535706,verb_norming_L1-swe_no_translation,001,808,
RAFSA,Ben,ben,0,34,34,58,0,1,1,1,1,4.305,,,2018_Sep_13_1547,59.6264535706,verb_norming_L1-swe_no_translation,001,808,
RAFSA,,,0,34,34,58,,,,,,,,,2018_Sep_13_1547,59.6264535706,verb_norming_L1-swe_no_translation,001,808,
TA,Arm,arm,0,35,35,92,0,0,0,0,7,3.08,,,2018_Sep_13_1547,59.6264535706,verb_norming_L1-swe_no_translation,001,808,
TA,Ben,ben,0,35,35,92,0,1,1,1,1,2.445,,,2018_Sep_13_1547,59.6264535706,verb_norming_L1-swe_no_translation,001,808,
TA,,,0,35,35,92,,,,,,,,,2018_Sep_13_1547,59.6264535706,verb_norming_L1-swe_no_translation,001,808,
SKEJTA,Arm,arm,0,36,36,135,0,0,0,0,2,4.097,,,2018_Sep_13_1547,59.6264535706,verb_norming_L1-swe_no_translation,001,808,
SKEJTA,Ben,ben,0,36,36,135,0,1,1,1,7,1.72,,,2018_Sep_13_1547,59.6264535706,verb_norming_L1-swe_no_translation,001,808,
SKEJTA,,,0,36,36,135,,,,,,,,,2018_Sep_13_1547,59.6264535706,verb_norming_L1-swe_no_translation,001,808,
HIVA,Arm,arm,0,37,37,24,0,0,0,0,7,3.497,,,2018_Sep_13_1547,59.6264535706,verb_norming_L1-swe_no_translation,001,808,
HIVA,Ben,ben,0,37,37,24,0,1,1,1,3,4.826,,,2018_Sep_13_1547,59.6264535706,verb_norming_L1-swe_no_translation,001,808,
HIVA,,,0,37,37,24,,,,,,,,,2018_Sep_13_1547,59.6264535706,verb_norming_L1-swe_no_translation,001,808,
HÖJA,Arm,arm,0,38,38,25,0,0,0,0,7,3.428,,,2018_Sep_13_1547,59.6264535706,verb_norming_L1-swe_no_translation,001,808,
HÖJA,Ben,ben,0,38,38,25,0,1,1,1,6,2.727,,,2018_Sep_13_1547,59.6264535706,verb_norming_L1-swe_no_translation,001,808,
HÖJA,,,0,38,38,25,,,,,,,,,2018_Sep_13_1547,59.6264535706,verb_norming_L1-swe_no_translation,001,808,
FILA,Arm,arm,0,39,39,10,0,0,0,0,7,3.481,,,2018_Sep_13_1547,59.6264535706,verb_norming_L1-swe_no_translation,001,808,
FILA,Ben,ben,0,39,39,10,0,1,1,1,2,2.662,,,2018_Sep_13_1547,59.6264535706,verb_norming_L1-swe_no_translation,001,808,
FILA,,,0,39,39,10,,,,,,,,,2018_Sep_13_1547,59.6264535706,verb_norming_L1-swe_no_translation,001,808,
TVÄTTA,Arm,arm,0,40,40,96,0,0,0,0,7,4.083,,,2018_Sep_13_1547,59.6264535706,verb_norming_L1-swe_no_translation,001,808,
TVÄTTA,Ben,ben,0,40,40,96,0,1,1,1,4,3.332,,,2018_Sep_13_1547,59.6264535706,verb_norming_L1-swe_no_translation,001,808,
TVÄTTA,,,0,40,40,96,,,,,,,,,2018_Sep_13_1547,59.6264535706,verb_norming_L1-swe_no_translation,001,808,
SVASSA,Arm,arm,0,41,41,157,0,0,0,0,4,6.968,,,2018_Sep_13_1547,59.6264535706,verb_norming_L1-swe_no_translation,001,808,
SVASSA,Ben,ben,0,41,41,157,0,1,1,1,4,0.733,,,2018_Sep_13_1547,59.6264535706,verb_norming_L1-swe_no_translation,001,808,
SVASSA,,,0,41,41,157,,,,,,,,,2018_Sep_13_1547,59.6264535706,verb_norming_L1-swe_no_translation,001,808,
KNALLA,Arm,arm,0,42,42,119,0,0,0,0,5,5.576,,,2018_Sep_13_1547,59.6264535706,verb_norming_L1-swe_no_translation,001,808,
KNALLA,Ben,ben,0,42,42,119,0,1,1,1,3,2.359,,,2018_Sep_13_1547,59.6264535706,verb_norming_L1-swe_no_translation,001,808,
KNALLA,,,0,42,42,119,,,,,,,,,2018_Sep_13_1547,59.6264535706,verb_norming_L1-swe_no_translation,001,808,
CYKLA,Arm,arm,0,43,43,101,0,0,0,0,5,7.94,,,2018_Sep_13_1547,59.6264535706,verb_norming_L1-swe_no_translation,001,808,
CYKLA,Ben,ben,0,43,43,101,0,1,1,1,7,3.934,,,2018_Sep_13_1547,59.6264535706,verb_norming_L1-swe_no_translation,001,808,
CYKLA,,,0,43,43,101,,,,,,,,,2018_Sep_13_1547,59.6264535706,verb_norming_L1-swe_no_translation,001,808,
PETA,Arm,arm,0,44,44,50,0,0,0,0,7,3.464,,,2018_Sep_13_1547,59.6264535706,verb_norming_L1-swe_no_translation,001,808,
PETA,Ben,ben,0,44,44,50,0,1,1,1,1,2.276,,,2018_Sep_13_1547,59.6264535706,verb_norming_L1-swe_no_translation,001,808,
PETA,,,0,44,44,50,,,,,,,,,2018_Sep_13_1547,59.6264535706,verb_norming_L1-swe_no_translation,001,808,
PROMENERA,Arm,arm,0,45,45,129,0,0,0,0,5,3.73,,,2018_Sep_13_1547,59.6264535706,verb_norming_L1-swe_no_translation,001,808,
PROMENERA,Ben,ben,0,45,45,129,0,1,1,1,7,1.67,,,2018_Sep_13_1547,59.6264535706,verb_norming_L1-swe_no_translation,001,808,
PROMENERA,,,0,45,45,129,,,,,,,,,2018_Sep_13_1547,59.6264535706,verb_norming_L1-swe_no_translation,001,808,
PISKA,Arm,arm,0,46,46,52,0,0,0,0,7,3.112,,,2018_Sep_13_1547,59.6264535706,verb_norming_L1-swe_no_translation,001,808,
PISKA,Ben,ben,0,46,46,52,0,1,1,1,2,3.618,,,2018_Sep_13_1547,59.6264535706,verb_norming_L1-swe_no_translation,001,808,
PISKA,,,0,46,46,52,,,,,,,,,2018_Sep_13_1547,59.6264535706,verb_norming_L1-swe_no_translation,001,808,
GNIDA,Arm,arm,0,47,47,14,0,0,0,0,7,5.408,,,2018_Sep_13_1547,59.6264535706,verb_norming_L1-swe_no_translation,001,808,
GNIDA,Ben,ben,0,47,47,14,0,1,1,1,4,3.079,,,2018_Sep_13_1547,59.6264535706,verb_norming_L1-swe_no_translation,001,808,
GNIDA,,,0,47,47,14,,,,,,,,,2018_Sep_13_1547,59.6264535706,verb_norming_L1-swe_no_translation,001,808,
PILLA,Arm,arm,0,48,48,51,0,0,0,0,7,9.015,,,2018_Sep_13_1547,59.6264535706,verb_norming_L1-swe_no_translation,001,808,
PILLA,Ben,ben,0,48,48,51,0,1,1,1,3,4.07,,,2018_Sep_13_1547,59.6264535706,verb_norming_L1-swe_no_translation,001,808,
PILLA,,,0,48,48,51,,,,,,,,,2018_Sep_13_1547,59.6264535706,verb_norming_L1-swe_no_translation,001,808,
STÖTA,Arm,arm,0,49,49,89,0,0,0,0,7,2.322,,,2018_Sep_13_1547,59.6264535706,verb_norming_L1-swe_no_translation,001,808,
STÖTA,Ben,ben,0,49,49,89,0,1,1,1,2,2.643,,,2018_Sep_13_1547,59.6264535706,verb_norming_L1-swe_no_translation,001,808,
STÖTA,,,0,49,49,89,,,,,,,,,2018_Sep_13_1547,59.6264535706,verb_norming_L1-swe_no_translation,001,808,
GNUGGA,Arm,arm,0,50,50,15,0,0,0,0,7,2.338,,,2018_Sep_13_1547,59.6264535706,verb_norming_L1-swe_no_translation,001,808,
GNUGGA,Ben,ben,0,50,50,15,0,1,1,1,2,4.017,,,2018_Sep_13_1547,59.6264535706,verb_norming_L1-swe_no_translation,001,808,
GNUGGA,,,0,50,50,15,,,,,,,,,2018_Sep_13_1547,59.6264535706,verb_norming_L1-swe_no_translation,001,808,
SIGNERA,Arm,arm,0,51,51,68,0,0,0,0,7,2.186,,,2018_Sep_13_1547,59.6264535706,verb_norming_L1-swe_no_translation,001,808,
SIGNERA,Ben,ben,0,51,51,68,0,1,1,1,1,2.089,,,2018_Sep_13_1547,59.6264535706,verb_norming_L1-swe_no_translation,001,808,
SIGNERA,,,0,51,51,68,,,,,,,,,2018_Sep_13_1547,59.6264535706,verb_norming_L1-swe_no_translation,001,808,
SLITA,Arm,arm,0,52,52,82,0,0,0,0,5,5.023,,,2018_Sep_13_1547,59.6264535706,verb_norming_L1-swe_no_translation,001,808,
SLITA,Ben,ben,0,52,52,82,0,1,1,1,2,10.326,,,2018_Sep_13_1547,59.6264535706,verb_norming_L1-swe_no_translation,001,808,
SLITA,,,0,52,52,82,,,,,,,,,2018_Sep_13_1547,59.6264535706,verb_norming_L1-swe_no_translation,001,808,
STAPPLA,Arm,arm,0,53,53,149,0,0,0,0,4,3.63,,,2018_Sep_13_1547,59.6264535706,verb_norming_L1-swe_no_translation,001,808,
STAPPLA,Ben,ben,0,53,53,149,0,1,1,1,7,1.0,,,2018_Sep_13_1547,59.6264535706,verb_norming_L1-swe_no_translation,001,808,
STAPPLA,,,0,53,53,149,,,,,,,,,2018_Sep_13_1547,59.6264535706,verb_norming_L1-swe_no_translation,001,808,
SLÄNTRA,Arm,arm,0,54,54,139,0,0,0,0,3,5.022,,,2018_Sep_13_1547,59.6264535706,verb_norming_L1-swe_no_translation,001,808,
SLÄNTRA,Ben,ben,0,54,54,139,0,1,1,1,6,0.95,,,2018_Sep_13_1547,59.6264535706,verb_norming_L1-swe_no_translation,001,808,
SLÄNTRA,,,0,54,54,139,,,,,,,,,2018_Sep_13_1547,59.6264535706,verb_norming_L1-swe_no_translation,001,808,
SKJUTA,Arm,arm,0,55,55,72,0,0,0,0,7,3.545,,,2018_Sep_13_1547,59.6264535706,verb_norming_L1-swe_no_translation,001,808,
SKJUTA,Ben,ben,0,55,55,72,0,1,1,1,2,2.828,,,2018_Sep_13_1547,59.6264535706,verb_norming_L1-swe_no_translation,001,808,
SKJUTA,,,0,55,55,72,,,,,,,,,2018_Sep_13_1547,59.6264535706,verb_norming_L1-swe_no_translation,001,808,
GUPPA,Arm,arm,0,56,56,108,0,0,0,0,5,4.938,,,2018_Sep_13_1547,59.6264535706,verb_norming_L1-swe_no_translation,001,808,
GUPPA,Ben,ben,0,56,56,108,0,1,1,1,5,2.794,,,2018_Sep_13_1547,59.6264535706,verb_norming_L1-swe_no_translation,001,808,
GUPPA,,,0,56,56,108,,,,,,,,,2018_Sep_13_1547,59.6264535706,verb_norming_L1-swe_no_translation,001,808,
SNAVA,Arm,arm,0,57,57,142,0,0,0,0,6,4.655,,,2018_Sep_13_1547,59.6264535706,verb_norming_L1-swe_no_translation,001,808,
SNAVA,Ben,ben,0,57,57,142,0,1,1,1,7,0.934,,,2018_Sep_13_1547,59.6264535706,verb_norming_L1-swe_no_translation,001,808,
SNAVA,,,0,57,57,142,,,,,,,,,2018_Sep_13_1547,59.6264535706,verb_norming_L1-swe_no_translation,001,808,
KLIPPA,Arm,arm,0,58,58,34,0,0,0,0,7,2.759,,,2018_Sep_13_1547,59.6264535706,verb_norming_L1-swe_no_translation,001,808,
KLIPPA,Ben,ben,0,58,58,34,0,1,1,1,2,1.956,,,2018_Sep_13_1547,59.6264535706,verb_norming_L1-swe_no_translation,001,808,
KLIPPA,,,0,58,58,34,,,,,,,,,2018_Sep_13_1547,59.6264535706,verb_norming_L1-swe_no_translation,001,808,
BADDA,Arm,arm,0,59,59,0,0,0,0,0,7,3.682,,,2018_Sep_13_1547,59.6264535706,verb_norming_L1-swe_no_translation,001,808,
BADDA,Ben,ben,0,59,59,0,0,1,1,1,7,2.812,,,2018_Sep_13_1547,59.6264535706,verb_norming_L1-swe_no_translation,001,808,
BADDA,,,0,59,59,0,,,,,,,,,2018_Sep_13_1547,59.6264535706,verb_norming_L1-swe_no_translation,001,808,
DANSA,Arm,arm,0,60,60,102,0,0,0,0,5,3.665,,,2018_Sep_13_1547,59.6264535706,verb_norming_L1-swe_no_translation,001,808,
DANSA,Ben,ben,0,60,60,102,0,1,1,1,7,1.337,,,2018_Sep_13_1547,59.6264535706,verb_norming_L1-swe_no_translation,001,808,
DANSA,,,0,60,60,102,,,,,,,,,2018_Sep_13_1547,59.6264535706,verb_norming_L1-swe_no_translation,001,808,
TRIPPA,Arm,arm,0,61,61,163,0,0,0,0,2,13.392,,,2018_Sep_13_1547,59.6264535706,verb_norming_L1-swe_no_translation,001,808,
TRIPPA,Ben,ben,0,61,61,163,0,1,1,1,7,5.076,,,2018_Sep_13_1547,59.6264535706,verb_norming_L1-swe_no_translation,001,808,
TRIPPA,,,0,61,61,163,,,,,,,,,2018_Sep_13_1547,59.6264535706,verb_norming_L1-swe_no_translation,001,808,
SNO,Arm,arm,0,62,62,87,0,0,0,0,6,3.8,,,2018_Sep_13_1547,59.6264535706,verb_norming_L1-swe_no_translation,001,808,
SNO,Ben,ben,0,62,62,87,0,1,1,1,2,2.679,,,2018_Sep_13_1547,59.6264535706,verb_norming_L1-swe_no_translation,001,808,
SNO,,,0,62,62,87,,,,,,,,,2018_Sep_13_1547,59.6264535706,verb_norming_L1-swe_no_translation,001,808,
SPRINGA,Arm,arm,0,63,63,145,0,0,0,0,5,3.897,,,2018_Sep_13_1547,59.6264535706,verb_norming_L1-swe_no_translation,001,808,
SPRINGA,Ben,ben,0,63,63,145,0,1,1,1,7,1.603,,,2018_Sep_13_1547,59.6264535706,verb_norming_L1-swe_no_translation,001,808,
SPRINGA,,,0,63,63,145,,,,,,,,,2018_Sep_13_1547,59.6264535706,verb_norming_L1-swe_no_translation,001,808,
STÄDA,Arm,arm,0,64,64,88,0,0,0,0,7,3.195,,,2018_Sep_13_1547,59.6264535706,verb_norming_L1-swe_no_translation,001,808,
STÄDA,Ben,ben,0,64,64,88,0,1,1,1,3,3.232,,,2018_Sep_13_1547,59.6264535706,verb_norming_L1-swe_no_translation,001,808,
STÄDA,,,0,64,64,88,,,,,,,,,2018_Sep_13_1547,59.6264535706,verb_norming_L1-swe_no_translation,001,808,
PRESSA,Arm,arm,0,65,65,55,0,0,0,0,7,2.39,,,2018_Sep_13_1547,59.6264535706,verb_norming_L1-swe_no_translation,001,808,
PRESSA,Ben,ben,0,65,65,55,0,1,1,1,2,2.644,,,2018_Sep_13_1547,59.6264535706,verb_norming_L1-swe_no_translation,001,808,
PRESSA,,,0,65,65,55,,,,,,,,,2018_Sep_13_1547,59.6264535706,verb_norming_L1-swe_no_translation,001,808,
KARVA,Arm,arm,0,66,66,26,0,0,0,0,7,2.491,,,2018_Sep_13_1547,59.6264535706,verb_norming_L1-swe_no_translation,001,808,
KARVA,Ben,ben,0,66,66,26,0,1,1,1,1,5.244,,,2018_Sep_13_1547,59.6264535706,verb_norming_L1-swe_no_translation,001,808,
KARVA,,,0,66,66,26,,,,,,,,,2018_Sep_13_1547,59.6264535706,verb_norming_L1-swe_no_translation,001,808,
GREPPA,Arm,arm,0,67,67,18,0,0,0,0,7,1.935,,,2018_Sep_13_1547,59.6264535706,verb_norming_L1-swe_no_translation,001,808,
GREPPA,Ben,ben,0,67,67,18,0,1,1,1,2,2.878,,,2018_Sep_13_1547,59.6264535706,verb_norming_L1-swe_no_translation,001,808,
GREPPA,,,0,67,67,18,,,,,,,,,2018_Sep_13_1547,59.6264535706,verb_norming_L1-swe_no_translation,001,808,
SLEVA,Arm,arm,0,68,68,80,0,0,0,0,7,2.759,,,2018_Sep_13_1547,59.6264535706,verb_norming_L1-swe_no_translation,001,808,
SLEVA,Ben,ben,0,68,68,80,0,1,1,1,1,3.769,,,2018_Sep_13_1547,59.6264535706,verb_norming_L1-swe_no_translation,001,808,
SLEVA,,,0,68,68,80,,,,,,,,,2018_Sep_13_1547,59.6264535706,verb_norming_L1-swe_no_translation,001,808,
STRUTTA,Arm,arm,0,69,69,154,0,0,0,0,3,4.804,,,2018_Sep_13_1547,59.6264535706,verb_norming_L1-swe_no_translation,001,808,
STRUTTA,Ben,ben,0,69,69,154,0,1,1,1,7,0.933,,,2018_Sep_13_1547,59.6264535706,verb_norming_L1-swe_no_translation,001,808,
STRUTTA,,,0,69,69,154,,,,,,,,,2018_Sep_13_1547,59.6264535706,verb_norming_L1-swe_no_translation,001,808,
GRÄVA,Arm,arm,0,70,70,17,0,0,0,0,7,2.64,,,2018_Sep_13_1547,59.6264535706,verb_norming_L1-swe_no_translation,001,808,
GRÄVA,Ben,ben,0,70,70,17,0,1,1,1,3,4.857,,,2018_Sep_13_1547,59.6264535706,verb_norming_L1-swe_no_translation,001,808,
GRÄVA,,,0,70,70,17,,,,,,,,,2018_Sep_13_1547,59.6264535706,verb_norming_L1-swe_no_translation,001,808,
RASPA,Arm,arm,0,71,71,60,0,0,0,0,7,2.205,,,2018_Sep_13_1547,59.6264535706,verb_norming_L1-swe_no_translation,001,808,
RASPA,Ben,ben,0,71,71,60,0,1,1,1,2,3.818,,,2018_Sep_13_1547,59.6264535706,verb_norming_L1-swe_no_translation,001,808,
RASPA,,,0,71,71,60,,,,,,,,,2018_Sep_13_1547,59.6264535706,verb_norming_L1-swe_no_translation,001,808,
ROTA,Arm,arm,0,72,72,66,0,0,0,0,7,3.028,,,2018_Sep_13_1547,59.6264535706,verb_norming_L1-swe_no_translation,001,808,
ROTA,Ben,ben,0,72,72,66,0,1,1,1,2,1.857,,,2018_Sep_13_1547,59.6264535706,verb_norming_L1-swe_no_translation,001,808,
ROTA,,,0,72,72,66,,,,,,,,,2018_Sep_13_1547,59.6264535706,verb_norming_L1-swe_no_translation,001,808,
NAPPA,Arm,arm,0,73,73,45,0,0,0,0,7,2.843,,,2018_Sep_13_1547,59.6264535706,verb_norming_L1-swe_no_translation,001,808,
NAPPA,Ben,ben,0,73,73,45,0,1,1,1,2,6.234,,,2018_Sep_13_1547,59.6264535706,verb_norming_L1-swe_no_translation,001,808,
NAPPA,,,0,73,73,45,,,,,,,,,2018_Sep_13_1547,59.6264535706,verb_norming_L1-swe_no_translation,001,808,
FÅNGA,Arm,arm,0,74,74,8,0,0,0,0,7,2.841,,,2018_Sep_13_1547,59.6264535706,verb_norming_L1-swe_no_translation,001,808,
FÅNGA,Ben,ben,0,74,74,8,0,1,1,1,2,2.324,,,2018_Sep_13_1547,59.6264535706,verb_norming_L1-swe_no_translation,001,808,
FÅNGA,,,0,74,74,8,,,,,,,,,2018_Sep_13_1547,59.6264535706,verb_norming_L1-swe_no_translation,001,808,
STAMPA,Arm,arm,0,75,75,148,0,0,0,0,7,5.241,,,2018_Sep_13_1547,59.6264535706,verb_norming_L1-swe_no_translation,001,808,
STAMPA,Ben,ben,0,75,75,148,0,1,1,1,7,3.567,,,2018_Sep_13_1547,59.6264535706,verb_norming_L1-swe_no_translation,001,808,
STAMPA,,,0,75,75,148,,,,,,,,,2018_Sep_13_1547,59.6264535706,verb_norming_L1-swe_no_translation,001,808,
SLINTA,Arm,arm,0,76,76,140,0,0,0,0,4,2.44,,,2018_Sep_13_1547,59.6264535706,verb_norming_L1-swe_no_translation,001,808,
SLINTA,Ben,ben,0,76,76,140,0,1,1,1,6,8.212,,,2018_Sep_13_1547,59.6264535706,verb_norming_L1-swe_no_translation,001,808,
SLINTA,,,0,76,76,140,,,,,,,,,2018_Sep_13_1547,59.6264535706,verb_norming_L1-swe_no_translation,001,808,
HAFFA,Arm,arm,0,77,77,21,0,0,0,0,5,4.017,,,2018_Sep_13_1547,59.6264535706,verb_norming_L1-swe_no_translation,001,808,
HAFFA,Ben,ben,0,77,77,21,0,1,1,1,4,3.415,,,2018_Sep_13_1547,59.6264535706,verb_norming_L1-swe_no_translation,001,808,
HAFFA,,,0,77,77,21,,,,,,,,,2018_Sep_13_1547,59.6264535706,verb_norming_L1-swe_no_translation,001,808,
PLOCKA,Arm,arm,0,78,78,53,0,0,0,0,7,1.985,,,2018_Sep_13_1547,59.6264535706,verb_norming_L1-swe_no_translation,001,808,
PLOCKA,Ben,ben,0,78,78,53,0,1,1,1,2,2.122,,,2018_Sep_13_1547,59.6264535706,verb_norming_L1-swe_no_translation,001,808,
PLOCKA,,,0,78,78,53,,,,,,,,,2018_Sep_13_1547,59.6264535706,verb_norming_L1-swe_no_translation,001,808,
ÅLA,Arm,arm,0,79,79,100,0,0,0,0,6,4.286,,,2018_Sep_13_1547,59.6264535706,verb_norming_L1-swe_no_translation,001,808,
ÅLA,Ben,ben,0,79,79,100,0,1,1,1,6,1.605,,,2018_Sep_13_1547,59.6264535706,verb_norming_L1-swe_no_translation,001,808,
ÅLA,,,0,79,79,100,,,,,,,,,2018_Sep_13_1547,59.6264535706,verb_norming_L1-swe_no_translation,001,808,
STUDSA,Arm,arm,0,80,80,155,0,0,0,0,7,2.641,,,2018_Sep_13_1547,59.6264535706,verb_norming_L1-swe_no_translation,001,808,
STUDSA,Ben,ben,0,80,80,155,0,1,1,1,1,3.114,,,2018_Sep_13_1547,59.6264535706,verb_norming_L1-swe_no_translation,001,808,
STUDSA,,,0,80,80,155,,,,,,,,,2018_Sep_13_1547,59.6264535706,verb_norming_L1-swe_no_translation,001,808,
KLICKA,Arm,arm,0,81,81,33,0,0,0,0,6,7.033,,,2018_Sep_13_1547,59.6264535706,verb_norming_L1-swe_no_translation,001,808,
KLICKA,Ben,ben,0,81,81,33,0,1,1,1,1,1.217,,,2018_Sep_13_1547,59.6264535706,verb_norming_L1-swe_no_translation,001,808,
KLICKA,,,0,81,81,33,,,,,,,,,2018_Sep_13_1547,59.6264535706,verb_norming_L1-swe_no_translation,001,808,
SNÄRTA,Arm,arm,0,82,82,86,0,0,0,0,7,2.706,,,2018_Sep_13_1547,59.6264535706,verb_norming_L1-swe_no_translation,001,808,
SNÄRTA,Ben,ben,0,82,82,86,0,1,1,1,1,2.208,,,2018_Sep_13_1547,59.6264535706,verb_norming_L1-swe_no_translation,001,808,
SNÄRTA,,,0,82,82,86,,,,,,,,,2018_Sep_13_1547,59.6264535706,verb_norming_L1-swe_no_translation,001,808,
KLÄMMA,Arm,arm,0,83,83,30,0,0,0,0,7,14.498,,,2018_Sep_13_1547,59.6264535706,verb_norming_L1-swe_no_translation,001,808,
KLÄMMA,Ben,ben,0,83,83,30,0,1,1,1,5,1.889,,,2018_Sep_13_1547,59.6264535706,verb_norming_L1-swe_no_translation,001,808,
KLÄMMA,,,0,83,83,30,,,,,,,,,2018_Sep_13_1547,59.6264535706,verb_norming_L1-swe_no_translation,001,808,
VINGLA,Arm,arm,0,84,84,168,0,0,0,0,4,2.992,,,2018_Sep_13_1547,59.6264535706,verb_norming_L1-swe_no_translation,001,808,
VINGLA,Ben,ben,0,84,84,168,0,1,1,1,7,0.597,,,2018_Sep_13_1547,59.6264535706,verb_norming_L1-swe_no_translation,001,808,
VINGLA,,,0,84,84,168,,,,,,,,,2018_Sep_13_1547,59.6264535706,verb_norming_L1-swe_no_translation,001,808,
SVAJA,Arm,arm,0,85,85,156,0,0,0,0,6,3.026,,,2018_Sep_13_1547,59.6264535706,verb_norming_L1-swe_no_translation,001,808,
SVAJA,Ben,ben,0,85,85,156,0,1,1,1,3,1.922,,,2018_Sep_13_1547,59.6264535706,verb_norming_L1-swe_no_translation,001,808,
SVAJA,,,0,85,85,156,,,,,,,,,2018_Sep_13_1547,59.6264535706,verb_norming_L1-swe_no_translation,001,808,
KRAMA,Arm,arm,0,86,86,41,0,0,0,0,7,2.457,,,2018_Sep_13_1547,59.6264535706,verb_norming_L1-swe_no_translation,001,808,
KRAMA,Ben,ben,0,86,86,41,0,1,1,1,4,8.263,,,2018_Sep_13_1547,59.6264535706,verb_norming_L1-swe_no_translation,001,808,
KRAMA,,,0,86,86,41,,,,,,,,,2018_Sep_13_1547,59.6264535706,verb_norming_L1-swe_no_translation,001,808,
KNIVHUGGA,Arm,arm,0,87,87,38,0,0,0,0,7,6.428,,,2018_Sep_13_1547,59.6264535706,verb_norming_L1-swe_no_translation,001,808,
KNIVHUGGA,Ben,ben,0,87,87,38,0,1,1,1,3,2.139,,,2018_Sep_13_1547,59.6264535706,verb_norming_L1-swe_no_translation,001,808,
KNIVHUGGA,,,0,87,87,38,,,,,,,,,2018_Sep_13_1547,59.6264535706,verb_norming_L1-swe_no_translation,001,808,
SLUNGA,Arm,arm,0,88,88,83,0,0,0,0,7,2.74,,,2018_Sep_13_1547,59.6264535706,verb_norming_L1-swe_no_translation,001,808,
SLUNGA,Ben,ben,0,88,88,83,0,1,1,1,1,2.844,,,2018_Sep_13_1547,59.6264535706,verb_norming_L1-swe_no_translation,001,808,
SLUNGA,,,0,88,88,83,,,,,,,,,2018_Sep_13_1547,59.6264535706,verb_norming_L1-swe_no_translation,001,808,
PINNA,Arm,arm,0,89,89,128,0,0,0,0,4,9.77,,,2018_Sep_13_1547,59.6264535706,verb_norming_L1-swe_no_translation,001,808,
PINNA,Ben,ben,0,89,89,128,0,1,1,1,4,0.565,,,2018_Sep_13_1547,59.6264535706,verb_norming_L1-swe_no_translation,001,808,
PINNA,,,0,89,89,128,,,,,,,,,2018_Sep_13_1547,59.6264535706,verb_norming_L1-swe_no_translation,001,808,
RULLA,Arm,arm,0,90,90,132,0,0,0,0,6,3.933,,,2018_Sep_13_1547,59.6264535706,verb_norming_L1-swe_no_translation,001,808,
RULLA,Ben,ben,0,90,90,132,0,1,1,1,5,5.932,,,2018_Sep_13_1547,59.6264535706,verb_norming_L1-swe_no_translation,001,808,
RULLA,,,0,90,90,132,,,,,,,,,2018_Sep_13_1547,59.6264535706,verb_norming_L1-swe_no_translation,001,808,
HÅVA,Arm,arm,0,91,91,22,0,0,0,0,7,4.068,,,2018_Sep_13_1547,59.6264535706,verb_norming_L1-swe_no_translation,001,808,
HÅVA,Ben,ben,0,91,91,22,0,1,1,1,4,2.494,,,2018_Sep_13_1547,59.6264535706,verb_norming_L1-swe_no_translation,001,808,
HÅVA,,,0,91,91,22,,,,,,,,,2018_Sep_13_1547,59.6264535706,verb_norming_L1-swe_no_translation,001,808,
BORSTA,Arm,arm,0,92,92,3,0,0,0,0,7,2.96,,,2018_Sep_13_1547,59.6264535706,verb_norming_L1-swe_no_translation,001,808,
BORSTA,Ben,ben,0,92,92,3,0,1,1,1,2,2.125,,,2018_Sep_13_1547,59.6264535706,verb_norming_L1-swe_no_translation,001,808,
BORSTA,,,0,92,92,3,,,,,,,,,2018_Sep_13_1547,59.6264535706,verb_norming_L1-swe_no_translation,001,808,
KLÖSA,Arm,arm,0,93,93,35,0,0,0,0,7,2.925,,,2018_Sep_13_1547,59.6264535706,verb_norming_L1-swe_no_translation,001,808,
KLÖSA,Ben,ben,0,93,93,35,0,1,1,1,1,4.603,,,2018_Sep_13_1547,59.6264535706,verb_norming_L1-swe_no_translation,001,808,
KLÖSA,,,0,93,93,35,,,,,,,,,2018_Sep_13_1547,59.6264535706,verb_norming_L1-swe_no_translation,001,808,
DUNKA,Arm,arm,0,94,94,7,0,0,0,0,7,5.946,,,2018_Sep_13_1547,59.6264535706,verb_norming_L1-swe_no_translation,001,808,
DUNKA,Ben,ben,0,94,94,7,0,1,1,1,1,2.628,,,2018_Sep_13_1547,59.6264535706,verb_norming_L1-swe_no_translation,001,808,
DUNKA,,,0,94,94,7,,,,,,,,,2018_Sep_13_1547,59.6264535706,verb_norming_L1-swe_no_translation,001,808,
GRIPA,Arm,arm,0,95,95,19,0,0,0,0,7,2.943,,,2018_Sep_13_1547,59.6264535706,verb_norming_L1-swe_no_translation,001,808,
GRIPA,Ben,ben,0,95,95,19,0,1,1,1,2,1.939,,,2018_Sep_13_1547,59.6264535706,verb_norming_L1-swe_no_translation,001,808,
GRIPA,,,0,95,95,19,,,,,,,,,2018_Sep_13_1547,59.6264535706,verb_norming_L1-swe_no_translation,001,808,
RIVA,Arm,arm,0,96,96,63,0,0,0,0,7,3.011,,,2018_Sep_13_1547,59.6264535706,verb_norming_L1-swe_no_translation,001,808,
RIVA,Ben,ben,0,96,96,63,0,1,1,1,2,6.1,,,2018_Sep_13_1547,59.6264535706,verb_norming_L1-swe_no_translation,001,808,
RIVA,,,0,96,96,63,,,,,,,,,2018_Sep_13_1547,59.6264535706,verb_norming_L1-swe_no_translation,001,808,
KNACKA,Arm,arm,0,97,97,36,0,0,0,0,7,3.143,,,2018_Sep_13_1547,59.6264535706,verb_norming_L1-swe_no_translation,001,808,
KNACKA,Ben,ben,0,97,97,36,0,1,1,1,1,3.112,,,2018_Sep_13_1547,59.6264535706,verb_norming_L1-swe_no_translation,001,808,
KNACKA,,,0,97,97,36,,,,,,,,,2018_Sep_13_1547,59.6264535706,verb_norming_L1-swe_no_translation,001,808,
LINDA,Arm,arm,0,98,98,43,0,0,0,0,7,3.648,,,2018_Sep_13_1547,59.6264535706,verb_norming_L1-swe_no_translation,001,808,
LINDA,Ben,ben,0,98,98,43,0,1,1,1,3,4.339,,,2018_Sep_13_1547,59.6264535706,verb_norming_L1-swe_no_translation,001,808,
LINDA,,,0,98,98,43,,,,,,,,,2018_Sep_13_1547,59.6264535706,verb_norming_L1-swe_no_translation,001,808,
FÖSA,Arm,arm,0,99,99,12,0,0,0,0,7,2.909,,,2018_Sep_13_1547,59.6264535706,verb_norming_L1-swe_no_translation,001,808,
FÖSA,Ben,ben,0,99,99,12,0,1,1,1,2,4.136,,,2018_Sep_13_1547,59.6264535706,verb_norming_L1-swe_no_translation,001,808,
FÖSA,,,0,99,99,12,,,,,,,,,2018_Sep_13_1547,59.6264535706,verb_norming_L1-swe_no_translation,001,808,
FLY,Arm,arm,0,100,100,105,0,0,0,0,6,6.215,,,2018_Sep_13_1547,59.6264535706,verb_norming_L1-swe_no_translation,001,808,
FLY,Ben,ben,0,100,100,105,0,1,1,1,7,1.875,,,2018_Sep_13_1547,59.6264535706,verb_norming_L1-swe_no_translation,001,808,
FLY,,,0,100,100,105,,,,,,,,,2018_Sep_13_1547,59.6264535706,verb_norming_L1-swe_no_translation,001,808,
HACKA,Arm,arm,0,101,101,20,0,0,0,0,7,2.455,,,2018_Sep_13_1547,59.6264535706,verb_norming_L1-swe_no_translation,001,808,
HACKA,Ben,ben,0,101,101,20,0,1,1,1,1,3.7,,,2018_Sep_13_1547,59.6264535706,verb_norming_L1-swe_no_translation,001,808,
HACKA,,,0,101,101,20,,,,,,,,,2018_Sep_13_1547,59.6264535706,verb_norming_L1-swe_no_translation,001,808,
TRAMPA,Arm,arm,0,102,102,161,0,0,0,0,2,4.117,,,2018_Sep_13_1547,59.6264535706,verb_norming_L1-swe_no_translation,001,808,
TRAMPA,Ben,ben,0,102,102,161,0,1,1,1,7,1.152,,,2018_Sep_13_1547,59.6264535706,verb_norming_L1-swe_no_translation,001,808,
TRAMPA,,,0,102,102,161,,,,,,,,,2018_Sep_13_1547,59.6264535706,verb_norming_L1-swe_no_translation,001,808,
RULTA,Arm,arm,0,103,103,133,0,0,0,0,4,3.413,,,2018_Sep_13_1547,59.6264535706,verb_norming_L1-swe_no_translation,001,808,
RULTA,Ben,ben,0,103,103,133,0,1,1,1,4,0.465,,,2018_Sep_13_1547,59.6264535706,verb_norming_L1-swe_no_translation,001,808,
RULTA,,,0,103,103,133,,,,,,,,,2018_Sep_13_1547,59.6264535706,verb_norming_L1-swe_no_translation,001,808,
SPARKA,Arm,arm,0,104,104,144,0,0,0,0,1,4.537,,,2018_Sep_13_1547,59.6264535706,verb_norming_L1-swe_no_translation,001,808,
SPARKA,Ben,ben,0,104,104,144,0,1,1,1,7,2.223,,,2018_Sep_13_1547,59.6264535706,verb_norming_L1-swe_no_translation,001,808,
SPARKA,,,0,104,104,144,,,,,,,,,2018_Sep_13_1547,59.6264535706,verb_norming_L1-swe_no_translation,001,808,
LYFTA,Arm,arm,0,105,105,44,0,0,0,0,7,5.024,,,2018_Sep_13_1547,59.6264535706,verb_norming_L1-swe_no_translation,001,808,
LYFTA,Ben,ben,0,105,105,44,0,1,1,1,7,2.276,,,2018_Sep_13_1547,59.6264535706,verb_norming_L1-swe_no_translation,001,808,
LYFTA,,,0,105,105,44,,,,,,,,,2018_Sep_13_1547,59.6264535706,verb_norming_L1-swe_no_translation,001,808,
RÖRA,Arm,arm,0,106,106,65,0,0,0,0,6,4.385,,,2018_Sep_13_1547,59.6264535706,verb_norming_L1-swe_no_translation,001,808,
RÖRA,Ben,ben,0,106,106,65,0,1,1,1,2,2.425,,,2018_Sep_13_1547,59.6264535706,verb_norming_L1-swe_no_translation,001,808,
RÖRA,,,0,106,106,65,,,,,,,,,2018_Sep_13_1547,59.6264535706,verb_norming_L1-swe_no_translation,001,808,
BANKA,Arm,arm,0,107,107,1,0,0,0,0,7,2.238,,,2018_Sep_13_1547,59.6264535706,verb_norming_L1-swe_no_translation,001,808,
BANKA,Ben,ben,0,107,107,1,0,1,1,1,1,7.894,,,2018_Sep_13_1547,59.6264535706,verb_norming_L1-swe_no_translation,001,808,
BANKA,,,0,107,107,1,,,,,,,,,2018_Sep_13_1547,59.6264535706,verb_norming_L1-swe_no_translation,001,808,
GESTIKULERA,Arm,arm,0,108,108,13,0,0,0,0,7,3.157,,,2018_Sep_13_1547,59.6264535706,verb_norming_L1-swe_no_translation,001,808,
GESTIKULERA,Ben,ben,0,108,108,13,0,1,1,1,1,2.171,,,2018_Sep_13_1547,59.6264535706,verb_norming_L1-swe_no_translation,001,808,
GESTIKULERA,,,0,108,108,13,,,,,,,,,2018_Sep_13_1547,59.6264535706,verb_norming_L1-swe_no_translation,001,808,
SMYGA,Arm,arm,0,109,109,141,0,0,0,0,3,6.01,,,2018_Sep_13_1547,59.6264535706,verb_norming_L1-swe_no_translation,001,808,
SMYGA,Ben,ben,0,109,109,141,0,1,1,1,7,2.073,,,2018_Sep_13_1547,59.6264535706,verb_norming_L1-swe_no_translation,001,808,
SMYGA,,,0,109,109,141,,,,,,,,,2018_Sep_13_1547,59.6264535706,verb_norming_L1-swe_no_translation,001,808,
VANKA,Arm,arm,0,110,110,167,0,0,0,0,3,4.151,,,2018_Sep_13_1547,59.6264535706,verb_norming_L1-swe_no_translation,001,808,
VANKA,Ben,ben,0,110,110,167,0,1,1,1,7,2.829,,,2018_Sep_13_1547,59.6264535706,verb_norming_L1-swe_no_translation,001,808,
VANKA,,,0,110,110,167,,,,,,,,,2018_Sep_13_1547,59.6264535706,verb_norming_L1-swe_no_translation,001,808,
DRA,Arm,arm,0,111,111,6,0,0,0,0,7,9.133,,,2018_Sep_13_1547,59.6264535706,verb_norming_L1-swe_no_translation,001,808,
DRA,Ben,ben,0,111,111,6,0,1,1,1,2,12.641,,,2018_Sep_13_1547,59.6264535706,verb_norming_L1-swe_no_translation,001,808,
DRA,,,0,111,111,6,,,,,,,,,2018_Sep_13_1547,59.6264535706,verb_norming_L1-swe_no_translation,001,808,
HALTA,Arm,arm,0,112,112,110,0,0,0,0,2,3.363,,,2018_Sep_13_1547,59.6264535706,verb_norming_L1-swe_no_translation,001,808,
HALTA,Ben,ben,0,112,112,110,0,1,1,1,7,1.102,,,2018_Sep_13_1547,59.6264535706,verb_norming_L1-swe_no_translation,001,808,
HALTA,,,0,112,112,110,,,,,,,,,2018_Sep_13_1547,59.6264535706,verb_norming_L1-swe_no_translation,001,808,
LINKA,Arm,arm,0,113,113,124,0,0,0,0,2,2.809,,,2018_Sep_13_1547,59.6264535706,verb_norming_L1-swe_no_translation,001,808,
LINKA,Ben,ben,0,113,113,124,0,1,1,1,7,0.884,,,2018_Sep_13_1547,59.6264535706,verb_norming_L1-swe_no_translation,001,808,
LINKA,,,0,113,113,124,,,,,,,,,2018_Sep_13_1547,59.6264535706,verb_norming_L1-swe_no_translation,001,808,
KNOGA,Arm,arm,0,114,114,121,0,0,0,0,4,5.239,,,2018_Sep_13_1547,59.6264535706,verb_norming_L1-swe_no_translation,001,808,
KNOGA,Ben,ben,0,114,114,121,0,1,1,1,2,1.285,,,2018_Sep_13_1547,59.6264535706,verb_norming_L1-swe_no_translation,001,808,
KNOGA,,,0,114,114,121,,,,,,,,,2018_Sep_13_1547,59.6264535706,verb_norming_L1-swe_no_translation,001,808,
KLAPPA,Arm,arm,0,115,115,31,0,0,0,0,7,4.117,,,2018_Sep_13_1547,59.6264535706,verb_norming_L1-swe_no_translation,001,808,
KLAPPA,Ben,ben,0,115,115,31,0,1,1,1,1,1.737,,,2018_Sep_13_1547,59.6264535706,verb_norming_L1-swe_no_translation,001,808,
KLAPPA,,,0,115,115,31,,,,,,,,,2018_Sep_13_1547,59.6264535706,verb_norming_L1-swe_no_translation,001,808,
GÅ,Arm,arm,0,116,116,106,0,0,0,0,3,3.732,,,2018_Sep_13_1547,59.6264535706,verb_norming_L1-swe_no_translation,001,808,
GÅ,Ben,ben,0,116,116,106,0,1,1,1,7,1.219,,,2018_Sep_13_1547,59.6264535706,verb_norming_L1-swe_no_translation,001,808,
GÅ,,,0,116,116,106,,,,,,,,,2018_Sep_13_1547,59.6264535706,verb_norming_L1-swe_no_translation,001,808,
KLÄTTRA,Arm,arm,0,117,117,116,0,0,0,0,6,3.999,,,2018_Sep_13_1547,59.6264535706,verb_norming_L1-swe_no_translation,001,808,
KLÄTTRA,Ben,ben,0,117,117,116,0,1,1,1,6,1.939,,,2018_Sep_13_1547,59.6264535706,verb_norming_L1-swe_no_translation,001,808,
KLÄTTRA,,,0,117,117,116,,,,,,,,,2018_Sep_13_1547,59.6264535706,verb_norming_L1-swe_no_translation,001,808,
REPA,Arm,arm,0,118,118,61,0,0,0,0,7,13.175,,,2018_Sep_13_1547,59.6264535706,verb_norming_L1-swe_no_translation,001,808,
REPA,Ben,ben,0,118,118,61,0,1,1,1,1,2.125,,,2018_Sep_13_1547,59.6264535706,verb_norming_L1-swe_no_translation,001,808,
REPA,,,0,118,118,61,,,,,,,,,2018_Sep_13_1547,59.6264535706,verb_norming_L1-swe_no_translation,001,808,
BULTA,Arm,arm,0,119,119,4,0,0,0,0,7,2.407,,,2018_Sep_13_1547,59.6264535706,verb_norming_L1-swe_no_translation,001,808,
BULTA,Ben,ben,0,119,119,4,0,1,1,1,1,1.37,,,2018_Sep_13_1547,59.6264535706,verb_norming_L1-swe_no_translation,001,808,
BULTA,,,0,119,119,4,,,,,,,,,2018_Sep_13_1547,59.6264535706,verb_norming_L1-swe_no_translation,001,808,
RYCKA,Arm,arm,0,120,120,67,0,0,0,0,7,3.092,,,2018_Sep_13_1547,59.6264535706,verb_norming_L1-swe_no_translation,001,808,
RYCKA,Ben,ben,0,120,120,67,0,1,1,1,1,5.225,,,2018_Sep_13_1547,59.6264535706,verb_norming_L1-swe_no_translation,001,808,
RYCKA,,,0,120,120,67,,,,,,,,,2018_Sep_13_1547,59.6264535706,verb_norming_L1-swe_no_translation,001,808,
TRYCKA,Arm,arm,0,121,121,95,0,0,0,0,7,4.971,,,2018_Sep_13_1547,59.6264535706,verb_norming_L1-swe_no_translation,001,808,
TRYCKA,Ben,ben,0,121,121,95,0,1,1,1,2,14.466,,,2018_Sep_13_1547,59.6264535706,verb_norming_L1-swe_no_translation,001,808,
TRYCKA,,,0,121,121,95,,,,,,,,,2018_Sep_13_1547,59.6264535706,verb_norming_L1-swe_no_translation,001,808,
SKURA,Arm,arm,0,122,122,77,0,0,0,0,7,3.967,,,2018_Sep_13_1547,59.6264535706,verb_norming_L1-swe_no_translation,001,808,
SKURA,Ben,ben,0,122,122,77,0,1,1,1,1,2.426,,,2018_Sep_13_1547,59.6264535706,verb_norming_L1-swe_no_translation,001,808,
SKURA,,,0,122,122,77,,,,,,,,,2018_Sep_13_1547,59.6264535706,verb_norming_L1-swe_no_translation,001,808,
SKRAPA,Arm,arm,0,123,123,74,0,0,0,0,7,3.044,,,2018_Sep_13_1547,59.6264535706,verb_norming_L1-swe_no_translation,001,808,
SKRAPA,Ben,ben,0,123,123,74,0,1,1,1,3,4.171,,,2018_Sep_13_1547,59.6264535706,verb_norming_L1-swe_no_translation,001,808,
SKRAPA,,,0,123,123,74,,,,,,,,,2018_Sep_13_1547,59.6264535706,verb_norming_L1-swe_no_translation,001,808,
RUSA,Arm,arm,0,124,124,134,0,0,0,0,2,5.829,,,2018_Sep_13_1547,59.6264535706,verb_norming_L1-swe_no_translation,001,808,
RUSA,Ben,ben,0,124,124,134,0,1,1,1,7,10.008,,,2018_Sep_13_1547,59.6264535706,verb_norming_L1-swe_no_translation,001,808,
RUSA,,,0,124,124,134,,,,,,,,,2018_Sep_13_1547,59.6264535706,verb_norming_L1-swe_no_translation,001,808,
ÖSA,Arm,arm,0,125,125,48,0,0,0,0,7,3.061,,,2018_Sep_13_1547,59.6264535706,verb_norming_L1-swe_no_translation,001,808,
ÖSA,Ben,ben,0,125,125,48,0,1,1,1,2,2.007,,,2018_Sep_13_1547,59.6264535706,verb_norming_L1-swe_no_translation,001,808,
ÖSA,,,0,125,125,48,,,,,,,,,2018_Sep_13_1547,59.6264535706,verb_norming_L1-swe_no_translation,001,808,
STÖVLA,Arm,arm,0,126,126,152,0,0,0,0,4,4.2,,,2018_Sep_13_1547,59.6264535706,verb_norming_L1-swe_no_translation,001,808,
STÖVLA,Ben,ben,0,126,126,152,0,1,1,1,7,1.15,,,2018_Sep_13_1547,59.6264535706,verb_norming_L1-swe_no_translation,001,808,
STÖVLA,,,0,126,126,152,,,,,,,,,2018_Sep_13_1547,59.6264535706,verb_norming_L1-swe_no_translation,001,808,
KLIA,Arm,arm,0,127,127,32,0,0,0,0,7,3.012,,,2018_Sep_13_1547,59.6264535706,verb_norming_L1-swe_no_translation,001,808,
KLIA,Ben,ben,0,127,127,32,0,1,1,1,6,1.706,,,2018_Sep_13_1547,59.6264535706,verb_norming_L1-swe_no_translation,001,808,
KLIA,,,0,127,127,32,,,,,,,,,2018_Sep_13_1547,59.6264535706,verb_norming_L1-swe_no_translation,001,808,
VIKA,Arm,arm,0,128,128,98,0,0,0,0,7,2.357,,,2018_Sep_13_1547,59.6264535706,verb_norming_L1-swe_no_translation,001,808,
VIKA,Ben,ben,0,128,128,98,0,1,1,1,2,3.384,,,2018_Sep_13_1547,59.6264535706,verb_norming_L1-swe_no_translation,001,808,
VIKA,,,0,128,128,98,,,,,,,,,2018_Sep_13_1547,59.6264535706,verb_norming_L1-swe_no_translation,001,808,
SKOPA,Arm,arm,0,129,129,73,0,0,0,0,7,3.095,,,2018_Sep_13_1547,59.6264535706,verb_norming_L1-swe_no_translation,001,808,
SKOPA,Ben,ben,0,129,129,73,0,1,1,1,2,3.853,,,2018_Sep_13_1547,59.6264535706,verb_norming_L1-swe_no_translation,001,808,
SKOPA,,,0,129,129,73,,,,,,,,,2018_Sep_13_1547,59.6264535706,verb_norming_L1-swe_no_translation,001,808,
RO,Arm,arm,0,130,130,64,0,0,0,0,7,2.895,,,2018_Sep_13_1547,59.6264535706,verb_norming_L1-swe_no_translation,001,808,
RO,Ben,ben,0,130,130,64,0,1,1,1,4,4.944,,,2018_Sep_13_1547,59.6264535706,verb_norming_L1-swe_no_translation,001,808,
RO,,,0,130,130,64,,,,,,,,,2018_Sep_13_1547,59.6264535706,verb_norming_L1-swe_no_translation,001,808,
STIGA,Arm,arm,0,131,131,151,0,0,0,0,6,8.895,,,2018_Sep_13_1547,59.6264535706,verb_norming_L1-swe_no_translation,001,808,
STIGA,Ben,ben,0,131,131,151,0,1,1,1,7,1.836,,,2018_Sep_13_1547,59.6264535706,verb_norming_L1-swe_no_translation,001,808,
STIGA,,,0,131,131,151,,,,,,,,,2018_Sep_13_1547,59.6264535706,verb_norming_L1-swe_no_translation,001,808,
NORPA,Arm,arm,0,132,132,46,0,0,0,0,7,3.85,,,2018_Sep_13_1547,59.6264535706,verb_norming_L1-swe_no_translation,001,808,
NORPA,Ben,ben,0,132,132,46,0,1,1,1,6,2.561,,,2018_Sep_13_1547,59.6264535706,verb_norming_L1-swe_no_translation,001,808,
NORPA,,,0,132,132,46,,,,,,,,,2018_Sep_13_1547,59.6264535706,verb_norming_L1-swe_no_translation,001,808,
KRAVLA,Arm,arm,0,133,133,122,0,0,0,0,5,8.795,,,2018_Sep_13_1547,59.6264535706,verb_norming_L1-swe_no_translation,001,808,
KRAVLA,Ben,ben,0,133,133,122,0,1,1,1,6,2.088,,,2018_Sep_13_1547,59.6264535706,verb_norming_L1-swe_no_translation,001,808,
KRAVLA,,,0,133,133,122,,,,,,,,,2018_Sep_13_1547,59.6264535706,verb_norming_L1-swe_no_translation,001,808,
SKÄRA,Arm,arm,0,134,134,71,0,0,0,0,7,10.96,,,2018_Sep_13_1547,59.6264535706,verb_norming_L1-swe_no_translation,001,808,
SKÄRA,Ben,ben,0,134,134,71,0,1,1,1,2,2.527,,,2018_Sep_13_1547,59.6264535706,verb_norming_L1-swe_no_translation,001,808,
SKÄRA,,,0,134,134,71,,,,,,,,,2018_Sep_13_1547,59.6264535706,verb_norming_L1-swe_no_translation,001,808,
VANDRA,Arm,arm,0,135,135,166,0,0,0,0,7,2.575,,,2018_Sep_13_1547,59.6264535706,verb_norming_L1-swe_no_translation,001,808,
VANDRA,Ben,ben,0,135,135,166,0,1,1,1,7,2.711,,,2018_Sep_13_1547,59.6264535706,verb_norming_L1-swe_no_translation,001,808,
VANDRA,,,0,135,135,166,,,,,,,,,2018_Sep_13_1547,59.6264535706,verb_norming_L1-swe_no_translation,001,808,
KILA,Arm,arm,0,136,136,115,0,0,0,0,7,3.347,,,2018_Sep_13_1547,59.6264535706,verb_norming_L1-swe_no_translation,001,808,
KILA,Ben,ben,0,136,136,115,0,1,1,1,6,1.639,,,2018_Sep_13_1547,59.6264535706,verb_norming_L1-swe_no_translation,001,808,
KILA,,,0,136,136,115,,,,,,,,,2018_Sep_13_1547,59.6264535706,verb_norming_L1-swe_no_translation,001,808,
RÄNNA,Arm,arm,0,137,137,131,0,0,0,0,4,2.961,,,2018_Sep_13_1547,59.6264535706,verb_norming_L1-swe_no_translation,001,808,
RÄNNA,Ben,ben,0,137,137,131,0,1,1,1,7,0.968,,,2018_Sep_13_1547,59.6264535706,verb_norming_L1-swe_no_translation,001,808,
RÄNNA,,,0,137,137,131,,,,,,,,,2018_Sep_13_1547,59.6264535706,verb_norming_L1-swe_no_translation,001,808,
GLIDA,Arm,arm,0,138,138,107,0,0,0,0,2,3.261,,,2018_Sep_13_1547,59.6264535706,verb_norming_L1-swe_no_translation,001,808,
GLIDA,Ben,ben,0,138,138,107,0,1,1,1,7,1.216,,,2018_Sep_13_1547,59.6264535706,verb_norming_L1-swe_no_translation,001,808,
GLIDA,,,0,138,138,107,,,,,,,,,2018_Sep_13_1547,59.6264535706,verb_norming_L1-swe_no_translation,001,808,
POLERA,Arm,arm,0,139,139,54,0,0,0,0,7,2.388,,,2018_Sep_13_1547,59.6264535706,verb_norming_L1-swe_no_translation,001,808,
POLERA,Ben,ben,0,139,139,54,0,1,1,1,3,1.94,,,2018_Sep_13_1547,59.6264535706,verb_norming_L1-swe_no_translation,001,808,
POLERA,,,0,139,139,54,,,,,,,,,2018_Sep_13_1547,59.6264535706,verb_norming_L1-swe_no_translation,001,808,
JOGGA,Arm,arm,0,140,140,114,0,0,0,0,5,3.663,,,2018_Sep_13_1547,59.6264535706,verb_norming_L1-swe_no_translation,001,808,
JOGGA,Ben,ben,0,140,140,114,0,1,1,1,7,2.29,,,2018_Sep_13_1547,59.6264535706,verb_norming_L1-swe_no_translation,001,808,
JOGGA,,,0,140,140,114,,,,,,,,,2018_Sep_13_1547,59.6264535706,verb_norming_L1-swe_no_translation,001,808,
FLANERA,Arm,arm,0,141,141,104,0,0,0,0,4,5.308,,,2018_Sep_13_1547,59.6264535706,verb_norming_L1-swe_no_translation,001,808,
FLANERA,Ben,ben,0,141,141,104,0,1,1,1,7,1.134,,,2018_Sep_13_1547,59.6264535706,verb_norming_L1-swe_no_translation,001,808,
FLANERA,,,0,141,141,104,,,,,,,,,2018_Sep_13_1547,59.6264535706,verb_norming_L1-swe_no_translation,001,808,
SKALA,Arm,arm,0,142,142,70,0,0,0,0,7,3.129,,,2018_Sep_13_1547,59.6264535706,verb_norming_L1-swe_no_translation,001,808,
SKALA,Ben,ben,0,142,142,70,0,1,1,1,1,4.356,,,2018_Sep_13_1547,59.6264535706,verb_norming_L1-swe_no_translation,001,808,
SKALA,,,0,142,142,70,,,,,,,,,2018_Sep_13_1547,59.6264535706,verb_norming_L1-swe_no_translation,001,808,
STÅ,Arm,arm,0,143,143,147,0,0,0,0,4,5.578,,,2018_Sep_13_1547,59.6264535706,verb_norming_L1-swe_no_translation,001,808,
STÅ,Ben,ben,0,143,143,147,0,1,1,1,6,1.623,,,2018_Sep_13_1547,59.6264535706,verb_norming_L1-swe_no_translation,001,808,
STÅ,,,0,143,143,147,,,,,,,,,2018_Sep_13_1547,59.6264535706,verb_norming_L1-swe_no_translation,001,808,
TRASKA,Arm,arm,0,144,144,162,0,0,0,0,5,3.027,,,2018_Sep_13_1547,59.6264535706,verb_norming_L1-swe_no_translation,001,808,
TRASKA,Ben,ben,0,144,144,162,0,1,1,1,7,0.9,,,2018_Sep_13_1547,59.6264535706,verb_norming_L1-swe_no_translation,001,808,
TRASKA,,,0,144,144,162,,,,,,,,,2018_Sep_13_1547,59.6264535706,verb_norming_L1-swe_no_translation,001,808,
SKUMMA,Arm,arm,0,145,145,76,0,0,0,0,3,4.553,,,2018_Sep_13_1547,59.6264535706,verb_norming_L1-swe_no_translation,001,808,
SKUMMA,Ben,ben,0,145,145,76,0,1,1,1,3,0.598,,,2018_Sep_13_1547,59.6264535706,verb_norming_L1-swe_no_translation,001,808,
SKUMMA,,,0,145,145,76,,,,,,,,,2018_Sep_13_1547,59.6264535706,verb_norming_L1-swe_no_translation,001,808,
TASSA,Arm,arm,0,146,146,159,0,0,0,0,2,5.091,,,2018_Sep_13_1547,59.6264535706,verb_norming_L1-swe_no_translation,001,808,
TASSA,Ben,ben,0,146,146,159,0,1,1,1,6,4.188,,,2018_Sep_13_1547,59.6264535706,verb_norming_L1-swe_no_translation,001,808,
TASSA,,,0,146,146,159,,,,,,,,,2018_Sep_13_1547,59.6264535706,verb_norming_L1-swe_no_translation,001,808,
PUTTA,Arm,arm,0,147,147,57,0,0,0,0,6,5.006,,,2018_Sep_13_1547,59.6264535706,verb_norming_L1-swe_no_translation,001,808,
PUTTA,Ben,ben,0,147,147,57,0,1,1,1,4,3.584,,,2018_Sep_13_1547,59.6264535706,verb_norming_L1-swe_no_translation,001,808,
PUTTA,,,0,147,147,57,,,,,,,,,2018_Sep_13_1547,59.6264535706,verb_norming_L1-swe_no_translation,001,808,
TRUMMA,Arm,arm,0,148,148,94,0,0,0,0,7,3.011,,,2018_Sep_13_1547,59.6264535706,verb_norming_L1-swe_no_translation,001,808,
TRUMMA,Ben,ben,0,148,148,94,0,1,1,1,2,5.143,,,2018_Sep_13_1547,59.6264535706,verb_norming_L1-swe_no_translation,001,808,
TRUMMA,,,0,148,148,94,,,,,,,,,2018_Sep_13_1547,59.6264535706,verb_norming_L1-swe_no_translation,001,808,
SPRINTA,Arm,arm,0,149,149,146,0,0,0,0,4,19.931,,,2018_Sep_13_1547,59.6264535706,verb_norming_L1-swe_no_translation,001,808,
SPRINTA,Ben,ben,0,149,149,146,0,1,1,1,7,2.04,,,2018_Sep_13_1547,59.6264535706,verb_norming_L1-swe_no_translation,001,808,
SPRINTA,,,0,149,149,146,,,,,,,,,2018_Sep_13_1547,59.6264535706,verb_norming_L1-swe_no_translation,001,808,
KRYPA,Arm,arm,0,150,150,123,0,0,0,0,6,3.68,,,2018_Sep_13_1547,59.6264535706,verb_norming_L1-swe_no_translation,001,808,
KRYPA,Ben,ben,0,150,150,123,0,1,1,1,7,1.085,,,2018_Sep_13_1547,59.6264535706,verb_norming_L1-swe_no_translation,001,808,
KRYPA,,,0,150,150,123,,,,,,,,,2018_Sep_13_1547,59.6264535706,verb_norming_L1-swe_no_translation,001,808,
SMEKA,Arm,arm,0,151,151,85,0,0,0,0,7,2.357,,,2018_Sep_13_1547,59.6264535706,verb_norming_L1-swe_no_translation,001,808,
SMEKA,Ben,ben,0,151,151,85,0,1,1,1,3,2.712,,,2018_Sep_13_1547,59.6264535706,verb_norming_L1-swe_no_translation,001,808,
SMEKA,,,0,151,151,85,,,,,,,,,2018_Sep_13_1547,59.6264535706,verb_norming_L1-swe_no_translation,001,808,
KNATA,Arm,arm,0,152,152,120,0,0,0,0,2,4.369,,,2018_Sep_13_1547,59.6264535706,verb_norming_L1-swe_no_translation,001,808,
KNATA,Ben,ben,0,152,152,120,0,1,1,1,7,1.404,,,2018_Sep_13_1547,59.6264535706,verb_norming_L1-swe_no_translation,001,808,
KNATA,,,0,152,152,120,,,,,,,,,2018_Sep_13_1547,59.6264535706,verb_norming_L1-swe_no_translation,001,808,
KNYCKA,Arm,arm,0,153,153,39,0,0,0,0,6,8.123,,,2018_Sep_13_1547,59.6264535706,verb_norming_L1-swe_no_translation,001,808,
KNYCKA,Ben,ben,0,153,153,39,0,1,1,1,2,2.006,,,2018_Sep_13_1547,59.6264535706,verb_norming_L1-swe_no_translation,001,808,
KNYCKA,,,0,153,153,39,,,,,,,,,2018_Sep_13_1547,59.6264535706,verb_norming_L1-swe_no_translation,001,808,
SKAKA,Arm,arm,0,154,154,69,0,0,0,0,7,2.44,,,2018_Sep_13_1547,59.6264535706,verb_norming_L1-swe_no_translation,001,808,
SKAKA,Ben,ben,0,154,154,69,0,1,1,1,1,2.041,,,2018_Sep_13_1547,59.6264535706,verb_norming_L1-swe_no_translation,001,808,
SKAKA,,,0,154,154,69,,,,,,,,,2018_Sep_13_1547,59.6264535706,verb_norming_L1-swe_no_translation,001,808,
SKUTTA,Arm,arm,0,155,155,137,0,0,0,0,4,5.09,,,2018_Sep_13_1547,59.6264535706,verb_norming_L1-swe_no_translation,001,808,
SKUTTA,Ben,ben,0,155,155,137,0,1,1,1,7,5.378,,,2018_Sep_13_1547,59.6264535706,verb_norming_L1-swe_no_translation,001,808,
SKUTTA,,,0,155,155,137,,,,,,,,,2018_Sep_13_1547,59.6264535706,verb_norming_L1-swe_no_translation,001,808,
PUTSA,Arm,arm,0,156,156,56,0,0,0,0,7,2.372,,,2018_Sep_13_1547,59.6264535706,verb_norming_L1-swe_no_translation,001,808,
PUTSA,Ben,ben,0,156,156,56,0,1,1,1,2,2.93,,,2018_Sep_13_1547,59.6264535706,verb_norming_L1-swe_no_translation,001,808,
PUTSA,,,0,156,156,56,,,,,,,,,2018_Sep_13_1547,59.6264535706,verb_norming_L1-swe_no_translation,001,808,
KELA,Arm,arm,0,157,157,28,0,0,0,0,6,3.179,,,2018_Sep_13_1547,59.6264535706,verb_norming_L1-swe_no_translation,001,808,
KELA,Ben,ben,0,157,157,28,0,1,1,1,2,3.736,,,2018_Sep_13_1547,59.6264535706,verb_norming_L1-swe_no_translation,001,808,
KELA,,,0,157,157,28,,,,,,,,,2018_Sep_13_1547,59.6264535706,verb_norming_L1-swe_no_translation,001,808,
VADA,Arm,arm,0,158,158,165,0,0,0,0,4,5.258,,,2018_Sep_13_1547,59.6264535706,verb_norming_L1-swe_no_translation,001,808,
VADA,Ben,ben,0,158,158,165,0,1,1,1,7,0.969,,,2018_Sep_13_1547,59.6264535706,verb_norming_L1-swe_no_translation,001,808,
VADA,,,0,158,158,165,,,,,,,,,2018_Sep_13_1547,59.6264535706,verb_norming_L1-swe_no_translation,001,808,
SLIPA,Arm,arm,0,159,159,81,0,0,0,0,7,3.279,,,2018_Sep_13_1547,59.6264535706,verb_norming_L1-swe_no_translation,001,808,
SLIPA,Ben,ben,0,159,159,81,0,1,1,1,6,3.115,,,2018_Sep_13_1547,59.6264535706,verb_norming_L1-swe_no_translation,001,808,
SLIPA,,,0,159,159,81,,,,,,,,,2018_Sep_13_1547,59.6264535706,verb_norming_L1-swe_no_translation,001,808,
IRRA,Arm,arm,0,160,160,113,0,0,0,0,4,6.18,,,2018_Sep_13_1547,59.6264535706,verb_norming_L1-swe_no_translation,001,808,
IRRA,Ben,ben,0,160,160,113,0,1,1,1,6,9.521,,,2018_Sep_13_1547,59.6264535706,verb_norming_L1-swe_no_translation,001,808,
IRRA,,,0,160,160,113,,,,,,,,,2018_Sep_13_1547,59.6264535706,verb_norming_L1-swe_no_translation,001,808,
DASKA,Arm,arm,0,161,161,5,0,0,0,0,7,2.776,,,2018_Sep_13_1547,59.6264535706,verb_norming_L1-swe_no_translation,001,808,
DASKA,Ben,ben,0,161,161,5,0,1,1,1,3,3.953,,,2018_Sep_13_1547,59.6264535706,verb_norming_L1-swe_no_translation,001,808,
DASKA,,,0,161,161,5,,,,,,,,,2018_Sep_13_1547,59.6264535706,verb_norming_L1-swe_no_translation,001,808,
VIRA,Arm,arm,0,162,162,99,0,0,0,0,7,3.21,,,2018_Sep_13_1547,59.6264535706,verb_norming_L1-swe_no_translation,001,808,
VIRA,Ben,ben,0,162,162,99,0,1,1,1,2,3.164,,,2018_Sep_13_1547,59.6264535706,verb_norming_L1-swe_no_translation,001,808,
VIRA,,,0,162,162,99,,,,,,,,,2018_Sep_13_1547,59.6264535706,verb_norming_L1-swe_no_translation,001,808,
LUNKA,Arm,arm,0,163,163,126,0,0,0,0,3,8.176,,,2018_Sep_13_1547,59.6264535706,verb_norming_L1-swe_no_translation,001,808,
LUNKA,Ben,ben,0,163,163,126,0,1,1,1,7,2.293,,,2018_Sep_13_1547,59.6264535706,verb_norming_L1-swe_no_translation,001,808,
LUNKA,,,0,163,163,126,,,,,,,,,2018_Sep_13_1547,59.6264535706,verb_norming_L1-swe_no_translation,001,808,
KASTA,Arm,arm,0,164,164,27,0,0,0,0,7,5.157,,,2018_Sep_13_1547,59.6264535706,verb_norming_L1-swe_no_translation,001,808,
KASTA,Ben,ben,0,164,164,27,0,1,1,1,2,2.276,,,2018_Sep_13_1547,59.6264535706,verb_norming_L1-swe_no_translation,001,808,
KASTA,,,0,164,164,27,,,,,,,,,2018_Sep_13_1547,59.6264535706,verb_norming_L1-swe_no_translation,001,808,
FLÄTA,Arm,arm,0,165,165,11,0,0,0,0,7,2.625,,,2018_Sep_13_1547,59.6264535706,verb_norming_L1-swe_no_translation,001,808,
FLÄTA,Ben,ben,0,165,165,11,0,1,1,1,1,2.628,,,2018_Sep_13_1547,59.6264535706,verb_norming_L1-swe_no_translation,001,808,
FLÄTA,,,0,165,165,11,,,,,,,,,2018_Sep_13_1547,59.6264535706,verb_norming_L1-swe_no_translation,001,808,
SLÅ,Arm,arm,0,166,166,79,0,0,0,0,7,2.743,,,2018_Sep_13_1547,59.6264535706,verb_norming_L1-swe_no_translation,001,808,
SLÅ,Ben,ben,0,166,166,79,0,1,1,1,2,8.08,,,2018_Sep_13_1547,59.6264535706,verb_norming_L1-swe_no_translation,001,808,
SLÅ,,,0,166,166,79,,,,,,,,,2018_Sep_13_1547,59.6264535706,verb_norming_L1-swe_no_translation,001,808,
KNIPA,Arm,arm,0,167,167,37,0,0,0,0,6,5.09,,,2018_Sep_13_1547,59.6264535706,verb_norming_L1-swe_no_translation,001,808,
KNIPA,Ben,ben,0,167,167,37,0,1,1,1,2,2.729,,,2018_Sep_13_1547,59.6264535706,verb_norming_L1-swe_no_translation,001,808,
KNIPA,,,0,167,167,37,,,,,,,,,2018_Sep_13_1547,59.6264535706,verb_norming_L1-swe_no_translation,001,808,
SKRUBBA,Arm,arm,0,168,168,75,0,0,0,0,7,2.255,,,2018_Sep_13_1547,59.6264535706,verb_norming_L1-swe_no_translation,001,808,
SKRUBBA,Ben,ben,0,168,168,75,0,1,1,1,2,1.856,,,2018_Sep_13_1547,59.6264535706,verb_norming_L1-swe_no_translation,001,808,
SKRUBBA,,,0,168,168,75,,,,,,,,,2018_Sep_13_1547,59.6264535706,verb_norming_L1-swe_no_translation,001,808,
,,,,,,,,,,,,,space,3.27061141631,2018_Sep_13_1547,59.6264535706,verb_norming_L1-swe_no_translation,001,808,
