word,category,category_lowercase,trials.thisRepN,trials.thisTrialN,trials.thisN,trials.thisIndex,armleg_loop.thisRepN,armleg_loop.thisTrialN,armleg_loop.thisN,armleg_loop.thisIndex,rating.response,rating.rt,key_resp_7.keys,key_resp_7.rt,date,frameRate,expName,session,participant,
SQUEEZE,Arm,arm,0,0,0,48,0,0,0,0,7,24.861,,,2018_Sep_13_1500,59.6298250906,verb_norming_L2-eng_oral_translation,001,808,
SQUEEZE,Leg,leg,0,0,0,48,0,1,1,1,1,11.852,,,2018_Sep_13_1500,59.6298250906,verb_norming_L2-eng_oral_translation,001,808,
SQUEEZE,,,0,0,0,48,,,,,,,return,6.55782314807,2018_Sep_13_1500,59.6298250906,verb_norming_L2-eng_oral_translation,001,808,
PLOD,Arm,arm,0,1,1,84,0,0,0,0,4,34.12,,,2018_Sep_13_1500,59.6298250906,verb_norming_L2-eng_oral_translation,001,808,
PLOD,Leg,leg,0,1,1,84,0,1,1,1,4,3.417,,,2018_Sep_13_1500,59.6298250906,verb_norming_L2-eng_oral_translation,001,808,
PLOD,,,0,1,1,84,,,,,,,return,4.29377955382,2018_Sep_13_1500,59.6298250906,verb_norming_L2-eng_oral_translation,001,808,
SKATE,Arm,arm,0,2,2,92,0,0,0,0,1,33.651,,,2018_Sep_13_1500,59.6298250906,verb_norming_L2-eng_oral_translation,001,808,
SKATE,Leg,leg,0,2,2,92,0,1,1,1,7,4.39,,,2018_Sep_13_1500,59.6298250906,verb_norming_L2-eng_oral_translation,001,808,
SKATE,,,0,2,2,92,,,,,,,return,7.86581856169,2018_Sep_13_1500,59.6298250906,verb_norming_L2-eng_oral_translation,001,808,
TIPTOE,Arm,arm,0,3,3,112,0,0,0,0,1,7.74,,,2018_Sep_13_1500,59.6298250906,verb_norming_L2-eng_oral_translation,001,808,
TIPTOE,Leg,leg,0,3,3,112,0,1,1,1,7,4.624,,,2018_Sep_13_1500,59.6298250906,verb_norming_L2-eng_oral_translation,001,808,
TIPTOE,,,0,3,3,112,,,,,,,return,6.8093723528,2018_Sep_13_1500,59.6298250906,verb_norming_L2-eng_oral_translation,001,808,
STRUT,Arm,arm,0,4,4,109,0,0,0,0,4,11.95,,,2018_Sep_13_1500,59.6298250906,verb_norming_L2-eng_oral_translation,001,808,
STRUT,Leg,leg,0,4,4,109,0,1,1,1,4,0.985,,,2018_Sep_13_1500,59.6298250906,verb_norming_L2-eng_oral_translation,001,808,
STRUT,,,0,4,4,109,,,,,,,return,3.53898693626,2018_Sep_13_1500,59.6298250906,verb_norming_L2-eng_oral_translation,001,808,
SLIP,Arm,arm,0,5,5,95,0,0,0,0,1,23.657,,,2018_Sep_13_1500,59.6298250906,verb_norming_L2-eng_oral_translation,001,808,
SLIP,Leg,leg,0,5,5,95,0,1,1,1,7,3.45,,,2018_Sep_13_1500,59.6298250906,verb_norming_L2-eng_oral_translation,001,808,
SLIP,,,0,5,5,95,,,,,,,return,5.80302499905,2018_Sep_13_1500,59.6298250906,verb_norming_L2-eng_oral_translation,001,808,
STUMBLE,Arm,arm,0,6,6,110,0,0,0,0,1,14.493,,,2018_Sep_13_1500,59.6298250906,verb_norming_L2-eng_oral_translation,001,808,
STUMBLE,Leg,leg,0,6,6,110,0,1,1,1,7,8.479,,,2018_Sep_13_1500,59.6298250906,verb_norming_L2-eng_oral_translation,001,808,
STUMBLE,,,0,6,6,110,,,,,,,return,11.3710947871,2018_Sep_13_1500,59.6298250906,verb_norming_L2-eng_oral_translation,001,808,
DANCE,Arm,arm,0,7,7,64,0,0,0,0,7,9.482,,,2018_Sep_13_1500,59.6298250906,verb_norming_L2-eng_oral_translation,001,808,
DANCE,Leg,leg,0,7,7,64,0,1,1,1,7,1.721,,,2018_Sep_13_1500,59.6298250906,verb_norming_L2-eng_oral_translation,001,808,
DANCE,,,0,7,7,64,,,,,,,return,4.88045125675,2018_Sep_13_1500,59.6298250906,verb_norming_L2-eng_oral_translation,001,808,
CROUCH,Arm,arm,0,8,8,62,0,0,0,0,7,23.32,,,2018_Sep_13_1500,59.6298250906,verb_norming_L2-eng_oral_translation,001,808,
CROUCH,Leg,leg,0,8,8,62,0,1,1,1,7,3.131,,,2018_Sep_13_1500,59.6298250906,verb_norming_L2-eng_oral_translation,001,808,
CROUCH,,,0,8,8,62,,,,,,,return,9.92862318726,2018_Sep_13_1500,59.6298250906,verb_norming_L2-eng_oral_translation,001,808,
TUG,Arm,arm,0,9,9,54,0,0,0,0,7,8.795,,,2018_Sep_13_1500,59.6298250906,verb_norming_L2-eng_oral_translation,001,808,
TUG,Leg,leg,0,9,9,54,0,1,1,1,3,10.108,,,2018_Sep_13_1500,59.6298250906,verb_norming_L2-eng_oral_translation,001,808,
TUG,,,0,9,9,54,,,,,,,return,5.0820473999,2018_Sep_13_1500,59.6298250906,verb_norming_L2-eng_oral_translation,001,808,
SPRINT,Arm,arm,0,10,10,98,0,0,0,0,4,8.56,,,2018_Sep_13_1500,59.6298250906,verb_norming_L2-eng_oral_translation,001,808,
SPRINT,Leg,leg,0,10,10,98,0,1,1,1,7,7.255,,,2018_Sep_13_1500,59.6298250906,verb_norming_L2-eng_oral_translation,001,808,
SPRINT,,,0,10,10,98,,,,,,,return,7.12788702856,2018_Sep_13_1500,59.6298250906,verb_norming_L2-eng_oral_translation,001,808,
SCRAPE,Arm,arm,0,11,11,39,0,0,0,0,4,9.467,,,2018_Sep_13_1500,59.6298250906,verb_norming_L2-eng_oral_translation,001,808,
SCRAPE,Leg,leg,0,11,11,39,0,1,1,1,4,1.017,,,2018_Sep_13_1500,59.6298250906,verb_norming_L2-eng_oral_translation,001,808,
SCRAPE,,,0,11,11,39,,,,,,,return,3.05273459725,2018_Sep_13_1500,59.6298250906,verb_norming_L2-eng_oral_translation,001,808,
CATCH,Arm,arm,0,12,12,5,0,0,0,0,7,5.242,,,2018_Sep_13_1500,59.6298250906,verb_norming_L2-eng_oral_translation,001,808,
CATCH,Leg,leg,0,12,12,5,0,1,1,1,2,6.352,,,2018_Sep_13_1500,59.6298250906,verb_norming_L2-eng_oral_translation,001,808,
CATCH,,,0,12,12,5,,,,,,,return,2.43222140392,2018_Sep_13_1500,59.6298250906,verb_norming_L2-eng_oral_translation,001,808,
LIMP,Arm,arm,0,13,13,78,0,0,0,0,7,3.698,,,2018_Sep_13_1500,59.6298250906,verb_norming_L2-eng_oral_translation,001,808,
LIMP,Leg,leg,0,13,13,78,0,1,1,1,7,36.001,,,2018_Sep_13_1500,59.6298250906,verb_norming_L2-eng_oral_translation,001,808,
LIMP,,,0,13,13,78,,,,,,,return,3.15334519174,2018_Sep_13_1500,59.6298250906,verb_norming_L2-eng_oral_translation,001,808,
STEP,Arm,arm,0,14,14,103,0,0,0,0,2,8.478,,,2018_Sep_13_1500,59.6298250906,verb_norming_L2-eng_oral_translation,001,808,
STEP,Leg,leg,0,14,14,103,0,1,1,1,7,4.356,,,2018_Sep_13_1500,59.6298250906,verb_norming_L2-eng_oral_translation,001,808,
STEP,,,0,14,14,103,,,,,,,return,12.5952727327,2018_Sep_13_1500,59.6298250906,verb_norming_L2-eng_oral_translation,001,808,
RUN,Arm,arm,0,15,15,88,0,0,0,0,3,4.52,,,2018_Sep_13_1500,59.6298250906,verb_norming_L2-eng_oral_translation,001,808,
RUN,Leg,leg,0,15,15,88,0,1,1,1,7,1.672,,,2018_Sep_13_1500,59.6298250906,verb_norming_L2-eng_oral_translation,001,808,
RUN,,,0,15,15,88,,,,,,,return,2.56635187374,2018_Sep_13_1500,59.6298250906,verb_norming_L2-eng_oral_translation,001,808,
RUB,Arm,arm,0,16,16,37,0,0,0,0,6,11.213,,,2018_Sep_13_1500,59.6298250906,verb_norming_L2-eng_oral_translation,001,808,
RUB,Leg,leg,0,16,16,37,0,1,1,1,1,2.78,,,2018_Sep_13_1500,59.6298250906,verb_norming_L2-eng_oral_translation,001,808,
RUB,,,0,16,16,37,,,,,,,return,3.92481872606,2018_Sep_13_1500,59.6298250906,verb_norming_L2-eng_oral_translation,001,808,
PULL,Arm,arm,0,17,17,33,0,0,0,0,7,6.114,,,2018_Sep_13_1500,59.6298250906,verb_norming_L2-eng_oral_translation,001,808,
PULL,Leg,leg,0,17,17,33,0,1,1,1,1,6.788,,,2018_Sep_13_1500,59.6298250906,verb_norming_L2-eng_oral_translation,001,808,
PULL,,,0,17,17,33,,,,,,,return,2.4154310432,2018_Sep_13_1500,59.6298250906,verb_norming_L2-eng_oral_translation,001,808,
STROLL,Arm,arm,0,18,18,108,0,0,0,0,2,10.273,,,2018_Sep_13_1500,59.6298250906,verb_norming_L2-eng_oral_translation,001,808,
STROLL,Leg,leg,0,18,18,108,0,1,1,1,7,3.618,,,2018_Sep_13_1500,59.6298250906,verb_norming_L2-eng_oral_translation,001,808,
STROLL,,,0,18,18,108,,,,,,,return,4.93072948934,2018_Sep_13_1500,59.6298250906,verb_norming_L2-eng_oral_translation,001,808,
NIP,Arm,arm,0,19,19,26,0,0,0,0,6,10.525,,,2018_Sep_13_1500,59.6298250906,verb_norming_L2-eng_oral_translation,001,808,
NIP,Leg,leg,0,19,19,26,0,1,1,1,1,5.999,,,2018_Sep_13_1500,59.6298250906,verb_norming_L2-eng_oral_translation,001,808,
NIP,,,0,19,19,26,,,,,,,return,5.43404006992,2018_Sep_13_1500,59.6298250906,verb_norming_L2-eng_oral_translation,001,808,
BRAID,Arm,arm,0,20,20,2,0,0,0,0,4,6.265,,,2018_Sep_13_1500,59.6298250906,verb_norming_L2-eng_oral_translation,001,808,
BRAID,Leg,leg,0,20,20,2,0,1,1,1,4,0.968,,,2018_Sep_13_1500,59.6298250906,verb_norming_L2-eng_oral_translation,001,808,
BRAID,,,0,20,20,2,,,,,,,return,3.15331713932,2018_Sep_13_1500,59.6298250906,verb_norming_L2-eng_oral_translation,001,808,
BASH,Arm,arm,0,21,21,0,0,0,0,0,4,7.456,,,2018_Sep_13_1500,59.6298250906,verb_norming_L2-eng_oral_translation,001,808,
BASH,Leg,leg,0,21,21,0,0,1,1,1,4,0.935,,,2018_Sep_13_1500,59.6298250906,verb_norming_L2-eng_oral_translation,001,808,
BASH,,,0,21,21,0,,,,,,,return,3.13692346352,2018_Sep_13_1500,59.6298250906,verb_norming_L2-eng_oral_translation,001,808,
RUSH,Arm,arm,0,22,22,89,0,0,0,0,3,4.303,,,2018_Sep_13_1500,59.6298250906,verb_norming_L2-eng_oral_translation,001,808,
RUSH,Leg,leg,0,22,22,89,0,1,1,1,7,4.239,,,2018_Sep_13_1500,59.6298250906,verb_norming_L2-eng_oral_translation,001,808,
RUSH,,,0,22,22,89,,,,,,,return,3.62296363142,2018_Sep_13_1500,59.6298250906,verb_norming_L2-eng_oral_translation,001,808,
LIFT,Arm,arm,0,23,23,25,0,0,0,0,7,4.905,,,2018_Sep_13_1500,59.6298250906,verb_norming_L2-eng_oral_translation,001,808,
LIFT,Leg,leg,0,23,23,25,0,1,1,1,7,2.36,,,2018_Sep_13_1500,59.6298250906,verb_norming_L2-eng_oral_translation,001,808,
LIFT,,,0,23,23,25,,,,,,,return,2.34837785898,2018_Sep_13_1500,59.6298250906,verb_norming_L2-eng_oral_translation,001,808,
SKIP,Arm,arm,0,24,24,93,0,0,0,0,2,9.683,,,2018_Sep_13_1500,59.6298250906,verb_norming_L2-eng_oral_translation,001,808,
SKIP,Leg,leg,0,24,24,93,0,1,1,1,1,18.41,,,2018_Sep_13_1500,59.6298250906,verb_norming_L2-eng_oral_translation,001,808,
SKIP,,,0,24,24,93,,,,,,,return,3.33758992578,2018_Sep_13_1500,59.6298250906,verb_norming_L2-eng_oral_translation,001,808,
PEDAL,Arm,arm,0,25,25,83,0,0,0,0,7,9.602,,,2018_Sep_13_1500,59.6298250906,verb_norming_L2-eng_oral_translation,001,808,
PEDAL,Leg,leg,0,25,25,83,0,1,1,1,7,2.209,,,2018_Sep_13_1500,59.6298250906,verb_norming_L2-eng_oral_translation,001,808,
PEDAL,,,0,25,25,83,,,,,,,return,6.02102272009,2018_Sep_13_1500,59.6298250906,verb_norming_L2-eng_oral_translation,001,808,
STOMP,Arm,arm,0,26,26,104,0,0,0,0,1,10.338,,,2018_Sep_13_1500,59.6298250906,verb_norming_L2-eng_oral_translation,001,808,
STOMP,Leg,leg,0,26,26,104,0,1,1,1,6,6.92,,,2018_Sep_13_1500,59.6298250906,verb_norming_L2-eng_oral_translation,001,808,
STOMP,,,0,26,26,104,,,,,,,return,3.89127277382,2018_Sep_13_1500,59.6298250906,verb_norming_L2-eng_oral_translation,001,808,
CLUTCH,Arm,arm,0,27,27,11,0,0,0,0,2,11.262,,,2018_Sep_13_1500,59.6298250906,verb_norming_L2-eng_oral_translation,001,808,
CLUTCH,Leg,leg,0,27,27,11,0,1,1,1,7,2.544,,,2018_Sep_13_1500,59.6298250906,verb_norming_L2-eng_oral_translation,001,808,
CLUTCH,,,0,27,27,11,,,,,,,return,5.26646005336,2018_Sep_13_1500,59.6298250906,verb_norming_L2-eng_oral_translation,001,808,
KICK,Arm,arm,0,28,28,75,0,0,0,0,7,7.204,,,2018_Sep_13_1500,59.6298250906,verb_norming_L2-eng_oral_translation,001,808,
KICK,Leg,leg,0,28,28,75,0,1,1,1,7,0.817,,,2018_Sep_13_1500,59.6298250906,verb_norming_L2-eng_oral_translation,001,808,
KICK,,,0,28,28,75,,,,,,,return,2.39851820009,2018_Sep_13_1500,59.6298250906,verb_norming_L2-eng_oral_translation,001,808,
PRANCE,Arm,arm,0,29,29,85,0,0,0,0,4,5.541,,,2018_Sep_13_1500,59.6298250906,verb_norming_L2-eng_oral_translation,001,808,
PRANCE,Leg,leg,0,29,29,85,0,1,1,1,4,0.983,,,2018_Sep_13_1500,59.6298250906,verb_norming_L2-eng_oral_translation,001,808,
PRANCE,,,0,29,29,85,,,,,,,return,2.73400616995,2018_Sep_13_1500,59.6298250906,verb_norming_L2-eng_oral_translation,001,808,
SWITCH,Arm,arm,0,30,30,51,0,0,0,0,6,6.768,,,2018_Sep_13_1500,59.6298250906,verb_norming_L2-eng_oral_translation,001,808,
SWITCH,Leg,leg,0,30,30,51,0,1,1,1,7,2.577,,,2018_Sep_13_1500,59.6298250906,verb_norming_L2-eng_oral_translation,001,808,
SWITCH,,,0,30,30,51,,,,,,,return,2.63343785164,2018_Sep_13_1500,59.6298250906,verb_norming_L2-eng_oral_translation,001,808,
DIG,Arm,arm,0,31,31,13,0,0,0,0,7,7.807,,,2018_Sep_13_1500,59.6298250906,verb_norming_L2-eng_oral_translation,001,808,
DIG,Leg,leg,0,31,31,13,0,1,1,1,5,9.89,,,2018_Sep_13_1500,59.6298250906,verb_norming_L2-eng_oral_translation,001,808,
DIG,,,0,31,31,13,,,,,,,return,2.80120119669,2018_Sep_13_1500,59.6298250906,verb_norming_L2-eng_oral_translation,001,808,
DUNK,Arm,arm,0,32,32,14,0,0,0,0,6,7.655,,,2018_Sep_13_1500,59.6298250906,verb_norming_L2-eng_oral_translation,001,808,
DUNK,Leg,leg,0,32,32,14,0,1,1,1,2,1.772,,,2018_Sep_13_1500,59.6298250906,verb_norming_L2-eng_oral_translation,001,808,
DUNK,,,0,32,32,14,,,,,,,return,9.09014546167,2018_Sep_13_1500,59.6298250906,verb_norming_L2-eng_oral_translation,001,808,
FOLD,Arm,arm,0,33,33,16,0,0,0,0,7,5.058,,,2018_Sep_13_1500,59.6298250906,verb_norming_L2-eng_oral_translation,001,808,
FOLD,Leg,leg,0,33,33,16,0,1,1,1,3,3.685,,,2018_Sep_13_1500,59.6298250906,verb_norming_L2-eng_oral_translation,001,808,
FOLD,,,0,33,33,16,,,,,,,return,2.86812518175,2018_Sep_13_1500,59.6298250906,verb_norming_L2-eng_oral_translation,001,808,
CHOP,Arm,arm,0,34,34,6,0,0,0,0,7,6.215,,,2018_Sep_13_1500,59.6298250906,verb_norming_L2-eng_oral_translation,001,808,
CHOP,Leg,leg,0,34,34,6,0,1,1,1,2,16.062,,,2018_Sep_13_1500,59.6298250906,verb_norming_L2-eng_oral_translation,001,808,
CHOP,,,0,34,34,6,,,,,,,return,7.22886902128,2018_Sep_13_1500,59.6298250906,verb_norming_L2-eng_oral_translation,001,808,
CLICK,Arm,arm,0,35,35,10,0,0,0,0,7,14.264,,,2018_Sep_13_1500,59.6298250906,verb_norming_L2-eng_oral_translation,001,808,
CLICK,Leg,leg,0,35,35,10,0,1,1,1,2,4.742,,,2018_Sep_13_1500,59.6298250906,verb_norming_L2-eng_oral_translation,001,808,
CLICK,,,0,35,35,10,,,,,,,return,5.70253886248,2018_Sep_13_1500,59.6298250906,verb_norming_L2-eng_oral_translation,001,808,
BOUNCE,Arm,arm,0,36,36,60,0,0,0,0,7,3.797,,,2018_Sep_13_1500,59.6298250906,verb_norming_L2-eng_oral_translation,001,808,
BOUNCE,Leg,leg,0,36,36,60,0,1,1,1,7,2.928,,,2018_Sep_13_1500,59.6298250906,verb_norming_L2-eng_oral_translation,001,808,
BOUNCE,,,0,36,36,60,,,,,,,return,2.16381901685,2018_Sep_13_1500,59.6298250906,verb_norming_L2-eng_oral_translation,001,808,
TOTTER,Arm,arm,0,37,37,114,0,0,0,0,6,6.247,,,2018_Sep_13_1500,59.6298250906,verb_norming_L2-eng_oral_translation,001,808,
TOTTER,Leg,leg,0,37,37,114,0,1,1,1,4,6.099,,,2018_Sep_13_1500,59.6298250906,verb_norming_L2-eng_oral_translation,001,808,
TOTTER,,,0,37,37,114,,,,,,,return,7.06089587574,2018_Sep_13_1500,59.6298250906,verb_norming_L2-eng_oral_translation,001,808,
BIND,Arm,arm,0,38,38,1,0,0,0,0,7,4.754,,,2018_Sep_13_1500,59.6298250906,verb_norming_L2-eng_oral_translation,001,808,
BIND,Leg,leg,0,38,38,1,0,1,1,1,4,1.923,,,2018_Sep_13_1500,59.6298250906,verb_norming_L2-eng_oral_translation,001,808,
BIND,,,0,38,38,1,,,,,,,return,6.1720814421,2018_Sep_13_1500,59.6298250906,verb_norming_L2-eng_oral_translation,001,808,
JUMP,Arm,arm,0,39,39,74,0,0,0,0,3,4.568,,,2018_Sep_13_1500,59.6298250906,verb_norming_L2-eng_oral_translation,001,808,
JUMP,Leg,leg,0,39,39,74,0,1,1,1,7,2.459,,,2018_Sep_13_1500,59.6298250906,verb_norming_L2-eng_oral_translation,001,808,
JUMP,,,0,39,39,74,,,,,,,return,4.12595141163,2018_Sep_13_1500,59.6298250906,verb_norming_L2-eng_oral_translation,001,808,
WIPE,Arm,arm,0,40,40,58,0,0,0,0,7,6.299,,,2018_Sep_13_1500,59.6298250906,verb_norming_L2-eng_oral_translation,001,808,
WIPE,Leg,leg,0,40,40,58,0,1,1,1,6,3.065,,,2018_Sep_13_1500,59.6298250906,verb_norming_L2-eng_oral_translation,001,808,
WIPE,,,0,40,40,58,,,,,,,return,2.91844885135,2018_Sep_13_1500,59.6298250906,verb_norming_L2-eng_oral_translation,001,808,
SQUAT,Arm,arm,0,41,41,99,0,0,0,0,4,21.61,,,2018_Sep_13_1500,59.6298250906,verb_norming_L2-eng_oral_translation,001,808,
SQUAT,Leg,leg,0,41,41,99,0,1,1,1,4,4.775,,,2018_Sep_13_1500,59.6298250906,verb_norming_L2-eng_oral_translation,001,808,
SQUAT,,,0,41,41,99,,,,,,,return,13.6348392873,2018_Sep_13_1500,59.6298250906,verb_norming_L2-eng_oral_translation,001,808,
SAUNTER,Arm,arm,0,42,42,90,0,0,0,0,4,4.568,,,2018_Sep_13_1500,59.6298250906,verb_norming_L2-eng_oral_translation,001,808,
SAUNTER,Leg,leg,0,42,42,90,0,1,1,1,4,1.284,,,2018_Sep_13_1500,59.6298250906,verb_norming_L2-eng_oral_translation,001,808,
SAUNTER,,,0,42,42,90,,,,,,,return,2.39830681919,2018_Sep_13_1500,59.6298250906,verb_norming_L2-eng_oral_translation,001,808,
STRAY,Arm,arm,0,43,43,106,0,0,0,0,6,4.555,,,2018_Sep_13_1500,59.6298250906,verb_norming_L2-eng_oral_translation,001,808,
STRAY,Leg,leg,0,43,43,106,0,1,1,1,2,7.978,,,2018_Sep_13_1500,59.6298250906,verb_norming_L2-eng_oral_translation,001,808,
STRAY,,,0,43,43,106,,,,,,,return,4.6627688291,2018_Sep_13_1500,59.6298250906,verb_norming_L2-eng_oral_translation,001,808,
STRADDLE,Arm,arm,0,44,44,105,0,0,0,0,4,10.556,,,2018_Sep_13_1500,59.6298250906,verb_norming_L2-eng_oral_translation,001,808,
STRADDLE,Leg,leg,0,44,44,105,0,1,1,1,4,2.258,,,2018_Sep_13_1500,59.6298250906,verb_norming_L2-eng_oral_translation,001,808,
STRADDLE,,,0,44,44,105,,,,,,,return,2.31468097682,2018_Sep_13_1500,59.6298250906,verb_norming_L2-eng_oral_translation,001,808,
BRUSH,Arm,arm,0,45,45,3,0,0,0,0,7,3.9,,,2018_Sep_13_1500,59.6298250906,verb_norming_L2-eng_oral_translation,001,808,
BRUSH,Leg,leg,0,45,45,3,0,1,1,1,3,2.375,,,2018_Sep_13_1500,59.6298250906,verb_norming_L2-eng_oral_translation,001,808,
BRUSH,,,0,45,45,3,,,,,,,return,2.48252097215,2018_Sep_13_1500,59.6298250906,verb_norming_L2-eng_oral_translation,001,808,
HIKE,Arm,arm,0,46,46,69,0,0,0,0,6,5.242,,,2018_Sep_13_1500,59.6298250906,verb_norming_L2-eng_oral_translation,001,808,
HIKE,Leg,leg,0,46,46,69,0,1,1,1,7,1.001,,,2018_Sep_13_1500,59.6298250906,verb_norming_L2-eng_oral_translation,001,808,
HIKE,,,0,46,46,69,,,,,,,return,7.61437208413,2018_Sep_13_1500,59.6298250906,verb_norming_L2-eng_oral_translation,001,808,
ROW,Arm,arm,0,47,47,36,0,0,0,0,7,4.555,,,2018_Sep_13_1500,59.6298250906,verb_norming_L2-eng_oral_translation,001,808,
ROW,Leg,leg,0,47,47,36,0,1,1,1,7,4.927,,,2018_Sep_13_1500,59.6298250906,verb_norming_L2-eng_oral_translation,001,808,
ROW,,,0,47,47,36,,,,,,,return,4.54544215354,2018_Sep_13_1500,59.6298250906,verb_norming_L2-eng_oral_translation,001,808,
STRIDE,Arm,arm,0,48,48,107,0,0,0,0,3,7.79,,,2018_Sep_13_1500,59.6298250906,verb_norming_L2-eng_oral_translation,001,808,
STRIDE,Leg,leg,0,48,48,107,0,1,1,1,6,9.94,,,2018_Sep_13_1500,59.6298250906,verb_norming_L2-eng_oral_translation,001,808,
STRIDE,,,0,48,48,107,,,,,,,return,4.24348314642,2018_Sep_13_1500,59.6298250906,verb_norming_L2-eng_oral_translation,001,808,
MARCH,Arm,arm,0,49,49,80,0,0,0,0,6,7.672,,,2018_Sep_13_1500,59.6298250906,verb_norming_L2-eng_oral_translation,001,808,
MARCH,Leg,leg,0,49,49,80,0,1,1,1,7,1.638,,,2018_Sep_13_1500,59.6298250906,verb_norming_L2-eng_oral_translation,001,808,
MARCH,,,0,49,49,80,,,,,,,return,3.7904480327,2018_Sep_13_1500,59.6298250906,verb_norming_L2-eng_oral_translation,001,808,
SLAP,Arm,arm,0,50,50,46,0,0,0,0,7,4.219,,,2018_Sep_13_1500,59.6298250906,verb_norming_L2-eng_oral_translation,001,808,
SLAP,Leg,leg,0,50,50,46,0,1,1,1,3,3.467,,,2018_Sep_13_1500,59.6298250906,verb_norming_L2-eng_oral_translation,001,808,
SLAP,,,0,50,50,46,,,,,,,return,3.30427748031,2018_Sep_13_1500,59.6298250906,verb_norming_L2-eng_oral_translation,001,808,
WANDER,Arm,arm,0,51,51,126,0,0,0,0,6,4.871,,,2018_Sep_13_1500,59.6298250906,verb_norming_L2-eng_oral_translation,001,808,
WANDER,Leg,leg,0,51,51,126,0,1,1,1,7,4.219,,,2018_Sep_13_1500,59.6298250906,verb_norming_L2-eng_oral_translation,001,808,
WANDER,,,0,51,51,126,,,,,,,return,4.67952046957,2018_Sep_13_1500,59.6298250906,verb_norming_L2-eng_oral_translation,001,808,
WADDLE,Arm,arm,0,52,52,123,0,0,0,0,4,2.658,,,2018_Sep_13_1500,59.6298250906,verb_norming_L2-eng_oral_translation,001,808,
WADDLE,Leg,leg,0,52,52,123,0,1,1,1,4,1.018,,,2018_Sep_13_1500,59.6298250906,verb_norming_L2-eng_oral_translation,001,808,
WADDLE,,,0,52,52,123,,,,,,,return,2.49929789931,2018_Sep_13_1500,59.6298250906,verb_norming_L2-eng_oral_translation,001,808,
FLEE,Arm,arm,0,53,53,66,0,0,0,0,6,5.996,,,2018_Sep_13_1500,59.6298250906,verb_norming_L2-eng_oral_translation,001,808,
FLEE,Leg,leg,0,53,53,66,0,1,1,1,7,1.555,,,2018_Sep_13_1500,59.6298250906,verb_norming_L2-eng_oral_translation,001,808,
FLEE,,,0,53,53,66,,,,,,,return,3.50554094547,2018_Sep_13_1500,59.6298250906,verb_norming_L2-eng_oral_translation,001,808,
PLUCK,Arm,arm,0,54,54,30,0,0,0,0,4,2.558,,,2018_Sep_13_1500,59.6298250906,verb_norming_L2-eng_oral_translation,001,808,
PLUCK,Leg,leg,0,54,54,30,0,1,1,1,4,0.815,,,2018_Sep_13_1500,59.6298250906,verb_norming_L2-eng_oral_translation,001,808,
PLUCK,,,0,54,54,30,,,,,,,return,4.05880932889,2018_Sep_13_1500,59.6298250906,verb_norming_L2-eng_oral_translation,001,808,
DASH,Arm,arm,0,55,55,65,0,0,0,0,7,3.616,,,2018_Sep_13_1500,59.6298250906,verb_norming_L2-eng_oral_translation,001,808,
DASH,Leg,leg,0,55,55,65,0,1,1,1,3,4.792,,,2018_Sep_13_1500,59.6298250906,verb_norming_L2-eng_oral_translation,001,808,
DASH,,,0,55,55,65,,,,,,,return,4.44471776896,2018_Sep_13_1500,59.6298250906,verb_norming_L2-eng_oral_translation,001,808,
POLISH,Arm,arm,0,56,56,32,0,0,0,0,7,2.507,,,2018_Sep_13_1500,59.6298250906,verb_norming_L2-eng_oral_translation,001,808,
POLISH,Leg,leg,0,56,56,32,0,1,1,1,1,2.528,,,2018_Sep_13_1500,59.6298250906,verb_norming_L2-eng_oral_translation,001,808,
POLISH,,,0,56,56,32,,,,,,,return,2.75084078237,2018_Sep_13_1500,59.6298250906,verb_norming_L2-eng_oral_translation,001,808,
MOUNT,Arm,arm,0,57,57,81,0,0,0,0,6,4.753,,,2018_Sep_13_1500,59.6298250906,verb_norming_L2-eng_oral_translation,001,808,
MOUNT,Leg,leg,0,57,57,81,0,1,1,1,7,1.151,,,2018_Sep_13_1500,59.6298250906,verb_norming_L2-eng_oral_translation,001,808,
MOUNT,,,0,57,57,81,,,,,,,return,5.09886146688,2018_Sep_13_1500,59.6298250906,verb_norming_L2-eng_oral_translation,001,808,
SNATCH,Arm,arm,0,58,58,47,0,0,0,0,7,5.29,,,2018_Sep_13_1500,59.6298250906,verb_norming_L2-eng_oral_translation,001,808,
SNATCH,Leg,leg,0,58,58,47,0,1,1,1,2,1.62,,,2018_Sep_13_1500,59.6298250906,verb_norming_L2-eng_oral_translation,001,808,
SNATCH,,,0,58,58,47,,,,,,,return,5.38394872176,2018_Sep_13_1500,59.6298250906,verb_norming_L2-eng_oral_translation,001,808,
STAB,Arm,arm,0,59,59,49,0,0,0,0,7,5.208,,,2018_Sep_13_1500,59.6298250906,verb_norming_L2-eng_oral_translation,001,808,
STAB,Leg,leg,0,59,59,49,0,1,1,1,3,6.402,,,2018_Sep_13_1500,59.6298250906,verb_norming_L2-eng_oral_translation,001,808,
STAB,,,0,59,59,49,,,,,,,return,5.68561416623,2018_Sep_13_1500,59.6298250906,verb_norming_L2-eng_oral_translation,001,808,
SWAY,Arm,arm,0,60,60,111,0,0,0,0,7,3.834,,,2018_Sep_13_1500,59.6298250906,verb_norming_L2-eng_oral_translation,001,808,
SWAY,Leg,leg,0,60,60,111,0,1,1,1,3,2.629,,,2018_Sep_13_1500,59.6298250906,verb_norming_L2-eng_oral_translation,001,808,
SWAY,,,0,60,60,111,,,,,,,return,3.90807301215,2018_Sep_13_1500,59.6298250906,verb_norming_L2-eng_oral_translation,001,808,
TODDLE,Arm,arm,0,61,61,113,0,0,0,0,6,7.355,,,2018_Sep_13_1500,59.6298250906,verb_norming_L2-eng_oral_translation,001,808,
TODDLE,Leg,leg,0,61,61,113,0,1,1,1,2,3.969,,,2018_Sep_13_1500,59.6298250906,verb_norming_L2-eng_oral_translation,001,808,
TODDLE,,,0,61,61,113,,,,,,,return,4.22670305842,2018_Sep_13_1500,59.6298250906,verb_norming_L2-eng_oral_translation,001,808,
CUT,Arm,arm,0,62,62,12,0,0,0,0,7,4.186,,,2018_Sep_13_1500,59.6298250906,verb_norming_L2-eng_oral_translation,001,808,
CUT,Leg,leg,0,62,62,12,0,1,1,1,6,2.428,,,2018_Sep_13_1500,59.6298250906,verb_norming_L2-eng_oral_translation,001,808,
CUT,,,0,62,62,12,,,,,,,return,3.069396549,2018_Sep_13_1500,59.6298250906,verb_norming_L2-eng_oral_translation,001,808,
TOSS,Arm,arm,0,63,63,53,0,0,0,0,7,5.242,,,2018_Sep_13_1500,59.6298250906,verb_norming_L2-eng_oral_translation,001,808,
TOSS,Leg,leg,0,63,63,53,0,1,1,1,4,3.063,,,2018_Sep_13_1500,59.6298250906,verb_norming_L2-eng_oral_translation,001,808,
TOSS,,,0,63,63,53,,,,,,,return,2.71728179169,2018_Sep_13_1500,59.6298250906,verb_norming_L2-eng_oral_translation,001,808,
STAND,Arm,arm,0,64,64,102,0,0,0,0,4,7.655,,,2018_Sep_13_1500,59.6298250906,verb_norming_L2-eng_oral_translation,001,808,
STAND,Leg,leg,0,64,64,102,0,1,1,1,7,1.872,,,2018_Sep_13_1500,59.6298250906,verb_norming_L2-eng_oral_translation,001,808,
STAND,,,0,64,64,102,,,,,,,return,3.63970618449,2018_Sep_13_1500,59.6298250906,verb_norming_L2-eng_oral_translation,001,808,
THROW,Arm,arm,0,65,65,52,0,0,0,0,7,3.045,,,2018_Sep_13_1500,59.6298250906,verb_norming_L2-eng_oral_translation,001,808,
THROW,Leg,leg,0,65,65,52,0,1,1,1,3,2.41,,,2018_Sep_13_1500,59.6298250906,verb_norming_L2-eng_oral_translation,001,808,
THROW,,,0,65,65,52,,,,,,,return,3.20338241058,2018_Sep_13_1500,59.6298250906,verb_norming_L2-eng_oral_translation,001,808,
LUMBER,Arm,arm,0,66,66,79,0,0,0,0,3,8.443,,,2018_Sep_13_1500,59.6298250906,verb_norming_L2-eng_oral_translation,001,808,
LUMBER,Leg,leg,0,66,66,79,0,1,1,1,6,2.274,,,2018_Sep_13_1500,59.6298250906,verb_norming_L2-eng_oral_translation,001,808,
LUMBER,,,0,66,66,79,,,,,,,return,4.10916934811,2018_Sep_13_1500,59.6298250906,verb_norming_L2-eng_oral_translation,001,808,
LEAP,Arm,arm,0,67,67,77,0,0,0,0,4,7.271,,,2018_Sep_13_1500,59.6298250906,verb_norming_L2-eng_oral_translation,001,808,
LEAP,Leg,leg,0,67,67,77,0,1,1,1,7,3.115,,,2018_Sep_13_1500,59.6298250906,verb_norming_L2-eng_oral_translation,001,808,
LEAP,,,0,67,67,77,,,,,,,return,3.0527831951,2018_Sep_13_1500,59.6298250906,verb_norming_L2-eng_oral_translation,001,808,
STAMP,Arm,arm,0,68,68,101,0,0,0,0,4,10.154,,,2018_Sep_13_1500,59.6298250906,verb_norming_L2-eng_oral_translation,001,808,
STAMP,Leg,leg,0,68,68,101,0,1,1,1,6,2.426,,,2018_Sep_13_1500,59.6298250906,verb_norming_L2-eng_oral_translation,001,808,
STAMP,,,0,68,68,101,,,,,,,return,4.86400542716,2018_Sep_13_1500,59.6298250906,verb_norming_L2-eng_oral_translation,001,808,
GROVEL,Arm,arm,0,69,69,68,0,0,0,0,4,6.783,,,2018_Sep_13_1500,59.6298250906,verb_norming_L2-eng_oral_translation,001,808,
GROVEL,Leg,leg,0,69,69,68,0,1,1,1,6,4.304,,,2018_Sep_13_1500,59.6298250906,verb_norming_L2-eng_oral_translation,001,808,
GROVEL,,,0,69,69,68,,,,,,,return,6.47382867321,2018_Sep_13_1500,59.6298250906,verb_norming_L2-eng_oral_translation,001,808,
PACE,Arm,arm,0,70,70,82,0,0,0,0,6,5.057,,,2018_Sep_13_1500,59.6298250906,verb_norming_L2-eng_oral_translation,001,808,
PACE,Leg,leg,0,70,70,82,0,1,1,1,7,1.22,,,2018_Sep_13_1500,59.6298250906,verb_norming_L2-eng_oral_translation,001,808,
PACE,,,0,70,70,82,,,,,,,return,3.69000733314,2018_Sep_13_1500,59.6298250906,verb_norming_L2-eng_oral_translation,001,808,
CREEP,Arm,arm,0,71,71,61,0,0,0,0,5,3.632,,,2018_Sep_13_1500,59.6298250906,verb_norming_L2-eng_oral_translation,001,808,
CREEP,Leg,leg,0,71,71,61,0,1,1,1,7,2.478,,,2018_Sep_13_1500,59.6298250906,verb_norming_L2-eng_oral_translation,001,808,
CREEP,,,0,71,71,61,,,,,,,return,4.64597333203,2018_Sep_13_1500,59.6298250906,verb_norming_L2-eng_oral_translation,001,808,
SHAMBLE,Arm,arm,0,72,72,91,0,0,0,0,4,6.329,,,2018_Sep_13_1500,59.6298250906,verb_norming_L2-eng_oral_translation,001,808,
SHAMBLE,Leg,leg,0,72,72,91,0,1,1,1,4,0.798,,,2018_Sep_13_1500,59.6298250906,verb_norming_L2-eng_oral_translation,001,808,
SHAMBLE,,,0,72,72,91,,,,,,,return,2.88503091298,2018_Sep_13_1500,59.6298250906,verb_norming_L2-eng_oral_translation,001,808,
CYCLE,Arm,arm,0,73,73,63,0,0,0,0,6,3.598,,,2018_Sep_13_1500,59.6298250906,verb_norming_L2-eng_oral_translation,001,808,
CYCLE,Leg,leg,0,73,73,63,0,1,1,1,7,2.763,,,2018_Sep_13_1500,59.6298250906,verb_norming_L2-eng_oral_translation,001,808,
CYCLE,,,0,73,73,63,,,,,,,return,2.86825754176,2018_Sep_13_1500,59.6298250906,verb_norming_L2-eng_oral_translation,001,808,
TRUDGE,Arm,arm,0,74,74,122,0,0,0,0,4,6.581,,,2018_Sep_13_1500,59.6298250906,verb_norming_L2-eng_oral_translation,001,808,
TRUDGE,Leg,leg,0,74,74,122,0,1,1,1,4,0.479,,,2018_Sep_13_1500,59.6298250906,verb_norming_L2-eng_oral_translation,001,808,
TRUDGE,,,0,74,74,122,,,,,,,return,9.02312823195,2018_Sep_13_1500,59.6298250906,verb_norming_L2-eng_oral_translation,001,808,
GRATE,Arm,arm,0,75,75,20,0,0,0,0,6,6.331,,,2018_Sep_13_1500,59.6298250906,verb_norming_L2-eng_oral_translation,001,808,
GRATE,Leg,leg,0,75,75,20,0,1,1,1,3,2.409,,,2018_Sep_13_1500,59.6298250906,verb_norming_L2-eng_oral_translation,001,808,
GRATE,,,0,75,75,20,,,,,,,return,5.18260544549,2018_Sep_13_1500,59.6298250906,verb_norming_L2-eng_oral_translation,001,808,
TREAD,Arm,arm,0,76,76,118,0,0,0,0,4,10.843,,,2018_Sep_13_1500,59.6298250906,verb_norming_L2-eng_oral_translation,001,808,
TREAD,Leg,leg,0,76,76,118,0,1,1,1,4,1.001,,,2018_Sep_13_1500,59.6298250906,verb_norming_L2-eng_oral_translation,001,808,
TREAD,,,0,76,76,118,,,,,,,return,2.01294243802,2018_Sep_13_1500,59.6298250906,verb_norming_L2-eng_oral_translation,001,808,
HACK,Arm,arm,0,77,77,22,0,0,0,0,6,12.554,,,2018_Sep_13_1500,59.6298250906,verb_norming_L2-eng_oral_translation,001,808,
HACK,Leg,leg,0,77,77,22,0,1,1,1,5,1.236,,,2018_Sep_13_1500,59.6298250906,verb_norming_L2-eng_oral_translation,001,808,
HACK,,,0,77,77,22,,,,,,,return,8.48625747538,2018_Sep_13_1500,59.6298250906,verb_norming_L2-eng_oral_translation,001,808,
SLIDE,Arm,arm,0,78,78,94,0,0,0,0,6,4.454,,,2018_Sep_13_1500,59.6298250906,verb_norming_L2-eng_oral_translation,001,808,
SLIDE,Leg,leg,0,78,78,94,0,1,1,1,7,1.102,,,2018_Sep_13_1500,59.6298250906,verb_norming_L2-eng_oral_translation,001,808,
SLIDE,,,0,78,78,94,,,,,,,return,5.24977400023,2018_Sep_13_1500,59.6298250906,verb_norming_L2-eng_oral_translation,001,808,
PUSH,Arm,arm,0,79,79,35,0,0,0,0,7,4.705,,,2018_Sep_13_1500,59.6298250906,verb_norming_L2-eng_oral_translation,001,808,
PUSH,Leg,leg,0,79,79,35,0,1,1,1,3,2.73,,,2018_Sep_13_1500,59.6298250906,verb_norming_L2-eng_oral_translation,001,808,
PUSH,,,0,79,79,35,,,,,,,return,5.1323181255,2018_Sep_13_1500,59.6298250906,verb_norming_L2-eng_oral_translation,001,808,
GRAB,Arm,arm,0,80,80,18,0,0,0,0,7,4.252,,,2018_Sep_13_1500,59.6298250906,verb_norming_L2-eng_oral_translation,001,808,
GRAB,Leg,leg,0,80,80,18,0,1,1,1,2,1.622,,,2018_Sep_13_1500,59.6298250906,verb_norming_L2-eng_oral_translation,001,808,
GRAB,,,0,80,80,18,,,,,,,return,8.28511925834,2018_Sep_13_1500,59.6298250906,verb_norming_L2-eng_oral_translation,001,808,
KNEEL,Arm,arm,0,81,81,76,0,0,0,0,3,6.496,,,2018_Sep_13_1500,59.6298250906,verb_norming_L2-eng_oral_translation,001,808,
KNEEL,Leg,leg,0,81,81,76,0,1,1,1,7,1.554,,,2018_Sep_13_1500,59.6298250906,verb_norming_L2-eng_oral_translation,001,808,
KNEEL,,,0,81,81,76,,,,,,,return,5.23281334948,2018_Sep_13_1500,59.6298250906,verb_norming_L2-eng_oral_translation,001,808,
GESTURE,Arm,arm,0,82,82,17,0,0,0,0,7,3.579,,,2018_Sep_13_1500,59.6298250906,verb_norming_L2-eng_oral_translation,001,808,
GESTURE,Leg,leg,0,82,82,17,0,1,1,1,1,2.307,,,2018_Sep_13_1500,59.6298250906,verb_norming_L2-eng_oral_translation,001,808,
GESTURE,,,0,82,82,17,,,,,,,return,3.8239916143,2018_Sep_13_1500,59.6298250906,verb_norming_L2-eng_oral_translation,001,808,
RAMBLE,Arm,arm,0,83,83,86,0,0,0,0,6,6.85,,,2018_Sep_13_1500,59.6298250906,verb_norming_L2-eng_oral_translation,001,808,
RAMBLE,Leg,leg,0,83,83,86,0,1,1,1,3,1.453,,,2018_Sep_13_1500,59.6298250906,verb_norming_L2-eng_oral_translation,001,808,
RAMBLE,,,0,83,83,86,,,,,,,return,5.71912258354,2018_Sep_13_1500,59.6298250906,verb_norming_L2-eng_oral_translation,001,808,
TWINE,Arm,arm,0,84,84,55,0,0,0,0,7,7.135,,,2018_Sep_13_1500,59.6298250906,verb_norming_L2-eng_oral_translation,001,808,
TWINE,Leg,leg,0,84,84,55,0,1,1,1,2,1.218,,,2018_Sep_13_1500,59.6298250906,verb_norming_L2-eng_oral_translation,001,808,
TWINE,,,0,84,84,55,,,,,,,return,4.34418461495,2018_Sep_13_1500,59.6298250906,verb_norming_L2-eng_oral_translation,001,808,
PAT,Arm,arm,0,85,85,27,0,0,0,0,7,8.093,,,2018_Sep_13_1500,59.6298250906,verb_norming_L2-eng_oral_translation,001,808,
PAT,Leg,leg,0,85,85,27,0,1,1,1,2,2.294,,,2018_Sep_13_1500,59.6298250906,verb_norming_L2-eng_oral_translation,001,808,
PAT,,,0,85,85,27,,,,,,,return,2.8012987875,2018_Sep_13_1500,59.6298250906,verb_norming_L2-eng_oral_translation,001,808,
WADE,Arm,arm,0,86,86,124,0,0,0,0,4,4.404,,,2018_Sep_13_1500,59.6298250906,verb_norming_L2-eng_oral_translation,001,808,
WADE,Leg,leg,0,86,86,124,0,1,1,1,7,1.891,,,2018_Sep_13_1500,59.6298250906,verb_norming_L2-eng_oral_translation,001,808,
WADE,,,0,86,86,124,,,,,,,return,4.88068239288,2018_Sep_13_1500,59.6298250906,verb_norming_L2-eng_oral_translation,001,808,
SNEAK,Arm,arm,0,87,87,97,0,0,0,0,3,8.192,,,2018_Sep_13_1500,59.6298250906,verb_norming_L2-eng_oral_translation,001,808,
SNEAK,Leg,leg,0,87,87,97,0,1,1,1,7,2.107,,,2018_Sep_13_1500,59.6298250906,verb_norming_L2-eng_oral_translation,001,808,
SNEAK,,,0,87,87,97,,,,,,,return,8.16781786947,2018_Sep_13_1500,59.6298250906,verb_norming_L2-eng_oral_translation,001,808,
ROAM,Arm,arm,0,88,88,87,0,0,0,0,3,5.677,,,2018_Sep_13_1500,59.6298250906,verb_norming_L2-eng_oral_translation,001,808,
ROAM,Leg,leg,0,88,88,87,0,1,1,1,2,3.499,,,2018_Sep_13_1500,59.6298250906,verb_norming_L2-eng_oral_translation,001,808,
ROAM,,,0,88,88,87,,,,,,,return,3.03569690112,2018_Sep_13_1500,59.6298250906,verb_norming_L2-eng_oral_translation,001,808,
SIGN,Arm,arm,0,89,89,44,0,0,0,0,7,2.554,,,2018_Sep_13_1500,59.6298250906,verb_norming_L2-eng_oral_translation,001,808,
SIGN,Leg,leg,0,89,89,44,0,1,1,1,1,2.775,,,2018_Sep_13_1500,59.6298250906,verb_norming_L2-eng_oral_translation,001,808,
SIGN,,,0,89,89,44,,,,,,,return,2.09677412982,2018_Sep_13_1500,59.6298250906,verb_norming_L2-eng_oral_translation,001,808,
TRAMP,Arm,arm,0,90,90,116,0,0,0,0,4,5.207,,,2018_Sep_13_1500,59.6298250906,verb_norming_L2-eng_oral_translation,001,808,
TRAMP,Leg,leg,0,90,90,116,0,1,1,1,4,0.648,,,2018_Sep_13_1500,59.6298250906,verb_norming_L2-eng_oral_translation,001,808,
TRAMP,,,0,90,90,116,,,,,,,return,5.9205172234,2018_Sep_13_1500,59.6298250906,verb_norming_L2-eng_oral_translation,001,808,
CLAP,Arm,arm,0,91,91,7,0,0,0,0,7,7.221,,,2018_Sep_13_1500,59.6298250906,verb_norming_L2-eng_oral_translation,001,808,
CLAP,Leg,leg,0,91,91,7,0,1,1,1,3,0.75,,,2018_Sep_13_1500,59.6298250906,verb_norming_L2-eng_oral_translation,001,808,
CLAP,,,0,91,91,7,,,,,,,return,6.18872640436,2018_Sep_13_1500,59.6298250906,verb_norming_L2-eng_oral_translation,001,808,
HUG,Arm,arm,0,92,92,23,0,0,0,0,7,2.927,,,2018_Sep_13_1500,59.6298250906,verb_norming_L2-eng_oral_translation,001,808,
HUG,Leg,leg,0,92,92,23,0,1,1,1,1,2.661,,,2018_Sep_13_1500,59.6298250906,verb_norming_L2-eng_oral_translation,001,808,
HUG,,,0,92,92,23,,,,,,,return,4.02548740091,2018_Sep_13_1500,59.6298250906,verb_norming_L2-eng_oral_translation,001,808,
PUNCH,Arm,arm,0,93,93,34,0,0,0,0,7,4.301,,,2018_Sep_13_1500,59.6298250906,verb_norming_L2-eng_oral_translation,001,808,
PUNCH,Leg,leg,0,93,93,34,0,1,1,1,6,1.973,,,2018_Sep_13_1500,59.6298250906,verb_norming_L2-eng_oral_translation,001,808,
PUNCH,,,0,93,93,34,,,,,,,return,5.38375828139,2018_Sep_13_1500,59.6298250906,verb_norming_L2-eng_oral_translation,001,808,
HOBBLE,Arm,arm,0,94,94,70,0,0,0,0,4,2.793,,,2018_Sep_13_1500,59.6298250906,verb_norming_L2-eng_oral_translation,001,808,
HOBBLE,Leg,leg,0,94,94,70,0,1,1,1,4,0.598,,,2018_Sep_13_1500,59.6298250906,verb_norming_L2-eng_oral_translation,001,808,
HOBBLE,,,0,94,94,70,,,,,,,return,2.24777398126,2018_Sep_13_1500,59.6298250906,verb_norming_L2-eng_oral_translation,001,808,
POKE,Arm,arm,0,95,95,31,0,0,0,0,7,8.11,,,2018_Sep_13_1500,59.6298250906,verb_norming_L2-eng_oral_translation,001,808,
POKE,Leg,leg,0,95,95,31,0,1,1,1,2,1.622,,,2018_Sep_13_1500,59.6298250906,verb_norming_L2-eng_oral_translation,001,808,
POKE,,,0,95,95,31,,,,,,,return,19.2365597303,2018_Sep_13_1500,59.6298250906,verb_norming_L2-eng_oral_translation,001,808,
WHIP,Arm,arm,0,96,96,57,0,0,0,0,7,4.471,,,2018_Sep_13_1500,59.6298250906,verb_norming_L2-eng_oral_translation,001,808,
WHIP,Leg,leg,0,96,96,57,0,1,1,1,4,0.969,,,2018_Sep_13_1500,59.6298250906,verb_norming_L2-eng_oral_translation,001,808,
WHIP,,,0,96,96,57,,,,,,,return,3.62272735893,2018_Sep_13_1500,59.6298250906,verb_norming_L2-eng_oral_translation,001,808,
GRIP,Arm,arm,0,97,97,21,0,0,0,0,7,2.608,,,2018_Sep_13_1500,59.6298250906,verb_norming_L2-eng_oral_translation,001,808,
GRIP,Leg,leg,0,97,97,21,0,1,1,1,4,0.984,,,2018_Sep_13_1500,59.6298250906,verb_norming_L2-eng_oral_translation,001,808,
GRIP,,,0,97,97,21,,,,,,,return,2.6669593074,2018_Sep_13_1500,59.6298250906,verb_norming_L2-eng_oral_translation,001,808,
SHAKE,Arm,arm,0,98,98,43,0,0,0,0,7,2.188,,,2018_Sep_13_1500,59.6298250906,verb_norming_L2-eng_oral_translation,001,808,
SHAKE,Leg,leg,0,98,98,43,0,1,1,1,1,3.45,,,2018_Sep_13_1500,59.6298250906,verb_norming_L2-eng_oral_translation,001,808,
SHAKE,,,0,98,98,43,,,,,,,return,2.4808737815,2018_Sep_13_1500,59.6298250906,verb_norming_L2-eng_oral_translation,001,808,
CLAW,Arm,arm,0,99,99,8,0,0,0,0,4,7.624,,,2018_Sep_13_1500,59.6298250906,verb_norming_L2-eng_oral_translation,001,808,
CLAW,Leg,leg,0,99,99,8,0,1,1,1,4,0.835,,,2018_Sep_13_1500,59.6298250906,verb_norming_L2-eng_oral_translation,001,808,
CLAW,,,0,99,99,8,,,,,,,return,8.35209895313,2018_Sep_13_1500,59.6298250906,verb_norming_L2-eng_oral_translation,001,808,
CLEAN,Arm,arm,0,100,100,9,0,0,0,0,7,2.708,,,2018_Sep_13_1500,59.6298250906,verb_norming_L2-eng_oral_translation,001,808,
CLEAN,Leg,leg,0,100,100,9,0,1,1,1,2,3.314,,,2018_Sep_13_1500,59.6298250906,verb_norming_L2-eng_oral_translation,001,808,
CLEAN,,,0,100,100,9,,,,,,,return,4.83038954142,2018_Sep_13_1500,59.6298250906,verb_norming_L2-eng_oral_translation,001,808,
JOG,Arm,arm,0,101,101,73,0,0,0,0,7,8.527,,,2018_Sep_13_1500,59.6298250906,verb_norming_L2-eng_oral_translation,001,808,
JOG,Leg,leg,0,101,101,73,0,1,1,1,2,1.705,,,2018_Sep_13_1500,59.6298250906,verb_norming_L2-eng_oral_translation,001,808,
JOG,,,0,101,101,73,,,,,,,return,4.52855894327,2018_Sep_13_1500,59.6298250906,verb_norming_L2-eng_oral_translation,001,808,
WALK,Arm,arm,0,102,102,125,0,0,0,0,4,3.934,,,2018_Sep_13_1500,59.6298250906,verb_norming_L2-eng_oral_translation,001,808,
WALK,Leg,leg,0,102,102,125,0,1,1,1,7,1.304,,,2018_Sep_13_1500,59.6298250906,verb_norming_L2-eng_oral_translation,001,808,
WALK,,,0,102,102,125,,,,,,,return,5.33338561883,2018_Sep_13_1500,59.6298250906,verb_norming_L2-eng_oral_translation,001,808,
INCH,Arm,arm,0,103,103,72,0,0,0,0,7,9.752,,,2018_Sep_13_1500,59.6298250906,verb_norming_L2-eng_oral_translation,001,808,
INCH,Leg,leg,0,103,103,72,0,1,1,1,7,0.43,,,2018_Sep_13_1500,59.6298250906,verb_norming_L2-eng_oral_translation,001,808,
INCH,,,0,103,103,72,,,,,,,return,3.3881522385,2018_Sep_13_1500,59.6298250906,verb_norming_L2-eng_oral_translation,001,808,
KNOCK,Arm,arm,0,104,104,24,0,0,0,0,7,2.373,,,2018_Sep_13_1500,59.6298250906,verb_norming_L2-eng_oral_translation,001,808,
KNOCK,Leg,leg,0,104,104,24,0,1,1,1,6,2.761,,,2018_Sep_13_1500,59.6298250906,verb_norming_L2-eng_oral_translation,001,808,
KNOCK,,,0,104,104,24,,,,,,,return,2.38184044416,2018_Sep_13_1500,59.6298250906,verb_norming_L2-eng_oral_translation,001,808,
PEEL,Arm,arm,0,105,105,28,0,0,0,0,7,3.347,,,2018_Sep_13_1500,59.6298250906,verb_norming_L2-eng_oral_translation,001,808,
PEEL,Leg,leg,0,105,105,28,0,1,1,1,2,1.018,,,2018_Sep_13_1500,59.6298250906,verb_norming_L2-eng_oral_translation,001,808,
PEEL,,,0,105,105,28,,,,,,,return,2.49935202862,2018_Sep_13_1500,59.6298250906,verb_norming_L2-eng_oral_translation,001,808,
SCOOP,Arm,arm,0,106,106,38,0,0,0,0,3,6.683,,,2018_Sep_13_1500,59.6298250906,verb_norming_L2-eng_oral_translation,001,808,
SCOOP,Leg,leg,0,106,106,38,0,1,1,1,2,5.06,,,2018_Sep_13_1500,59.6298250906,verb_norming_L2-eng_oral_translation,001,808,
SCOOP,,,0,106,106,38,,,,,,,return,9.543005149,2018_Sep_13_1500,59.6298250906,verb_norming_L2-eng_oral_translation,001,808,
STIR,Arm,arm,0,107,107,50,0,0,0,0,2,5.492,,,2018_Sep_13_1500,59.6298250906,verb_norming_L2-eng_oral_translation,001,808,
STIR,Leg,leg,0,107,107,50,0,1,1,1,1,3.166,,,2018_Sep_13_1500,59.6298250906,verb_norming_L2-eng_oral_translation,001,808,
STIR,,,0,107,107,50,,,,,,,return,2.41542511663,2018_Sep_13_1500,59.6298250906,verb_norming_L2-eng_oral_translation,001,808,
STAGGER,Arm,arm,0,108,108,100,0,0,0,0,7,4.401,,,2018_Sep_13_1500,59.6298250906,verb_norming_L2-eng_oral_translation,001,808,
STAGGER,Leg,leg,0,108,108,100,0,1,1,1,1,3.448,,,2018_Sep_13_1500,59.6298250906,verb_norming_L2-eng_oral_translation,001,808,
STAGGER,,,0,108,108,100,,,,,,,return,7.84919612039,2018_Sep_13_1500,59.6298250906,verb_norming_L2-eng_oral_translation,001,808,
SKIM,Arm,arm,0,109,109,45,0,0,0,0,2,5.912,,,2018_Sep_13_1500,59.6298250906,verb_norming_L2-eng_oral_translation,001,808,
SKIM,Leg,leg,0,109,109,45,0,1,1,1,2,2.494,,,2018_Sep_13_1500,59.6298250906,verb_norming_L2-eng_oral_translation,001,808,
SKIM,,,0,109,109,45,,,,,,,return,11.9242711112,2018_Sep_13_1500,59.6298250906,verb_norming_L2-eng_oral_translation,001,808,
SCRATCH,Arm,arm,0,110,110,40,0,0,0,0,7,3.949,,,2018_Sep_13_1500,59.6298250906,verb_norming_L2-eng_oral_translation,001,808,
SCRATCH,Leg,leg,0,110,110,40,0,1,1,1,7,4.086,,,2018_Sep_13_1500,59.6298250906,verb_norming_L2-eng_oral_translation,001,808,
SCRATCH,,,0,110,110,40,,,,,,,return,3.79064716536,2018_Sep_13_1500,59.6298250906,verb_norming_L2-eng_oral_translation,001,808,
CARVE,Arm,arm,0,111,111,4,0,0,0,0,7,9.854,,,2018_Sep_13_1500,59.6298250906,verb_norming_L2-eng_oral_translation,001,808,
CARVE,Leg,leg,0,111,111,4,0,1,1,1,2,1.186,,,2018_Sep_13_1500,59.6298250906,verb_norming_L2-eng_oral_translation,001,808,
CARVE,,,0,111,111,4,,,,,,,return,16.5867617868,2018_Sep_13_1500,59.6298250906,verb_norming_L2-eng_oral_translation,001,808,
GLIDE,Arm,arm,0,112,112,67,0,0,0,0,3,3.363,,,2018_Sep_13_1500,59.6298250906,verb_norming_L2-eng_oral_translation,001,808,
GLIDE,Leg,leg,0,112,112,67,0,1,1,1,7,1.772,,,2018_Sep_13_1500,59.6298250906,verb_norming_L2-eng_oral_translation,001,808,
GLIDE,,,0,112,112,67,,,,,,,return,3.28750015804,2018_Sep_13_1500,59.6298250906,verb_norming_L2-eng_oral_translation,001,808,
TROT,Arm,arm,0,113,113,121,0,0,0,0,4,3.883,,,2018_Sep_13_1500,59.6298250906,verb_norming_L2-eng_oral_translation,001,808,
TROT,Leg,leg,0,113,113,121,0,1,1,1,4,0.734,,,2018_Sep_13_1500,59.6298250906,verb_norming_L2-eng_oral_translation,001,808,
TROT,,,0,113,113,121,,,,,,,return,7.94980473936,2018_Sep_13_1500,59.6298250906,verb_norming_L2-eng_oral_translation,001,808,
PINCH,Arm,arm,0,114,114,29,0,0,0,0,7,4.402,,,2018_Sep_13_1500,59.6298250906,verb_norming_L2-eng_oral_translation,001,808,
PINCH,Leg,leg,0,114,114,29,0,1,1,1,2,1.0,,,2018_Sep_13_1500,59.6298250906,verb_norming_L2-eng_oral_translation,001,808,
PINCH,,,0,114,114,29,,,,,,,return,3.38776780183,2018_Sep_13_1500,59.6298250906,verb_norming_L2-eng_oral_translation,001,808,
HOP,Arm,arm,0,115,115,71,0,0,0,0,4,7.004,,,2018_Sep_13_1500,59.6298250906,verb_norming_L2-eng_oral_translation,001,808,
HOP,Leg,leg,0,115,115,71,0,1,1,1,7,0.919,,,2018_Sep_13_1500,59.6298250906,verb_norming_L2-eng_oral_translation,001,808,
HOP,,,0,115,115,71,,,,,,,return,4.88071242082,2018_Sep_13_1500,59.6298250906,verb_norming_L2-eng_oral_translation,001,808,
SEIZE,Arm,arm,0,116,116,42,0,0,0,0,6,6.936,,,2018_Sep_13_1500,59.6298250906,verb_norming_L2-eng_oral_translation,001,808,
SEIZE,Leg,leg,0,116,116,42,0,1,1,1,4,1.052,,,2018_Sep_13_1500,59.6298250906,verb_norming_L2-eng_oral_translation,001,808,
SEIZE,,,0,116,116,42,,,,,,,return,3.019196152,2018_Sep_13_1500,59.6298250906,verb_norming_L2-eng_oral_translation,001,808,
TRAIPSE,Arm,arm,0,117,117,115,0,0,0,0,4,9.853,,,2018_Sep_13_1500,59.6298250906,verb_norming_L2-eng_oral_translation,001,808,
TRAIPSE,Leg,leg,0,117,117,115,0,1,1,1,6,1.303,,,2018_Sep_13_1500,59.6298250906,verb_norming_L2-eng_oral_translation,001,808,
TRAIPSE,,,0,117,117,115,,,,,,,return,6.38991558987,2018_Sep_13_1500,59.6298250906,verb_norming_L2-eng_oral_translation,001,808,
SCRUB,Arm,arm,0,118,118,41,0,0,0,0,4,6.6,,,2018_Sep_13_1500,59.6298250906,verb_norming_L2-eng_oral_translation,001,808,
SCRUB,Leg,leg,0,118,118,41,0,1,1,1,4,0.716,,,2018_Sep_13_1500,59.6298250906,verb_norming_L2-eng_oral_translation,001,808,
SCRUB,,,0,118,118,41,,,,,,,return,1.50981795165,2018_Sep_13_1500,59.6298250906,verb_norming_L2-eng_oral_translation,001,808,
WRAP,Arm,arm,0,119,119,59,0,0,0,0,7,4.202,,,2018_Sep_13_1500,59.6298250906,verb_norming_L2-eng_oral_translation,001,808,
WRAP,Leg,leg,0,119,119,59,0,1,1,1,2,1.673,,,2018_Sep_13_1500,59.6298250906,verb_norming_L2-eng_oral_translation,001,808,
WRAP,,,0,119,119,59,,,,,,,return,11.6727997421,2018_Sep_13_1500,59.6298250906,verb_norming_L2-eng_oral_translation,001,808,
GRASP,Arm,arm,0,120,120,19,0,0,0,0,6,10.842,,,2018_Sep_13_1500,59.6298250906,verb_norming_L2-eng_oral_translation,001,808,
GRASP,Leg,leg,0,120,120,19,0,1,1,1,3,6.987,,,2018_Sep_13_1500,59.6298250906,verb_norming_L2-eng_oral_translation,001,808,
GRASP,,,0,120,120,19,,,,,,,return,8.73789439331,2018_Sep_13_1500,59.6298250906,verb_norming_L2-eng_oral_translation,001,808,
WASH,Arm,arm,0,121,121,56,0,0,0,0,7,5.075,,,2018_Sep_13_1500,59.6298250906,verb_norming_L2-eng_oral_translation,001,808,
WASH,Leg,leg,0,121,121,56,0,1,1,1,5,2.746,,,2018_Sep_13_1500,59.6298250906,verb_norming_L2-eng_oral_translation,001,808,
WASH,,,0,121,121,56,,,,,,,return,2.86826504874,2018_Sep_13_1500,59.6298250906,verb_norming_L2-eng_oral_translation,001,808,
WOBBLE,Arm,arm,0,122,122,127,0,0,0,0,4,6.063,,,2018_Sep_13_1500,59.6298250906,verb_norming_L2-eng_oral_translation,001,808,
WOBBLE,Leg,leg,0,122,122,127,0,1,1,1,4,0.917,,,2018_Sep_13_1500,59.6298250906,verb_norming_L2-eng_oral_translation,001,808,
WOBBLE,,,0,122,122,127,,,,,,,return,4.0254340618,2018_Sep_13_1500,59.6298250906,verb_norming_L2-eng_oral_translation,001,808,
SLITHER,Arm,arm,0,123,123,96,0,0,0,0,4,4.905,,,2018_Sep_13_1500,59.6298250906,verb_norming_L2-eng_oral_translation,001,808,
SLITHER,Leg,leg,0,123,123,96,0,1,1,1,4,1.554,,,2018_Sep_13_1500,59.6298250906,verb_norming_L2-eng_oral_translation,001,808,
SLITHER,,,0,123,123,96,,,,,,,return,2.9353735476,2018_Sep_13_1500,59.6298250906,verb_norming_L2-eng_oral_translation,001,808,
FILE,Arm,arm,0,124,124,15,0,0,0,0,6,4.068,,,2018_Sep_13_1500,59.6298250906,verb_norming_L2-eng_oral_translation,001,808,
FILE,Leg,leg,0,124,124,15,0,1,1,1,1,6.05,,,2018_Sep_13_1500,59.6298250906,verb_norming_L2-eng_oral_translation,001,808,
FILE,,,0,124,124,15,,,,,,,return,6.75908068666,2018_Sep_13_1500,59.6298250906,verb_norming_L2-eng_oral_translation,001,808,
TRIP,Arm,arm,0,125,125,120,0,0,0,0,4,4.738,,,2018_Sep_13_1500,59.6298250906,verb_norming_L2-eng_oral_translation,001,808,
TRIP,Leg,leg,0,125,125,120,0,1,1,1,7,1.673,,,2018_Sep_13_1500,59.6298250906,verb_norming_L2-eng_oral_translation,001,808,
TRIP,,,0,125,125,120,,,,,,,return,5.90363756906,2018_Sep_13_1500,59.6298250906,verb_norming_L2-eng_oral_translation,001,808,
TREK,Arm,arm,0,126,126,119,0,0,0,0,6,4.605,,,2018_Sep_13_1500,59.6298250906,verb_norming_L2-eng_oral_translation,001,808,
TREK,Leg,leg,0,126,126,119,0,1,1,1,7,8.499,,,2018_Sep_13_1500,59.6298250906,verb_norming_L2-eng_oral_translation,001,808,
TREK,,,0,126,126,119,,,,,,,return,6.03780636403,2018_Sep_13_1500,59.6298250906,verb_norming_L2-eng_oral_translation,001,808,
TRAMPLE,Arm,arm,0,127,127,117,0,0,0,0,4,3.294,,,2018_Sep_13_1500,59.6298250906,verb_norming_L2-eng_oral_translation,001,808,
TRAMPLE,Leg,leg,0,127,127,117,0,1,1,1,4,0.697,,,2018_Sep_13_1500,59.6298250906,verb_norming_L2-eng_oral_translation,001,808,
TRAMPLE,,,0,127,127,117,,,,,,,return,2.09679348994,2018_Sep_13_1500,59.6298250906,verb_norming_L2-eng_oral_translation,001,808,
