word,category,category_lowercase,trials.thisRepN,trials.thisTrialN,trials.thisN,trials.thisIndex,armleg_loop.thisRepN,armleg_loop.thisTrialN,armleg_loop.thisN,armleg_loop.thisIndex,rating.response,rating.rt,key_resp_8.keys,key_resp_8.rt,date,frameRate,expName,session,participant,
KNIPA,Ben/fötter,ben/fötter,0,0,0,37,0,0,0,0,7,10.197,,,2018_Sep_13_1706,59.6329159855,verb_norming_L1-swe_no_translation,001,809,
KNIPA,Armar/händer,armar/händer,0,0,0,37,0,1,1,1,2,4.966,,,2018_Sep_13_1706,59.6329159855,verb_norming_L1-swe_no_translation,001,809,
KNIPA,,,0,0,0,37,,,,,,,,,2018_Sep_13_1706,59.6329159855,verb_norming_L1-swe_no_translation,001,809,
SLEVA,Ben/fötter,ben/fötter,0,1,1,80,0,0,0,0,7,5.382,,,2018_Sep_13_1706,59.6329159855,verb_norming_L1-swe_no_translation,001,809,
SLEVA,Armar/händer,armar/händer,0,1,1,80,0,1,1,1,1,0.706,,,2018_Sep_13_1706,59.6329159855,verb_norming_L1-swe_no_translation,001,809,
SLEVA,,,0,1,1,80,,,,,,,,,2018_Sep_13_1706,59.6329159855,verb_norming_L1-swe_no_translation,001,809,
KLAPPA,Ben/fötter,ben/fötter,0,2,2,31,0,0,0,0,1,4.697,,,2018_Sep_13_1706,59.6329159855,verb_norming_L1-swe_no_translation,001,809,
KLAPPA,Armar/händer,armar/händer,0,2,2,31,0,1,1,1,7,2.5,,,2018_Sep_13_1706,59.6329159855,verb_norming_L1-swe_no_translation,001,809,
KLAPPA,,,0,2,2,31,,,,,,,,,2018_Sep_13_1706,59.6329159855,verb_norming_L1-swe_no_translation,001,809,
VINGLA,Ben/fötter,ben/fötter,0,3,3,168,0,0,0,0,7,3.303,,,2018_Sep_13_1706,59.6329159855,verb_norming_L1-swe_no_translation,001,809,
VINGLA,Armar/händer,armar/händer,0,3,3,168,0,1,1,1,1,1.192,,,2018_Sep_13_1706,59.6329159855,verb_norming_L1-swe_no_translation,001,809,
VINGLA,,,0,3,3,168,,,,,,,,,2018_Sep_13_1706,59.6329159855,verb_norming_L1-swe_no_translation,001,809,
GÅ,Ben/fötter,ben/fötter,0,4,4,106,0,0,0,0,7,2.332,,,2018_Sep_13_1706,59.6329159855,verb_norming_L1-swe_no_translation,001,809,
GÅ,Armar/händer,armar/händer,0,4,4,106,0,1,1,1,1,1.245,,,2018_Sep_13_1706,59.6329159855,verb_norming_L1-swe_no_translation,001,809,
GÅ,,,0,4,4,106,,,,,,,,,2018_Sep_13_1706,59.6329159855,verb_norming_L1-swe_no_translation,001,809,
KLIA,Ben/fötter,ben/fötter,0,5,5,32,0,0,0,0,2,5.386,,,2018_Sep_13_1706,59.6329159855,verb_norming_L1-swe_no_translation,001,809,
KLIA,Armar/händer,armar/händer,0,5,5,32,0,1,1,1,7,1.562,,,2018_Sep_13_1706,59.6329159855,verb_norming_L1-swe_no_translation,001,809,
KLIA,,,0,5,5,32,,,,,,,,,2018_Sep_13_1706,59.6329159855,verb_norming_L1-swe_no_translation,001,809,
SLITA,Ben/fötter,ben/fötter,0,6,6,82,0,0,0,0,1,6.307,,,2018_Sep_13_1706,59.6329159855,verb_norming_L1-swe_no_translation,001,809,
SLITA,Armar/händer,armar/händer,0,6,6,82,0,1,1,1,7,0.706,,,2018_Sep_13_1706,59.6329159855,verb_norming_L1-swe_no_translation,001,809,
SLITA,,,0,6,6,82,,,,,,,,,2018_Sep_13_1706,59.6329159855,verb_norming_L1-swe_no_translation,001,809,
KLÄMMA,Ben/fötter,ben/fötter,0,7,7,30,0,0,0,0,4,4.813,,,2018_Sep_13_1706,59.6329159855,verb_norming_L1-swe_no_translation,001,809,
KLÄMMA,Armar/händer,armar/händer,0,7,7,30,0,1,1,1,7,1.511,,,2018_Sep_13_1706,59.6329159855,verb_norming_L1-swe_no_translation,001,809,
KLÄMMA,,,0,7,7,30,,,,,,,,,2018_Sep_13_1706,59.6329159855,verb_norming_L1-swe_no_translation,001,809,
NORPA,Ben/fötter,ben/fötter,0,8,8,46,0,0,0,0,1,3.657,,,2018_Sep_13_1706,59.6329159855,verb_norming_L1-swe_no_translation,001,809,
NORPA,Armar/händer,armar/händer,0,8,8,46,0,1,1,1,7,0.74,,,2018_Sep_13_1706,59.6329159855,verb_norming_L1-swe_no_translation,001,809,
NORPA,,,0,8,8,46,,,,,,,,,2018_Sep_13_1706,59.6329159855,verb_norming_L1-swe_no_translation,001,809,
RÄNNA,Ben/fötter,ben/fötter,0,9,9,131,0,0,0,0,7,3.406,,,2018_Sep_13_1706,59.6329159855,verb_norming_L1-swe_no_translation,001,809,
RÄNNA,Armar/händer,armar/händer,0,9,9,131,0,1,1,1,2,1.225,,,2018_Sep_13_1706,59.6329159855,verb_norming_L1-swe_no_translation,001,809,
RÄNNA,,,0,9,9,131,,,,,,,,,2018_Sep_13_1706,59.6329159855,verb_norming_L1-swe_no_translation,001,809,
FILA,Ben/fötter,ben/fötter,0,10,10,10,0,0,0,0,1,3.323,,,2018_Sep_13_1706,59.6329159855,verb_norming_L1-swe_no_translation,001,809,
FILA,Armar/händer,armar/händer,0,10,10,10,0,1,1,1,6,5.52,,,2018_Sep_13_1706,59.6329159855,verb_norming_L1-swe_no_translation,001,809,
FILA,,,0,10,10,10,,,,,,,,,2018_Sep_13_1706,59.6329159855,verb_norming_L1-swe_no_translation,001,809,
KNIVHUGGA,Ben/fötter,ben/fötter,0,11,11,38,0,0,0,0,1,7.326,,,2018_Sep_13_1706,59.6329159855,verb_norming_L1-swe_no_translation,001,809,
KNIVHUGGA,Armar/händer,armar/händer,0,11,11,38,0,1,1,1,7,0.939,,,2018_Sep_13_1706,59.6329159855,verb_norming_L1-swe_no_translation,001,809,
KNIVHUGGA,,,0,11,11,38,,,,,,,,,2018_Sep_13_1706,59.6329159855,verb_norming_L1-swe_no_translation,001,809,
RUSA,Ben/fötter,ben/fötter,0,12,12,134,0,0,0,0,7,2.501,,,2018_Sep_13_1706,59.6329159855,verb_norming_L1-swe_no_translation,001,809,
RUSA,Armar/händer,armar/händer,0,12,12,134,0,1,1,1,2,2.837,,,2018_Sep_13_1706,59.6329159855,verb_norming_L1-swe_no_translation,001,809,
RUSA,,,0,12,12,134,,,,,,,,,2018_Sep_13_1706,59.6329159855,verb_norming_L1-swe_no_translation,001,809,
TRASKA,Ben/fötter,ben/fötter,0,13,13,162,0,0,0,0,7,8.555,,,2018_Sep_13_1706,59.6329159855,verb_norming_L1-swe_no_translation,001,809,
TRASKA,Armar/händer,armar/händer,0,13,13,162,0,1,1,1,1,1.712,,,2018_Sep_13_1706,59.6329159855,verb_norming_L1-swe_no_translation,001,809,
TRASKA,,,0,13,13,162,,,,,,,,,2018_Sep_13_1706,59.6329159855,verb_norming_L1-swe_no_translation,001,809,
NAPPA,Ben/fötter,ben/fötter,0,14,14,45,0,0,0,0,1,6.945,,,2018_Sep_13_1706,59.6329159855,verb_norming_L1-swe_no_translation,001,809,
NAPPA,Armar/händer,armar/händer,0,14,14,45,0,1,1,1,6,1.796,,,2018_Sep_13_1706,59.6329159855,verb_norming_L1-swe_no_translation,001,809,
NAPPA,,,0,14,14,45,,,,,,,,,2018_Sep_13_1706,59.6329159855,verb_norming_L1-swe_no_translation,001,809,
SNUBBLA,Ben/fötter,ben/fötter,0,15,15,143,0,0,0,0,7,2.331,,,2018_Sep_13_1706,59.6329159855,verb_norming_L1-swe_no_translation,001,809,
SNUBBLA,Armar/händer,armar/händer,0,15,15,143,0,1,1,1,1,0.856,,,2018_Sep_13_1706,59.6329159855,verb_norming_L1-swe_no_translation,001,809,
SNUBBLA,,,0,15,15,143,,,,,,,,,2018_Sep_13_1706,59.6329159855,verb_norming_L1-swe_no_translation,001,809,
RAFSA,Ben/fötter,ben/fötter,0,16,16,58,0,0,0,0,3,3.691,,,2018_Sep_13_1706,59.6329159855,verb_norming_L1-swe_no_translation,001,809,
RAFSA,Armar/händer,armar/händer,0,16,16,58,0,1,1,1,6,1.981,,,2018_Sep_13_1706,59.6329159855,verb_norming_L1-swe_no_translation,001,809,
RAFSA,,,0,16,16,58,,,,,,,,,2018_Sep_13_1706,59.6329159855,verb_norming_L1-swe_no_translation,001,809,
PILLA,Ben/fötter,ben/fötter,0,17,17,51,0,0,0,0,3,4.697,,,2018_Sep_13_1706,59.6329159855,verb_norming_L1-swe_no_translation,001,809,
PILLA,Armar/händer,armar/händer,0,17,17,51,0,1,1,1,5,2.786,,,2018_Sep_13_1706,59.6329159855,verb_norming_L1-swe_no_translation,001,809,
PILLA,,,0,17,17,51,,,,,,,,,2018_Sep_13_1706,59.6329159855,verb_norming_L1-swe_no_translation,001,809,
SMÄLLA,Ben/fötter,ben/fötter,0,18,18,84,0,0,0,0,2,4.395,,,2018_Sep_13_1706,59.6329159855,verb_norming_L1-swe_no_translation,001,809,
SMÄLLA,Armar/händer,armar/händer,0,18,18,84,0,1,1,1,7,1.981,,,2018_Sep_13_1706,59.6329159855,verb_norming_L1-swe_no_translation,001,809,
SMÄLLA,,,0,18,18,84,,,,,,,,,2018_Sep_13_1706,59.6329159855,verb_norming_L1-swe_no_translation,001,809,
STRUTTA,Ben/fötter,ben/fötter,0,19,19,154,0,0,0,0,7,5.13,,,2018_Sep_13_1706,59.6329159855,verb_norming_L1-swe_no_translation,001,809,
STRUTTA,Armar/händer,armar/händer,0,19,19,154,0,1,1,1,2,0.941,,,2018_Sep_13_1706,59.6329159855,verb_norming_L1-swe_no_translation,001,809,
STRUTTA,,,0,19,19,154,,,,,,,,,2018_Sep_13_1706,59.6329159855,verb_norming_L1-swe_no_translation,001,809,
VIKA,Ben/fötter,ben/fötter,0,20,20,98,0,0,0,0,1,17.444,,,2018_Sep_13_1706,59.6329159855,verb_norming_L1-swe_no_translation,001,809,
VIKA,Armar/händer,armar/händer,0,20,20,98,0,1,1,1,6,2.904,,,2018_Sep_13_1706,59.6329159855,verb_norming_L1-swe_no_translation,001,809,
VIKA,,,0,20,20,98,,,,,,,,,2018_Sep_13_1706,59.6329159855,verb_norming_L1-swe_no_translation,001,809,
RASPA,Ben/fötter,ben/fötter,0,21,21,60,0,0,0,0,2,11.355,,,2018_Sep_13_1706,59.6329159855,verb_norming_L1-swe_no_translation,001,809,
RASPA,Armar/händer,armar/händer,0,21,21,60,0,1,1,1,6,0.656,,,2018_Sep_13_1706,59.6329159855,verb_norming_L1-swe_no_translation,001,809,
RASPA,,,0,21,21,60,,,,,,,,,2018_Sep_13_1706,59.6329159855,verb_norming_L1-swe_no_translation,001,809,
KLÄTTRA,Ben/fötter,ben/fötter,0,22,22,116,0,0,0,0,7,4.763,,,2018_Sep_13_1706,59.6329159855,verb_norming_L1-swe_no_translation,001,809,
KLÄTTRA,Armar/händer,armar/händer,0,22,22,116,0,1,1,1,7,0.84,,,2018_Sep_13_1706,59.6329159855,verb_norming_L1-swe_no_translation,001,809,
KLÄTTRA,,,0,22,22,116,,,,,,,,,2018_Sep_13_1706,59.6329159855,verb_norming_L1-swe_no_translation,001,809,
FÅNGA,Ben/fötter,ben/fötter,0,23,23,8,0,0,0,0,2,4.194,,,2018_Sep_13_1706,59.6329159855,verb_norming_L1-swe_no_translation,001,809,
FÅNGA,Armar/händer,armar/händer,0,23,23,8,0,1,1,1,7,1.394,,,2018_Sep_13_1706,59.6329159855,verb_norming_L1-swe_no_translation,001,809,
FÅNGA,,,0,23,23,8,,,,,,,,,2018_Sep_13_1706,59.6329159855,verb_norming_L1-swe_no_translation,001,809,
SLÅ,Ben/fötter,ben/fötter,0,24,24,79,0,0,0,0,1,3.172,,,2018_Sep_13_1706,59.6329159855,verb_norming_L1-swe_no_translation,001,809,
SLÅ,Armar/händer,armar/händer,0,24,24,79,0,1,1,1,7,0.707,,,2018_Sep_13_1706,59.6329159855,verb_norming_L1-swe_no_translation,001,809,
SLÅ,,,0,24,24,79,,,,,,,,,2018_Sep_13_1706,59.6329159855,verb_norming_L1-swe_no_translation,001,809,
PETA,Ben/fötter,ben/fötter,0,25,25,50,0,0,0,0,3,10.667,,,2018_Sep_13_1706,59.6329159855,verb_norming_L1-swe_no_translation,001,809,
PETA,Armar/händer,armar/händer,0,25,25,50,0,1,1,1,6,1.68,,,2018_Sep_13_1706,59.6329159855,verb_norming_L1-swe_no_translation,001,809,
PETA,,,0,25,25,50,,,,,,,,,2018_Sep_13_1706,59.6329159855,verb_norming_L1-swe_no_translation,001,809,
PINNA,Ben/fötter,ben/fötter,0,26,26,128,0,0,0,0,7,3.892,,,2018_Sep_13_1706,59.6329159855,verb_norming_L1-swe_no_translation,001,809,
PINNA,Armar/händer,armar/händer,0,26,26,128,0,1,1,1,1,0.907,,,2018_Sep_13_1706,59.6329159855,verb_norming_L1-swe_no_translation,001,809,
PINNA,,,0,26,26,128,,,,,,,,,2018_Sep_13_1706,59.6329159855,verb_norming_L1-swe_no_translation,001,809,
SKAKA,Ben/fötter,ben/fötter,0,27,27,69,0,0,0,0,3,5.821,,,2018_Sep_13_1706,59.6329159855,verb_norming_L1-swe_no_translation,001,809,
SKAKA,Armar/händer,armar/händer,0,27,27,69,0,1,1,1,7,2.082,,,2018_Sep_13_1706,59.6329159855,verb_norming_L1-swe_no_translation,001,809,
SKAKA,,,0,27,27,69,,,,,,,,,2018_Sep_13_1706,59.6329159855,verb_norming_L1-swe_no_translation,001,809,
RULTA,Ben/fötter,ben/fötter,0,28,28,133,0,0,0,0,5,8.051,,,2018_Sep_13_1706,59.6329159855,verb_norming_L1-swe_no_translation,001,809,
RULTA,Armar/händer,armar/händer,0,28,28,133,0,1,1,1,2,2.451,,,2018_Sep_13_1706,59.6329159855,verb_norming_L1-swe_no_translation,001,809,
RULTA,,,0,28,28,133,,,,,,,,,2018_Sep_13_1706,59.6329159855,verb_norming_L1-swe_no_translation,001,809,
STÄDA,Ben/fötter,ben/fötter,0,29,29,88,0,0,0,0,2,9.158,,,2018_Sep_13_1706,59.6329159855,verb_norming_L1-swe_no_translation,001,809,
STÄDA,Armar/händer,armar/händer,0,29,29,88,0,1,1,1,5,1.847,,,2018_Sep_13_1706,59.6329159855,verb_norming_L1-swe_no_translation,001,809,
STÄDA,,,0,29,29,88,,,,,,,,,2018_Sep_13_1706,59.6329159855,verb_norming_L1-swe_no_translation,001,809,
TRUMMA,Ben/fötter,ben/fötter,0,30,30,94,0,0,0,0,3,11.956,,,2018_Sep_13_1706,59.6329159855,verb_norming_L1-swe_no_translation,001,809,
TRUMMA,Armar/händer,armar/händer,0,30,30,94,0,1,1,1,6,0.706,,,2018_Sep_13_1706,59.6329159855,verb_norming_L1-swe_no_translation,001,809,
TRUMMA,,,0,30,30,94,,,,,,,,,2018_Sep_13_1706,59.6329159855,verb_norming_L1-swe_no_translation,001,809,
LÖPA,Ben/fötter,ben/fötter,0,31,31,125,0,0,0,0,7,8.698,,,2018_Sep_13_1706,59.6329159855,verb_norming_L1-swe_no_translation,001,809,
LÖPA,Armar/händer,armar/händer,0,31,31,125,0,1,1,1,1,1.242,,,2018_Sep_13_1706,59.6329159855,verb_norming_L1-swe_no_translation,001,809,
LÖPA,,,0,31,31,125,,,,,,,,,2018_Sep_13_1706,59.6329159855,verb_norming_L1-swe_no_translation,001,809,
CYKLA,Ben/fötter,ben/fötter,0,32,32,101,0,0,0,0,7,11.971,,,2018_Sep_13_1706,59.6329159855,verb_norming_L1-swe_no_translation,001,809,
CYKLA,Armar/händer,armar/händer,0,32,32,101,0,1,1,1,3,0.688,,,2018_Sep_13_1706,59.6329159855,verb_norming_L1-swe_no_translation,001,809,
CYKLA,,,0,32,32,101,,,,,,,,,2018_Sep_13_1706,59.6329159855,verb_norming_L1-swe_no_translation,001,809,
SKEJTA,Ben/fötter,ben/fötter,0,33,33,135,0,0,0,0,7,4.627,,,2018_Sep_13_1706,59.6329159855,verb_norming_L1-swe_no_translation,001,809,
SKEJTA,Armar/händer,armar/händer,0,33,33,135,0,1,1,1,2,0.805,,,2018_Sep_13_1706,59.6329159855,verb_norming_L1-swe_no_translation,001,809,
SKEJTA,,,0,33,33,135,,,,,,,,,2018_Sep_13_1706,59.6329159855,verb_norming_L1-swe_no_translation,001,809,
HÅVA,Ben/fötter,ben/fötter,0,34,34,22,0,0,0,0,3,6.626,,,2018_Sep_13_1706,59.6329159855,verb_norming_L1-swe_no_translation,001,809,
HÅVA,Armar/händer,armar/händer,0,34,34,22,0,1,1,1,5,1.713,,,2018_Sep_13_1706,59.6329159855,verb_norming_L1-swe_no_translation,001,809,
HÅVA,,,0,34,34,22,,,,,,,,,2018_Sep_13_1706,59.6329159855,verb_norming_L1-swe_no_translation,001,809,
VIRA,Ben/fötter,ben/fötter,0,35,35,99,0,0,0,0,2,8.27,,,2018_Sep_13_1706,59.6329159855,verb_norming_L1-swe_no_translation,001,809,
VIRA,Armar/händer,armar/händer,0,35,35,99,0,1,1,1,6,0.89,,,2018_Sep_13_1706,59.6329159855,verb_norming_L1-swe_no_translation,001,809,
VIRA,,,0,35,35,99,,,,,,,,,2018_Sep_13_1706,59.6329159855,verb_norming_L1-swe_no_translation,001,809,
SLINTA,Ben/fötter,ben/fötter,0,36,36,140,0,0,0,0,2,6.676,,,2018_Sep_13_1706,59.6329159855,verb_norming_L1-swe_no_translation,001,809,
SLINTA,Armar/händer,armar/händer,0,36,36,140,0,1,1,1,6,0.722,,,2018_Sep_13_1706,59.6329159855,verb_norming_L1-swe_no_translation,001,809,
SLINTA,,,0,36,36,140,,,,,,,,,2018_Sep_13_1706,59.6329159855,verb_norming_L1-swe_no_translation,001,809,
KRAMA,Ben/fötter,ben/fötter,0,37,37,41,0,0,0,0,2,2.618,,,2018_Sep_13_1706,59.6329159855,verb_norming_L1-swe_no_translation,001,809,
KRAMA,Armar/händer,armar/händer,0,37,37,41,0,1,1,1,7,3.238,,,2018_Sep_13_1706,59.6329159855,verb_norming_L1-swe_no_translation,001,809,
KRAMA,,,0,37,37,41,,,,,,,,,2018_Sep_13_1706,59.6329159855,verb_norming_L1-swe_no_translation,001,809,
JOGGA,Ben/fötter,ben/fötter,0,38,38,114,0,0,0,0,7,6.054,,,2018_Sep_13_1706,59.6329159855,verb_norming_L1-swe_no_translation,001,809,
JOGGA,Armar/händer,armar/händer,0,38,38,114,0,1,1,1,2,1.56,,,2018_Sep_13_1706,59.6329159855,verb_norming_L1-swe_no_translation,001,809,
JOGGA,,,0,38,38,114,,,,,,,,,2018_Sep_13_1706,59.6329159855,verb_norming_L1-swe_no_translation,001,809,
VACKLA,Ben/fötter,ben/fötter,0,39,39,164,0,0,0,0,7,6.624,,,2018_Sep_13_1706,59.6329159855,verb_norming_L1-swe_no_translation,001,809,
VACKLA,Armar/händer,armar/händer,0,39,39,164,0,1,1,1,2,2.767,,,2018_Sep_13_1706,59.6329159855,verb_norming_L1-swe_no_translation,001,809,
VACKLA,,,0,39,39,164,,,,,,,,,2018_Sep_13_1706,59.6329159855,verb_norming_L1-swe_no_translation,001,809,
HISSA,Ben/fötter,ben/fötter,0,40,40,23,0,0,0,0,3,9.344,,,2018_Sep_13_1706,59.6329159855,verb_norming_L1-swe_no_translation,001,809,
HISSA,Armar/händer,armar/händer,0,40,40,23,0,1,1,1,4,1.025,,,2018_Sep_13_1706,59.6329159855,verb_norming_L1-swe_no_translation,001,809,
HISSA,,,0,40,40,23,,,,,,,,,2018_Sep_13_1706,59.6329159855,verb_norming_L1-swe_no_translation,001,809,
RÖRA,Ben/fötter,ben/fötter,0,41,41,65,0,0,0,0,5,4.327,,,2018_Sep_13_1706,59.6329159855,verb_norming_L1-swe_no_translation,001,809,
RÖRA,Armar/händer,armar/händer,0,41,41,65,0,1,1,1,6,1.208,,,2018_Sep_13_1706,59.6329159855,verb_norming_L1-swe_no_translation,001,809,
RÖRA,,,0,41,41,65,,,,,,,,,2018_Sep_13_1706,59.6329159855,verb_norming_L1-swe_no_translation,001,809,
SLIPA,Ben/fötter,ben/fötter,0,42,42,81,0,0,0,0,1,8.219,,,2018_Sep_13_1706,59.6329159855,verb_norming_L1-swe_no_translation,001,809,
SLIPA,Armar/händer,armar/händer,0,42,42,81,0,1,1,1,6,1.125,,,2018_Sep_13_1706,59.6329159855,verb_norming_L1-swe_no_translation,001,809,
SLIPA,,,0,42,42,81,,,,,,,,,2018_Sep_13_1706,59.6329159855,verb_norming_L1-swe_no_translation,001,809,
BORSTA,Ben/fötter,ben/fötter,0,43,43,3,0,0,0,0,1,2.466,,,2018_Sep_13_1706,59.6329159855,verb_norming_L1-swe_no_translation,001,809,
BORSTA,Armar/händer,armar/händer,0,43,43,3,0,1,1,1,5,1.897,,,2018_Sep_13_1706,59.6329159855,verb_norming_L1-swe_no_translation,001,809,
BORSTA,,,0,43,43,3,,,,,,,,,2018_Sep_13_1706,59.6329159855,verb_norming_L1-swe_no_translation,001,809,
SVABBA,Ben/fötter,ben/fötter,0,44,44,90,0,0,0,0,2,8.655,,,2018_Sep_13_1706,59.6329159855,verb_norming_L1-swe_no_translation,001,809,
SVABBA,Armar/händer,armar/händer,0,44,44,90,0,1,1,1,6,1.226,,,2018_Sep_13_1706,59.6329159855,verb_norming_L1-swe_no_translation,001,809,
SVABBA,,,0,44,44,90,,,,,,,,,2018_Sep_13_1706,59.6329159855,verb_norming_L1-swe_no_translation,001,809,
GNUGGA,Ben/fötter,ben/fötter,0,45,45,15,0,0,0,0,2,7.196,,,2018_Sep_13_1706,59.6329159855,verb_norming_L1-swe_no_translation,001,809,
GNUGGA,Armar/händer,armar/händer,0,45,45,15,0,1,1,1,6,2.752,,,2018_Sep_13_1706,59.6329159855,verb_norming_L1-swe_no_translation,001,809,
GNUGGA,,,0,45,45,15,,,,,,,,,2018_Sep_13_1706,59.6329159855,verb_norming_L1-swe_no_translation,001,809,
SKALA,Ben/fötter,ben/fötter,0,46,46,70,0,0,0,0,2,3.572,,,2018_Sep_13_1706,59.6329159855,verb_norming_L1-swe_no_translation,001,809,
SKALA,Armar/händer,armar/händer,0,46,46,70,0,1,1,1,7,0.925,,,2018_Sep_13_1706,59.6329159855,verb_norming_L1-swe_no_translation,001,809,
SKALA,,,0,46,46,70,,,,,,,,,2018_Sep_13_1706,59.6329159855,verb_norming_L1-swe_no_translation,001,809,
FÖSA,Ben/fötter,ben/fötter,0,47,47,12,0,0,0,0,4,15.396,,,2018_Sep_13_1706,59.6329159855,verb_norming_L1-swe_no_translation,001,809,
FÖSA,Armar/händer,armar/händer,0,47,47,12,0,1,1,1,5,0.705,,,2018_Sep_13_1706,59.6329159855,verb_norming_L1-swe_no_translation,001,809,
FÖSA,,,0,47,47,12,,,,,,,,,2018_Sep_13_1706,59.6329159855,verb_norming_L1-swe_no_translation,001,809,
FATTA,Ben/fötter,ben/fötter,0,48,48,9,0,0,0,0,1,5.837,,,2018_Sep_13_1706,59.6329159855,verb_norming_L1-swe_no_translation,001,809,
FATTA,Armar/händer,armar/händer,0,48,48,9,0,1,1,1,1,0.757,,,2018_Sep_13_1706,59.6329159855,verb_norming_L1-swe_no_translation,001,809,
FATTA,,,0,48,48,9,,,,,,,,,2018_Sep_13_1706,59.6329159855,verb_norming_L1-swe_no_translation,001,809,
GRIPA,Ben/fötter,ben/fötter,0,49,49,19,0,0,0,0,2,3.774,,,2018_Sep_13_1706,59.6329159855,verb_norming_L1-swe_no_translation,001,809,
GRIPA,Armar/händer,armar/händer,0,49,49,19,0,1,1,1,7,1.109,,,2018_Sep_13_1706,59.6329159855,verb_norming_L1-swe_no_translation,001,809,
GRIPA,,,0,49,49,19,,,,,,,,,2018_Sep_13_1706,59.6329159855,verb_norming_L1-swe_no_translation,001,809,
KLÖSA,Ben/fötter,ben/fötter,0,50,50,35,0,0,0,0,1,3.505,,,2018_Sep_13_1706,59.6329159855,verb_norming_L1-swe_no_translation,001,809,
KLÖSA,Armar/händer,armar/händer,0,50,50,35,0,1,1,1,7,1.123,,,2018_Sep_13_1706,59.6329159855,verb_norming_L1-swe_no_translation,001,809,
KLÖSA,,,0,50,50,35,,,,,,,,,2018_Sep_13_1706,59.6329159855,verb_norming_L1-swe_no_translation,001,809,
GNIDA,Ben/fötter,ben/fötter,0,51,51,14,0,0,0,0,2,2.886,,,2018_Sep_13_1706,59.6329159855,verb_norming_L1-swe_no_translation,001,809,
GNIDA,Armar/händer,armar/händer,0,51,51,14,0,1,1,1,6,0.639,,,2018_Sep_13_1706,59.6329159855,verb_norming_L1-swe_no_translation,001,809,
GNIDA,,,0,51,51,14,,,,,,,,,2018_Sep_13_1706,59.6329159855,verb_norming_L1-swe_no_translation,001,809,
SPARKA,Ben/fötter,ben/fötter,0,52,52,144,0,0,0,0,7,3.774,,,2018_Sep_13_1706,59.6329159855,verb_norming_L1-swe_no_translation,001,809,
SPARKA,Armar/händer,armar/händer,0,52,52,144,0,1,1,1,1,2.181,,,2018_Sep_13_1706,59.6329159855,verb_norming_L1-swe_no_translation,001,809,
SPARKA,,,0,52,52,144,,,,,,,,,2018_Sep_13_1706,59.6329159855,verb_norming_L1-swe_no_translation,001,809,
TRÄDA,Ben/fötter,ben/fötter,0,53,53,160,0,0,0,0,7,6.559,,,2018_Sep_13_1706,59.6329159855,verb_norming_L1-swe_no_translation,001,809,
TRÄDA,Armar/händer,armar/händer,0,53,53,160,0,1,1,1,2,2.434,,,2018_Sep_13_1706,59.6329159855,verb_norming_L1-swe_no_translation,001,809,
TRÄDA,,,0,53,53,160,,,,,,,,,2018_Sep_13_1706,59.6329159855,verb_norming_L1-swe_no_translation,001,809,
PUTSA,Ben/fötter,ben/fötter,0,54,54,56,0,0,0,0,1,4.764,,,2018_Sep_13_1706,59.6329159855,verb_norming_L1-swe_no_translation,001,809,
PUTSA,Armar/händer,armar/händer,0,54,54,56,0,1,1,1,7,1.092,,,2018_Sep_13_1706,59.6329159855,verb_norming_L1-swe_no_translation,001,809,
PUTSA,,,0,54,54,56,,,,,,,,,2018_Sep_13_1706,59.6329159855,verb_norming_L1-swe_no_translation,001,809,
KNOGA,Ben/fötter,ben/fötter,0,55,55,121,0,0,0,0,1,10.315,,,2018_Sep_13_1706,59.6329159855,verb_norming_L1-swe_no_translation,001,809,
KNOGA,Armar/händer,armar/händer,0,55,55,121,0,1,1,1,1,0.773,,,2018_Sep_13_1706,59.6329159855,verb_norming_L1-swe_no_translation,001,809,
KNOGA,,,0,55,55,121,,,,,,,,,2018_Sep_13_1706,59.6329159855,verb_norming_L1-swe_no_translation,001,809,
STIGA,Ben/fötter,ben/fötter,0,56,56,151,0,0,0,0,5,5.703,,,2018_Sep_13_1706,59.6329159855,verb_norming_L1-swe_no_translation,001,809,
STIGA,Armar/händer,armar/händer,0,56,56,151,0,1,1,1,1,0.539,,,2018_Sep_13_1706,59.6329159855,verb_norming_L1-swe_no_translation,001,809,
STIGA,,,0,56,56,151,,,,,,,,,2018_Sep_13_1706,59.6329159855,verb_norming_L1-swe_no_translation,001,809,
TA,Ben/fötter,ben/fötter,0,57,57,92,0,0,0,0,1,3.525,,,2018_Sep_13_1706,59.6329159855,verb_norming_L1-swe_no_translation,001,809,
TA,Armar/händer,armar/händer,0,57,57,92,0,1,1,1,5,2.252,,,2018_Sep_13_1706,59.6329159855,verb_norming_L1-swe_no_translation,001,809,
TA,,,0,57,57,92,,,,,,,,,2018_Sep_13_1706,59.6329159855,verb_norming_L1-swe_no_translation,001,809,
SIGNERA,Ben/fötter,ben/fötter,0,58,58,68,0,0,0,0,1,3.656,,,2018_Sep_13_1706,59.6329159855,verb_norming_L1-swe_no_translation,001,809,
SIGNERA,Armar/händer,armar/händer,0,58,58,68,0,1,1,1,7,0.655,,,2018_Sep_13_1706,59.6329159855,verb_norming_L1-swe_no_translation,001,809,
SIGNERA,,,0,58,58,68,,,,,,,,,2018_Sep_13_1706,59.6329159855,verb_norming_L1-swe_no_translation,001,809,
MARSCHERA,Ben/fötter,ben/fötter,0,59,59,127,0,0,0,0,7,2.53,,,2018_Sep_13_1706,59.6329159855,verb_norming_L1-swe_no_translation,001,809,
MARSCHERA,Armar/händer,armar/händer,0,59,59,127,0,1,1,1,3,1.49,,,2018_Sep_13_1706,59.6329159855,verb_norming_L1-swe_no_translation,001,809,
MARSCHERA,,,0,59,59,127,,,,,,,,,2018_Sep_13_1706,59.6329159855,verb_norming_L1-swe_no_translation,001,809,
ILA,Ben/fötter,ben/fötter,0,60,60,112,0,0,0,0,7,2.317,,,2018_Sep_13_1706,59.6329159855,verb_norming_L1-swe_no_translation,001,809,
ILA,Armar/händer,armar/händer,0,60,60,112,0,1,1,1,1,2.233,,,2018_Sep_13_1706,59.6329159855,verb_norming_L1-swe_no_translation,001,809,
ILA,,,0,60,60,112,,,,,,,,,2018_Sep_13_1706,59.6329159855,verb_norming_L1-swe_no_translation,001,809,
STUDSA,Ben/fötter,ben/fötter,0,61,61,155,0,0,0,0,5,3.389,,,2018_Sep_13_1706,59.6329159855,verb_norming_L1-swe_no_translation,001,809,
STUDSA,Armar/händer,armar/händer,0,61,61,155,0,1,1,1,2,2.484,,,2018_Sep_13_1706,59.6329159855,verb_norming_L1-swe_no_translation,001,809,
STUDSA,,,0,61,61,155,,,,,,,,,2018_Sep_13_1706,59.6329159855,verb_norming_L1-swe_no_translation,001,809,
FLY,Ben/fötter,ben/fötter,0,62,62,105,0,0,0,0,7,2.8,,,2018_Sep_13_1706,59.6329159855,verb_norming_L1-swe_no_translation,001,809,
FLY,Armar/händer,armar/händer,0,62,62,105,0,1,1,1,2,0.606,,,2018_Sep_13_1706,59.6329159855,verb_norming_L1-swe_no_translation,001,809,
FLY,,,0,62,62,105,,,,,,,,,2018_Sep_13_1706,59.6329159855,verb_norming_L1-swe_no_translation,001,809,
STAMPA,Ben/fötter,ben/fötter,0,63,63,148,0,0,0,0,7,3.757,,,2018_Sep_13_1706,59.6329159855,verb_norming_L1-swe_no_translation,001,809,
STAMPA,Armar/händer,armar/händer,0,63,63,148,0,1,1,1,1,4.966,,,2018_Sep_13_1706,59.6329159855,verb_norming_L1-swe_no_translation,001,809,
STAMPA,,,0,63,63,148,,,,,,,,,2018_Sep_13_1706,59.6329159855,verb_norming_L1-swe_no_translation,001,809,
LYFTA,Ben/fötter,ben/fötter,0,64,64,44,0,0,0,0,7,8.334,,,2018_Sep_13_1706,59.6329159855,verb_norming_L1-swe_no_translation,001,809,
LYFTA,Armar/händer,armar/händer,0,64,64,44,0,1,1,1,7,0.621,,,2018_Sep_13_1706,59.6329159855,verb_norming_L1-swe_no_translation,001,809,
LYFTA,,,0,64,64,44,,,,,,,,,2018_Sep_13_1706,59.6329159855,verb_norming_L1-swe_no_translation,001,809,
GESTIKULERA,Ben/fötter,ben/fötter,0,65,65,13,0,0,0,0,2,9.758,,,2018_Sep_13_1706,59.6329159855,verb_norming_L1-swe_no_translation,001,809,
GESTIKULERA,Armar/händer,armar/händer,0,65,65,13,0,1,1,1,7,0.854,,,2018_Sep_13_1706,59.6329159855,verb_norming_L1-swe_no_translation,001,809,
GESTIKULERA,,,0,65,65,13,,,,,,,,,2018_Sep_13_1706,59.6329159855,verb_norming_L1-swe_no_translation,001,809,
TVÄTTA,Ben/fötter,ben/fötter,0,66,66,96,0,0,0,0,1,4.73,,,2018_Sep_13_1706,59.6329159855,verb_norming_L1-swe_no_translation,001,809,
TVÄTTA,Armar/händer,armar/händer,0,66,66,96,0,1,1,1,7,1.175,,,2018_Sep_13_1706,59.6329159855,verb_norming_L1-swe_no_translation,001,809,
TVÄTTA,,,0,66,66,96,,,,,,,,,2018_Sep_13_1706,59.6329159855,verb_norming_L1-swe_no_translation,001,809,
DANSA,Ben/fötter,ben/fötter,0,67,67,102,0,0,0,0,7,3.155,,,2018_Sep_13_1706,59.6329159855,verb_norming_L1-swe_no_translation,001,809,
DANSA,Armar/händer,armar/händer,0,67,67,102,0,1,1,1,7,0.605,,,2018_Sep_13_1706,59.6329159855,verb_norming_L1-swe_no_translation,001,809,
DANSA,,,0,67,67,102,,,,,,,,,2018_Sep_13_1706,59.6329159855,verb_norming_L1-swe_no_translation,001,809,
KILA,Ben/fötter,ben/fötter,0,68,68,115,0,0,0,0,2,4.53,,,2018_Sep_13_1706,59.6329159855,verb_norming_L1-swe_no_translation,001,809,
KILA,Armar/händer,armar/händer,0,68,68,115,0,1,1,1,6,1.68,,,2018_Sep_13_1706,59.6329159855,verb_norming_L1-swe_no_translation,001,809,
KILA,,,0,68,68,115,,,,,,,,,2018_Sep_13_1706,59.6329159855,verb_norming_L1-swe_no_translation,001,809,
RYCKA,Ben/fötter,ben/fötter,0,69,69,67,0,0,0,0,3,6.121,,,2018_Sep_13_1706,59.6329159855,verb_norming_L1-swe_no_translation,001,809,
RYCKA,Armar/händer,armar/händer,0,69,69,67,0,1,1,1,5,0.587,,,2018_Sep_13_1706,59.6329159855,verb_norming_L1-swe_no_translation,001,809,
RYCKA,,,0,69,69,67,,,,,,,,,2018_Sep_13_1706,59.6329159855,verb_norming_L1-swe_no_translation,001,809,
KRATSA,Ben/fötter,ben/fötter,0,70,70,42,0,0,0,0,5,4.361,,,2018_Sep_13_1706,59.6329159855,verb_norming_L1-swe_no_translation,001,809,
KRATSA,Armar/händer,armar/händer,0,70,70,42,0,1,1,1,5,0.79,,,2018_Sep_13_1706,59.6329159855,verb_norming_L1-swe_no_translation,001,809,
KRATSA,,,0,70,70,42,,,,,,,,,2018_Sep_13_1706,59.6329159855,verb_norming_L1-swe_no_translation,001,809,
BINDA,Ben/fötter,ben/fötter,0,71,71,2,0,0,0,0,5,7.531,,,2018_Sep_13_1706,59.6329159855,verb_norming_L1-swe_no_translation,001,809,
BINDA,Armar/händer,armar/händer,0,71,71,2,0,1,1,1,5,0.656,,,2018_Sep_13_1706,59.6329159855,verb_norming_L1-swe_no_translation,001,809,
BINDA,,,0,71,71,2,,,,,,,,,2018_Sep_13_1706,59.6329159855,verb_norming_L1-swe_no_translation,001,809,
KNATA,Ben/fötter,ben/fötter,0,72,72,120,0,0,0,0,7,8.303,,,2018_Sep_13_1706,59.6329159855,verb_norming_L1-swe_no_translation,001,809,
KNATA,Armar/händer,armar/händer,0,72,72,120,0,1,1,1,1,1.21,,,2018_Sep_13_1706,59.6329159855,verb_norming_L1-swe_no_translation,001,809,
KNATA,,,0,72,72,120,,,,,,,,,2018_Sep_13_1706,59.6329159855,verb_norming_L1-swe_no_translation,001,809,
GUPPA,Ben/fötter,ben/fötter,0,73,73,108,0,0,0,0,1,7.749,,,2018_Sep_13_1706,59.6329159855,verb_norming_L1-swe_no_translation,001,809,
GUPPA,Armar/händer,armar/händer,0,73,73,108,0,1,1,1,1,0.573,,,2018_Sep_13_1706,59.6329159855,verb_norming_L1-swe_no_translation,001,809,
GUPPA,,,0,73,73,108,,,,,,,,,2018_Sep_13_1706,59.6329159855,verb_norming_L1-swe_no_translation,001,809,
SMYGA,Ben/fötter,ben/fötter,0,74,74,141,0,0,0,0,7,7.647,,,2018_Sep_13_1706,59.6329159855,verb_norming_L1-swe_no_translation,001,809,
SMYGA,Armar/händer,armar/händer,0,74,74,141,0,1,1,1,2,0.537,,,2018_Sep_13_1706,59.6329159855,verb_norming_L1-swe_no_translation,001,809,
SMYGA,,,0,74,74,141,,,,,,,,,2018_Sep_13_1706,59.6329159855,verb_norming_L1-swe_no_translation,001,809,
SKOPA,Ben/fötter,ben/fötter,0,75,75,73,0,0,0,0,5,4.11,,,2018_Sep_13_1706,59.6329159855,verb_norming_L1-swe_no_translation,001,809,
SKOPA,Armar/händer,armar/händer,0,75,75,73,0,1,1,1,1,0.74,,,2018_Sep_13_1706,59.6329159855,verb_norming_L1-swe_no_translation,001,809,
SKOPA,,,0,75,75,73,,,,,,,,,2018_Sep_13_1706,59.6329159855,verb_norming_L1-swe_no_translation,001,809,
SVEPA,Ben/fötter,ben/fötter,0,76,76,91,0,0,0,0,1,7.75,,,2018_Sep_13_1706,59.6329159855,verb_norming_L1-swe_no_translation,001,809,
SVEPA,Armar/händer,armar/händer,0,76,76,91,0,1,1,1,5,0.723,,,2018_Sep_13_1706,59.6329159855,verb_norming_L1-swe_no_translation,001,809,
SVEPA,,,0,76,76,91,,,,,,,,,2018_Sep_13_1706,59.6329159855,verb_norming_L1-swe_no_translation,001,809,
TRAMPA,Ben/fötter,ben/fötter,0,77,77,161,0,0,0,0,7,2.701,,,2018_Sep_13_1706,59.6329159855,verb_norming_L1-swe_no_translation,001,809,
TRAMPA,Armar/händer,armar/händer,0,77,77,161,0,1,1,1,1,1.243,,,2018_Sep_13_1706,59.6329159855,verb_norming_L1-swe_no_translation,001,809,
TRAMPA,,,0,77,77,161,,,,,,,,,2018_Sep_13_1706,59.6329159855,verb_norming_L1-swe_no_translation,001,809,
KLÅ,Ben/fötter,ben/fötter,0,78,78,29,0,0,0,0,2,12.814,,,2018_Sep_13_1706,59.6329159855,verb_norming_L1-swe_no_translation,001,809,
KLÅ,Armar/händer,armar/händer,0,78,78,29,0,1,1,1,6,1.244,,,2018_Sep_13_1706,59.6329159855,verb_norming_L1-swe_no_translation,001,809,
KLÅ,,,0,78,78,29,,,,,,,,,2018_Sep_13_1706,59.6329159855,verb_norming_L1-swe_no_translation,001,809,
SKYFFLA,Ben/fötter,ben/fötter,0,79,79,78,0,0,0,0,2,5.633,,,2018_Sep_13_1706,59.6329159855,verb_norming_L1-swe_no_translation,001,809,
SKYFFLA,Armar/händer,armar/händer,0,79,79,78,0,1,1,1,7,1.609,,,2018_Sep_13_1706,59.6329159855,verb_norming_L1-swe_no_translation,001,809,
SKYFFLA,,,0,79,79,78,,,,,,,,,2018_Sep_13_1706,59.6329159855,verb_norming_L1-swe_no_translation,001,809,
KRAVLA,Ben/fötter,ben/fötter,0,80,80,122,0,0,0,0,2,2.953,,,2018_Sep_13_1706,59.6329159855,verb_norming_L1-swe_no_translation,001,809,
KRAVLA,Armar/händer,armar/händer,0,80,80,122,0,1,1,1,6,5.804,,,2018_Sep_13_1706,59.6329159855,verb_norming_L1-swe_no_translation,001,809,
KRAVLA,,,0,80,80,122,,,,,,,,,2018_Sep_13_1706,59.6329159855,verb_norming_L1-swe_no_translation,001,809,
BANKA,Ben/fötter,ben/fötter,0,81,81,1,0,0,0,0,1,3.305,,,2018_Sep_13_1706,59.6329159855,verb_norming_L1-swe_no_translation,001,809,
BANKA,Armar/händer,armar/händer,0,81,81,1,0,1,1,1,7,1.042,,,2018_Sep_13_1706,59.6329159855,verb_norming_L1-swe_no_translation,001,809,
BANKA,,,0,81,81,1,,,,,,,,,2018_Sep_13_1706,59.6329159855,verb_norming_L1-swe_no_translation,001,809,
SPRINGA,Ben/fötter,ben/fötter,0,82,82,145,0,0,0,0,7,2.298,,,2018_Sep_13_1706,59.6329159855,verb_norming_L1-swe_no_translation,001,809,
SPRINGA,Armar/händer,armar/händer,0,82,82,145,0,1,1,1,1,1.494,,,2018_Sep_13_1706,59.6329159855,verb_norming_L1-swe_no_translation,001,809,
SPRINGA,,,0,82,82,145,,,,,,,,,2018_Sep_13_1706,59.6329159855,verb_norming_L1-swe_no_translation,001,809,
GLIDA,Ben/fötter,ben/fötter,0,83,83,107,0,0,0,0,6,3.708,,,2018_Sep_13_1706,59.6329159855,verb_norming_L1-swe_no_translation,001,809,
GLIDA,Armar/händer,armar/händer,0,83,83,107,0,1,1,1,2,1.008,,,2018_Sep_13_1706,59.6329159855,verb_norming_L1-swe_no_translation,001,809,
GLIDA,,,0,83,83,107,,,,,,,,,2018_Sep_13_1706,59.6329159855,verb_norming_L1-swe_no_translation,001,809,
SKRIDA,Ben/fötter,ben/fötter,0,84,84,136,0,0,0,0,7,9.359,,,2018_Sep_13_1706,59.6329159855,verb_norming_L1-swe_no_translation,001,809,
SKRIDA,Armar/händer,armar/händer,0,84,84,136,0,1,1,1,2,1.829,,,2018_Sep_13_1706,59.6329159855,verb_norming_L1-swe_no_translation,001,809,
SKRIDA,,,0,84,84,136,,,,,,,,,2018_Sep_13_1706,59.6329159855,verb_norming_L1-swe_no_translation,001,809,
GREPPA,Ben/fötter,ben/fötter,0,85,85,18,0,0,0,0,2,3.103,,,2018_Sep_13_1706,59.6329159855,verb_norming_L1-swe_no_translation,001,809,
GREPPA,Armar/händer,armar/händer,0,85,85,18,0,1,1,1,7,1.947,,,2018_Sep_13_1706,59.6329159855,verb_norming_L1-swe_no_translation,001,809,
GREPPA,,,0,85,85,18,,,,,,,,,2018_Sep_13_1706,59.6329159855,verb_norming_L1-swe_no_translation,001,809,
HACKA,Ben/fötter,ben/fötter,0,86,86,20,0,0,0,0,1,3.186,,,2018_Sep_13_1706,59.6329159855,verb_norming_L1-swe_no_translation,001,809,
HACKA,Armar/händer,armar/händer,0,86,86,20,0,1,1,1,7,0.788,,,2018_Sep_13_1706,59.6329159855,verb_norming_L1-swe_no_translation,001,809,
HACKA,,,0,86,86,20,,,,,,,,,2018_Sep_13_1706,59.6329159855,verb_norming_L1-swe_no_translation,001,809,
KNYCKA,Ben/fötter,ben/fötter,0,87,87,39,0,0,0,0,2,8.838,,,2018_Sep_13_1706,59.6329159855,verb_norming_L1-swe_no_translation,001,809,
KNYCKA,Armar/händer,armar/händer,0,87,87,39,0,1,1,1,5,0.403,,,2018_Sep_13_1706,59.6329159855,verb_norming_L1-swe_no_translation,001,809,
KNYCKA,,,0,87,87,39,,,,,,,,,2018_Sep_13_1706,59.6329159855,verb_norming_L1-swe_no_translation,001,809,
HAFFA,Ben/fötter,ben/fötter,0,88,88,21,0,0,0,0,6,12.176,,,2018_Sep_13_1706,59.6329159855,verb_norming_L1-swe_no_translation,001,809,
HAFFA,Armar/händer,armar/händer,0,88,88,21,0,1,1,1,5,0.706,,,2018_Sep_13_1706,59.6329159855,verb_norming_L1-swe_no_translation,001,809,
HAFFA,,,0,88,88,21,,,,,,,,,2018_Sep_13_1706,59.6329159855,verb_norming_L1-swe_no_translation,001,809,
KLIVA,Ben/fötter,ben/fötter,0,89,89,117,0,0,0,0,7,2.517,,,2018_Sep_13_1706,59.6329159855,verb_norming_L1-swe_no_translation,001,809,
KLIVA,Armar/händer,armar/händer,0,89,89,117,0,1,1,1,2,0.824,,,2018_Sep_13_1706,59.6329159855,verb_norming_L1-swe_no_translation,001,809,
KLIVA,,,0,89,89,117,,,,,,,,,2018_Sep_13_1706,59.6329159855,verb_norming_L1-swe_no_translation,001,809,
TRIPPA,Ben/fötter,ben/fötter,0,90,90,163,0,0,0,0,7,2.483,,,2018_Sep_13_1706,59.6329159855,verb_norming_L1-swe_no_translation,001,809,
TRIPPA,Armar/händer,armar/händer,0,90,90,163,0,1,1,1,1,4.547,,,2018_Sep_13_1706,59.6329159855,verb_norming_L1-swe_no_translation,001,809,
TRIPPA,,,0,90,90,163,,,,,,,,,2018_Sep_13_1706,59.6329159855,verb_norming_L1-swe_no_translation,001,809,
DASKA,Ben/fötter,ben/fötter,0,91,91,5,0,0,0,0,1,3.456,,,2018_Sep_13_1706,59.6329159855,verb_norming_L1-swe_no_translation,001,809,
DASKA,Armar/händer,armar/händer,0,91,91,5,0,1,1,1,7,1.209,,,2018_Sep_13_1706,59.6329159855,verb_norming_L1-swe_no_translation,001,809,
DASKA,,,0,91,91,5,,,,,,,,,2018_Sep_13_1706,59.6329159855,verb_norming_L1-swe_no_translation,001,809,
VANDRA,Ben/fötter,ben/fötter,0,92,92,166,0,0,0,0,7,2.634,,,2018_Sep_13_1706,59.6329159855,verb_norming_L1-swe_no_translation,001,809,
VANDRA,Armar/händer,armar/händer,0,92,92,166,0,1,1,1,2,2.266,,,2018_Sep_13_1706,59.6329159855,verb_norming_L1-swe_no_translation,001,809,
VANDRA,,,0,92,92,166,,,,,,,,,2018_Sep_13_1706,59.6329159855,verb_norming_L1-swe_no_translation,001,809,
TASSA,Ben/fötter,ben/fötter,0,93,93,159,0,0,0,0,7,9.862,,,2018_Sep_13_1706,59.6329159855,verb_norming_L1-swe_no_translation,001,809,
TASSA,Armar/händer,armar/händer,0,93,93,159,0,1,1,1,2,1.293,,,2018_Sep_13_1706,59.6329159855,verb_norming_L1-swe_no_translation,001,809,
TASSA,,,0,93,93,159,,,,,,,,,2018_Sep_13_1706,59.6329159855,verb_norming_L1-swe_no_translation,001,809,
HOPPA,Ben/fötter,ben/fötter,0,94,94,111,0,0,0,0,7,2.316,,,2018_Sep_13_1706,59.6329159855,verb_norming_L1-swe_no_translation,001,809,
HOPPA,Armar/händer,armar/händer,0,94,94,111,0,1,1,1,1,0.59,,,2018_Sep_13_1706,59.6329159855,verb_norming_L1-swe_no_translation,001,809,
HOPPA,,,0,94,94,111,,,,,,,,,2018_Sep_13_1706,59.6329159855,verb_norming_L1-swe_no_translation,001,809,
LINDA,Ben/fötter,ben/fötter,0,95,95,43,0,0,0,0,1,6.726,,,2018_Sep_13_1706,59.6329159855,verb_norming_L1-swe_no_translation,001,809,
LINDA,Armar/händer,armar/händer,0,95,95,43,0,1,1,1,5,1.159,,,2018_Sep_13_1706,59.6329159855,verb_norming_L1-swe_no_translation,001,809,
LINDA,,,0,95,95,43,,,,,,,,,2018_Sep_13_1706,59.6329159855,verb_norming_L1-swe_no_translation,001,809,
SKYNDA,Ben/fötter,ben/fötter,0,96,96,138,0,0,0,0,5,5.836,,,2018_Sep_13_1706,59.6329159855,verb_norming_L1-swe_no_translation,001,809,
SKYNDA,Armar/händer,armar/händer,0,96,96,138,0,1,1,1,2,2.616,,,2018_Sep_13_1706,59.6329159855,verb_norming_L1-swe_no_translation,001,809,
SKYNDA,,,0,96,96,138,,,,,,,,,2018_Sep_13_1706,59.6329159855,verb_norming_L1-swe_no_translation,001,809,
RAKA,Ben/fötter,ben/fötter,0,97,97,59,0,0,0,0,1,7.465,,,2018_Sep_13_1706,59.6329159855,verb_norming_L1-swe_no_translation,001,809,
RAKA,Armar/händer,armar/händer,0,97,97,59,0,1,1,1,5,4.983,,,2018_Sep_13_1706,59.6329159855,verb_norming_L1-swe_no_translation,001,809,
RAKA,,,0,97,97,59,,,,,,,,,2018_Sep_13_1706,59.6329159855,verb_norming_L1-swe_no_translation,001,809,
RO,Ben/fötter,ben/fötter,0,98,98,64,0,0,0,0,3,4.766,,,2018_Sep_13_1706,59.6329159855,verb_norming_L1-swe_no_translation,001,809,
RO,Armar/händer,armar/händer,0,98,98,64,0,1,1,1,7,3.19,,,2018_Sep_13_1706,59.6329159855,verb_norming_L1-swe_no_translation,001,809,
RO,,,0,98,98,64,,,,,,,,,2018_Sep_13_1706,59.6329159855,verb_norming_L1-swe_no_translation,001,809,
FLÄTA,Ben/fötter,ben/fötter,0,99,99,11,0,0,0,0,1,9.023,,,2018_Sep_13_1706,59.6329159855,verb_norming_L1-swe_no_translation,001,809,
FLÄTA,Armar/händer,armar/händer,0,99,99,11,0,1,1,1,7,3.977,,,2018_Sep_13_1706,59.6329159855,verb_norming_L1-swe_no_translation,001,809,
FLÄTA,,,0,99,99,11,,,,,,,,,2018_Sep_13_1706,59.6329159855,verb_norming_L1-swe_no_translation,001,809,
SVAJA,Ben/fötter,ben/fötter,0,100,100,156,0,0,0,0,7,4.276,,,2018_Sep_13_1706,59.6329159855,verb_norming_L1-swe_no_translation,001,809,
SVAJA,Armar/händer,armar/händer,0,100,100,156,0,1,1,1,1,1.124,,,2018_Sep_13_1706,59.6329159855,verb_norming_L1-swe_no_translation,001,809,
SVAJA,,,0,100,100,156,,,,,,,,,2018_Sep_13_1706,59.6329159855,verb_norming_L1-swe_no_translation,001,809,
PADDLA,Ben/fötter,ben/fötter,0,101,101,49,0,0,0,0,2,6.055,,,2018_Sep_13_1706,59.6329159855,verb_norming_L1-swe_no_translation,001,809,
PADDLA,Armar/händer,armar/händer,0,101,101,49,0,1,1,1,7,1.209,,,2018_Sep_13_1706,59.6329159855,verb_norming_L1-swe_no_translation,001,809,
PADDLA,,,0,101,101,49,,,,,,,,,2018_Sep_13_1706,59.6329159855,verb_norming_L1-swe_no_translation,001,809,
IRRA,Ben/fötter,ben/fötter,0,102,102,113,0,0,0,0,5,6.56,,,2018_Sep_13_1706,59.6329159855,verb_norming_L1-swe_no_translation,001,809,
IRRA,Armar/händer,armar/händer,0,102,102,113,0,1,1,1,5,0.639,,,2018_Sep_13_1706,59.6329159855,verb_norming_L1-swe_no_translation,001,809,
IRRA,,,0,102,102,113,,,,,,,,,2018_Sep_13_1706,59.6329159855,verb_norming_L1-swe_no_translation,001,809,
NYPA,Ben/fötter,ben/fötter,0,103,103,47,0,0,0,0,1,2.984,,,2018_Sep_13_1706,59.6329159855,verb_norming_L1-swe_no_translation,001,809,
NYPA,Armar/händer,armar/händer,0,103,103,47,0,1,1,1,7,0.789,,,2018_Sep_13_1706,59.6329159855,verb_norming_L1-swe_no_translation,001,809,
NYPA,,,0,103,103,47,,,,,,,,,2018_Sep_13_1706,59.6329159855,verb_norming_L1-swe_no_translation,001,809,
STÅ,Ben/fötter,ben/fötter,0,104,104,147,0,0,0,0,7,7.449,,,2018_Sep_13_1706,59.6329159855,verb_norming_L1-swe_no_translation,001,809,
STÅ,Armar/händer,armar/händer,0,104,104,147,0,1,1,1,1,1.378,,,2018_Sep_13_1706,59.6329159855,verb_norming_L1-swe_no_translation,001,809,
STÅ,,,0,104,104,147,,,,,,,,,2018_Sep_13_1706,59.6329159855,verb_norming_L1-swe_no_translation,001,809,
FLANERA,Ben/fötter,ben/fötter,0,105,105,104,0,0,0,0,7,6.574,,,2018_Sep_13_1706,59.6329159855,verb_norming_L1-swe_no_translation,001,809,
FLANERA,Armar/händer,armar/händer,0,105,105,104,0,1,1,1,3,0.722,,,2018_Sep_13_1706,59.6329159855,verb_norming_L1-swe_no_translation,001,809,
FLANERA,,,0,105,105,104,,,,,,,,,2018_Sep_13_1706,59.6329159855,verb_norming_L1-swe_no_translation,001,809,
LUNKA,Ben/fötter,ben/fötter,0,106,106,126,0,0,0,0,7,3.691,,,2018_Sep_13_1706,59.6329159855,verb_norming_L1-swe_no_translation,001,809,
LUNKA,Armar/händer,armar/händer,0,106,106,126,0,1,1,1,2,0.589,,,2018_Sep_13_1706,59.6329159855,verb_norming_L1-swe_no_translation,001,809,
LUNKA,,,0,106,106,126,,,,,,,,,2018_Sep_13_1706,59.6329159855,verb_norming_L1-swe_no_translation,001,809,
KELA,Ben/fötter,ben/fötter,0,107,107,28,0,0,0,0,2,5.318,,,2018_Sep_13_1706,59.6329159855,verb_norming_L1-swe_no_translation,001,809,
KELA,Armar/händer,armar/händer,0,107,107,28,0,1,1,1,7,1.83,,,2018_Sep_13_1706,59.6329159855,verb_norming_L1-swe_no_translation,001,809,
KELA,,,0,107,107,28,,,,,,,,,2018_Sep_13_1706,59.6329159855,verb_norming_L1-swe_no_translation,001,809,
LINKA,Ben/fötter,ben/fötter,0,108,108,124,0,0,0,0,7,4.412,,,2018_Sep_13_1706,59.6329159855,verb_norming_L1-swe_no_translation,001,809,
LINKA,Armar/händer,armar/händer,0,108,108,124,0,1,1,1,1,1.645,,,2018_Sep_13_1706,59.6329159855,verb_norming_L1-swe_no_translation,001,809,
LINKA,,,0,108,108,124,,,,,,,,,2018_Sep_13_1706,59.6329159855,verb_norming_L1-swe_no_translation,001,809,
SKUMMA,Ben/fötter,ben/fötter,0,109,109,76,0,0,0,0,1,6.709,,,2018_Sep_13_1706,59.6329159855,verb_norming_L1-swe_no_translation,001,809,
SKUMMA,Armar/händer,armar/händer,0,109,109,76,0,1,1,1,1,0.655,,,2018_Sep_13_1706,59.6329159855,verb_norming_L1-swe_no_translation,001,809,
SKUMMA,,,0,109,109,76,,,,,,,,,2018_Sep_13_1706,59.6329159855,verb_norming_L1-swe_no_translation,001,809,
RIVA,Ben/fötter,ben/fötter,0,110,110,63,0,0,0,0,1,3.589,,,2018_Sep_13_1706,59.6329159855,verb_norming_L1-swe_no_translation,001,809,
RIVA,Armar/händer,armar/händer,0,110,110,63,0,1,1,1,5,1.009,,,2018_Sep_13_1706,59.6329159855,verb_norming_L1-swe_no_translation,001,809,
RIVA,,,0,110,110,63,,,,,,,,,2018_Sep_13_1706,59.6329159855,verb_norming_L1-swe_no_translation,001,809,
GRABBA,Ben/fötter,ben/fötter,0,111,111,16,0,0,0,0,1,4.16,,,2018_Sep_13_1706,59.6329159855,verb_norming_L1-swe_no_translation,001,809,
GRABBA,Armar/händer,armar/händer,0,111,111,16,0,1,1,1,7,2.819,,,2018_Sep_13_1706,59.6329159855,verb_norming_L1-swe_no_translation,001,809,
GRABBA,,,0,111,111,16,,,,,,,,,2018_Sep_13_1706,59.6329159855,verb_norming_L1-swe_no_translation,001,809,
POLERA,Ben/fötter,ben/fötter,0,112,112,54,0,0,0,0,1,4.965,,,2018_Sep_13_1706,59.6329159855,verb_norming_L1-swe_no_translation,001,809,
POLERA,Armar/händer,armar/händer,0,112,112,54,0,1,1,1,6,0.538,,,2018_Sep_13_1706,59.6329159855,verb_norming_L1-swe_no_translation,001,809,
POLERA,,,0,112,112,54,,,,,,,,,2018_Sep_13_1706,59.6329159855,verb_norming_L1-swe_no_translation,001,809,
SKJUTA,Ben/fötter,ben/fötter,0,113,113,72,0,0,0,0,3,7.328,,,2018_Sep_13_1706,59.6329159855,verb_norming_L1-swe_no_translation,001,809,
SKJUTA,Armar/händer,armar/händer,0,113,113,72,0,1,1,1,6,1.073,,,2018_Sep_13_1706,59.6329159855,verb_norming_L1-swe_no_translation,001,809,
SKJUTA,,,0,113,113,72,,,,,,,,,2018_Sep_13_1706,59.6329159855,verb_norming_L1-swe_no_translation,001,809,
VANKA,Ben/fötter,ben/fötter,0,114,114,167,0,0,0,0,7,2.701,,,2018_Sep_13_1706,59.6329159855,verb_norming_L1-swe_no_translation,001,809,
VANKA,Armar/händer,armar/händer,0,114,114,167,0,1,1,1,2,0.689,,,2018_Sep_13_1706,59.6329159855,verb_norming_L1-swe_no_translation,001,809,
VANKA,,,0,114,114,167,,,,,,,,,2018_Sep_13_1706,59.6329159855,verb_norming_L1-swe_no_translation,001,809,
ÖSA,Ben/fötter,ben/fötter,0,115,115,48,0,0,0,0,1,3.959,,,2018_Sep_13_1706,59.6329159855,verb_norming_L1-swe_no_translation,001,809,
ÖSA,Armar/händer,armar/händer,0,115,115,48,0,1,1,1,5,8.336,,,2018_Sep_13_1706,59.6329159855,verb_norming_L1-swe_no_translation,001,809,
ÖSA,,,0,115,115,48,,,,,,,,,2018_Sep_13_1706,59.6329159855,verb_norming_L1-swe_no_translation,001,809,
STAPPLA,Ben/fötter,ben/fötter,0,116,116,149,0,0,0,0,7,2.063,,,2018_Sep_13_1706,59.6329159855,verb_norming_L1-swe_no_translation,001,809,
STAPPLA,Armar/händer,armar/händer,0,116,116,149,0,1,1,1,3,2.584,,,2018_Sep_13_1706,59.6329159855,verb_norming_L1-swe_no_translation,001,809,
STAPPLA,,,0,116,116,149,,,,,,,,,2018_Sep_13_1706,59.6329159855,verb_norming_L1-swe_no_translation,001,809,
SKÄRA,Ben/fötter,ben/fötter,0,117,117,71,0,0,0,0,1,2.684,,,2018_Sep_13_1706,59.6329159855,verb_norming_L1-swe_no_translation,001,809,
SKÄRA,Armar/händer,armar/händer,0,117,117,71,0,1,1,1,7,1.26,,,2018_Sep_13_1706,59.6329159855,verb_norming_L1-swe_no_translation,001,809,
SKÄRA,,,0,117,117,71,,,,,,,,,2018_Sep_13_1706,59.6329159855,verb_norming_L1-swe_no_translation,001,809,
REPA,Ben/fötter,ben/fötter,0,118,118,61,0,0,0,0,1,6.928,,,2018_Sep_13_1706,59.6329159855,verb_norming_L1-swe_no_translation,001,809,
REPA,Armar/händer,armar/händer,0,118,118,61,0,1,1,1,6,0.523,,,2018_Sep_13_1706,59.6329159855,verb_norming_L1-swe_no_translation,001,809,
REPA,,,0,118,118,61,,,,,,,,,2018_Sep_13_1706,59.6329159855,verb_norming_L1-swe_no_translation,001,809,
HÖJA,Ben/fötter,ben/fötter,0,119,119,25,0,0,0,0,1,8.553,,,2018_Sep_13_1706,59.6329159855,verb_norming_L1-swe_no_translation,001,809,
HÖJA,Armar/händer,armar/händer,0,119,119,25,0,1,1,1,1,0.705,,,2018_Sep_13_1706,59.6329159855,verb_norming_L1-swe_no_translation,001,809,
HÖJA,,,0,119,119,25,,,,,,,,,2018_Sep_13_1706,59.6329159855,verb_norming_L1-swe_no_translation,001,809,
SLÄNTRA,Ben/fötter,ben/fötter,0,120,120,139,0,0,0,0,5,7.899,,,2018_Sep_13_1706,59.6329159855,verb_norming_L1-swe_no_translation,001,809,
SLÄNTRA,Armar/händer,armar/händer,0,120,120,139,0,1,1,1,2,1.223,,,2018_Sep_13_1706,59.6329159855,verb_norming_L1-swe_no_translation,001,809,
SLÄNTRA,,,0,120,120,139,,,,,,,,,2018_Sep_13_1706,59.6329159855,verb_norming_L1-swe_no_translation,001,809,
SVASSA,Ben/fötter,ben/fötter,0,121,121,157,0,0,0,0,7,5.099,,,2018_Sep_13_1706,59.6329159855,verb_norming_L1-swe_no_translation,001,809,
SVASSA,Armar/händer,armar/händer,0,121,121,157,0,1,1,1,3,1.997,,,2018_Sep_13_1706,59.6329159855,verb_norming_L1-swe_no_translation,001,809,
SVASSA,,,0,121,121,157,,,,,,,,,2018_Sep_13_1706,59.6329159855,verb_norming_L1-swe_no_translation,001,809,
KLICKA,Ben/fötter,ben/fötter,0,122,122,33,0,0,0,0,1,2.666,,,2018_Sep_13_1706,59.6329159855,verb_norming_L1-swe_no_translation,001,809,
KLICKA,Armar/händer,armar/händer,0,122,122,33,0,1,1,1,7,3.521,,,2018_Sep_13_1706,59.6329159855,verb_norming_L1-swe_no_translation,001,809,
KLICKA,,,0,122,122,33,,,,,,,,,2018_Sep_13_1706,59.6329159855,verb_norming_L1-swe_no_translation,001,809,
TORKA,Ben/fötter,ben/fötter,0,123,123,93,0,0,0,0,1,2.634,,,2018_Sep_13_1706,59.6329159855,verb_norming_L1-swe_no_translation,001,809,
TORKA,Armar/händer,armar/händer,0,123,123,93,0,1,1,1,7,1.579,,,2018_Sep_13_1706,59.6329159855,verb_norming_L1-swe_no_translation,001,809,
TORKA,,,0,123,123,93,,,,,,,,,2018_Sep_13_1706,59.6329159855,verb_norming_L1-swe_no_translation,001,809,
KRYPA,Ben/fötter,ben/fötter,0,124,124,123,0,0,0,0,6,5.768,,,2018_Sep_13_1706,59.6329159855,verb_norming_L1-swe_no_translation,001,809,
KRYPA,Armar/händer,armar/händer,0,124,124,123,0,1,1,1,6,0.738,,,2018_Sep_13_1706,59.6329159855,verb_norming_L1-swe_no_translation,001,809,
KRYPA,,,0,124,124,123,,,,,,,,,2018_Sep_13_1706,59.6329159855,verb_norming_L1-swe_no_translation,001,809,
HIVA,Ben/fötter,ben/fötter,0,125,125,24,0,0,0,0,1,4.362,,,2018_Sep_13_1706,59.6329159855,verb_norming_L1-swe_no_translation,001,809,
HIVA,Armar/händer,armar/händer,0,125,125,24,0,1,1,1,6,1.126,,,2018_Sep_13_1706,59.6329159855,verb_norming_L1-swe_no_translation,001,809,
HIVA,,,0,125,125,24,,,,,,,,,2018_Sep_13_1706,59.6329159855,verb_norming_L1-swe_no_translation,001,809,
VADA,Ben/fötter,ben/fötter,0,126,126,165,0,0,0,0,7,8.203,,,2018_Sep_13_1706,59.6329159855,verb_norming_L1-swe_no_translation,001,809,
VADA,Armar/händer,armar/händer,0,126,126,165,0,1,1,1,5,2.049,,,2018_Sep_13_1706,59.6329159855,verb_norming_L1-swe_no_translation,001,809,
VADA,,,0,126,126,165,,,,,,,,,2018_Sep_13_1706,59.6329159855,verb_norming_L1-swe_no_translation,001,809,
BULTA,Ben/fötter,ben/fötter,0,127,127,4,0,0,0,0,1,3.959,,,2018_Sep_13_1706,59.6329159855,verb_norming_L1-swe_no_translation,001,809,
BULTA,Armar/händer,armar/händer,0,127,127,4,0,1,1,1,7,0.958,,,2018_Sep_13_1706,59.6329159855,verb_norming_L1-swe_no_translation,001,809,
BULTA,,,0,127,127,4,,,,,,,,,2018_Sep_13_1706,59.6329159855,verb_norming_L1-swe_no_translation,001,809,
DUNKA,Ben/fötter,ben/fötter,0,128,128,7,0,0,0,0,1,4.345,,,2018_Sep_13_1706,59.6329159855,verb_norming_L1-swe_no_translation,001,809,
DUNKA,Armar/händer,armar/händer,0,128,128,7,0,1,1,1,7,1.26,,,2018_Sep_13_1706,59.6329159855,verb_norming_L1-swe_no_translation,001,809,
DUNKA,,,0,128,128,7,,,,,,,,,2018_Sep_13_1706,59.6329159855,verb_norming_L1-swe_no_translation,001,809,
HALTA,Ben/fötter,ben/fötter,0,129,129,110,0,0,0,0,7,1.88,,,2018_Sep_13_1706,59.6329159855,verb_norming_L1-swe_no_translation,001,809,
HALTA,Armar/händer,armar/händer,0,129,129,110,0,1,1,1,1,2.366,,,2018_Sep_13_1706,59.6329159855,verb_norming_L1-swe_no_translation,001,809,
HALTA,,,0,129,129,110,,,,,,,,,2018_Sep_13_1706,59.6329159855,verb_norming_L1-swe_no_translation,001,809,
SLUNGA,Ben/fötter,ben/fötter,0,130,130,83,0,0,0,0,1,4.378,,,2018_Sep_13_1706,59.6329159855,verb_norming_L1-swe_no_translation,001,809,
SLUNGA,Armar/händer,armar/händer,0,130,130,83,0,1,1,1,7,2.115,,,2018_Sep_13_1706,59.6329159855,verb_norming_L1-swe_no_translation,001,809,
SLUNGA,,,0,130,130,83,,,,,,,,,2018_Sep_13_1706,59.6329159855,verb_norming_L1-swe_no_translation,001,809,
STRÖVA,Ben/fötter,ben/fötter,0,131,131,153,0,0,0,0,7,4.511,,,2018_Sep_13_1706,59.6329159855,verb_norming_L1-swe_no_translation,001,809,
STRÖVA,Armar/händer,armar/händer,0,131,131,153,0,1,1,1,3,1.625,,,2018_Sep_13_1706,59.6329159855,verb_norming_L1-swe_no_translation,001,809,
STRÖVA,,,0,131,131,153,,,,,,,,,2018_Sep_13_1706,59.6329159855,verb_norming_L1-swe_no_translation,001,809,
SNAVA,Ben/fötter,ben/fötter,0,132,132,142,0,0,0,0,7,2.048,,,2018_Sep_13_1706,59.6329159855,verb_norming_L1-swe_no_translation,001,809,
SNAVA,Armar/händer,armar/händer,0,132,132,142,0,1,1,1,1,0.858,,,2018_Sep_13_1706,59.6329159855,verb_norming_L1-swe_no_translation,001,809,
SNAVA,,,0,132,132,142,,,,,,,,,2018_Sep_13_1706,59.6329159855,verb_norming_L1-swe_no_translation,001,809,
ROTA,Ben/fötter,ben/fötter,0,133,133,66,0,0,0,0,1,2.769,,,2018_Sep_13_1706,59.6329159855,verb_norming_L1-swe_no_translation,001,809,
ROTA,Armar/händer,armar/händer,0,133,133,66,0,1,1,1,5,2.149,,,2018_Sep_13_1706,59.6329159855,verb_norming_L1-swe_no_translation,001,809,
ROTA,,,0,133,133,66,,,,,,,,,2018_Sep_13_1706,59.6329159855,verb_norming_L1-swe_no_translation,001,809,
RAGLA,Ben/fötter,ben/fötter,0,134,134,130,0,0,0,0,7,1.678,,,2018_Sep_13_1706,59.6329159855,verb_norming_L1-swe_no_translation,001,809,
RAGLA,Armar/händer,armar/händer,0,134,134,130,0,1,1,1,1,1.394,,,2018_Sep_13_1706,59.6329159855,verb_norming_L1-swe_no_translation,001,809,
RAGLA,,,0,134,134,130,,,,,,,,,2018_Sep_13_1706,59.6329159855,verb_norming_L1-swe_no_translation,001,809,
KOPPLA,Ben/fötter,ben/fötter,0,135,135,40,0,0,0,0,1,6.961,,,2018_Sep_13_1706,59.6329159855,verb_norming_L1-swe_no_translation,001,809,
KOPPLA,Armar/händer,armar/händer,0,135,135,40,0,1,1,1,1,0.622,,,2018_Sep_13_1706,59.6329159855,verb_norming_L1-swe_no_translation,001,809,
KOPPLA,,,0,135,135,40,,,,,,,,,2018_Sep_13_1706,59.6329159855,verb_norming_L1-swe_no_translation,001,809,
BADDA,Ben/fötter,ben/fötter,0,136,136,0,0,0,0,0,1,4.462,,,2018_Sep_13_1706,59.6329159855,verb_norming_L1-swe_no_translation,001,809,
BADDA,Armar/händer,armar/händer,0,136,136,0,0,1,1,1,5,0.539,,,2018_Sep_13_1706,59.6329159855,verb_norming_L1-swe_no_translation,001,809,
BADDA,,,0,136,136,0,,,,,,,,,2018_Sep_13_1706,59.6329159855,verb_norming_L1-swe_no_translation,001,809,
STEGA,Ben/fötter,ben/fötter,0,137,137,150,0,0,0,0,5,8.268,,,2018_Sep_13_1706,59.6329159855,verb_norming_L1-swe_no_translation,001,809,
STEGA,Armar/händer,armar/händer,0,137,137,150,0,1,1,1,1,1.863,,,2018_Sep_13_1706,59.6329159855,verb_norming_L1-swe_no_translation,001,809,
STEGA,,,0,137,137,150,,,,,,,,,2018_Sep_13_1706,59.6329159855,verb_norming_L1-swe_no_translation,001,809,
FLACKA,Ben/fötter,ben/fötter,0,138,138,103,0,0,0,0,1,8.2,,,2018_Sep_13_1706,59.6329159855,verb_norming_L1-swe_no_translation,001,809,
FLACKA,Armar/händer,armar/händer,0,138,138,103,0,1,1,1,1,2.128,,,2018_Sep_13_1706,59.6329159855,verb_norming_L1-swe_no_translation,001,809,
FLACKA,,,0,138,138,103,,,,,,,,,2018_Sep_13_1706,59.6329159855,verb_norming_L1-swe_no_translation,001,809,
SKRUBBA,Ben/fötter,ben/fötter,0,139,139,75,0,0,0,0,2,4.646,,,2018_Sep_13_1706,59.6329159855,verb_norming_L1-swe_no_translation,001,809,
SKRUBBA,Armar/händer,armar/händer,0,139,139,75,0,1,1,1,5,0.722,,,2018_Sep_13_1706,59.6329159855,verb_norming_L1-swe_no_translation,001,809,
SKRUBBA,,,0,139,139,75,,,,,,,,,2018_Sep_13_1706,59.6329159855,verb_norming_L1-swe_no_translation,001,809,
RULLA,Ben/fötter,ben/fötter,0,140,140,132,0,0,0,0,2,10.098,,,2018_Sep_13_1706,59.6329159855,verb_norming_L1-swe_no_translation,001,809,
RULLA,Armar/händer,armar/händer,0,140,140,132,0,1,1,1,1,0.605,,,2018_Sep_13_1706,59.6329159855,verb_norming_L1-swe_no_translation,001,809,
RULLA,,,0,140,140,132,,,,,,,,,2018_Sep_13_1706,59.6329159855,verb_norming_L1-swe_no_translation,001,809,
KNALLA,Ben/fötter,ben/fötter,0,141,141,119,0,0,0,0,7,6.86,,,2018_Sep_13_1706,59.6329159855,verb_norming_L1-swe_no_translation,001,809,
KNALLA,Armar/händer,armar/händer,0,141,141,119,0,1,1,1,2,0.806,,,2018_Sep_13_1706,59.6329159855,verb_norming_L1-swe_no_translation,001,809,
KNALLA,,,0,141,141,119,,,,,,,,,2018_Sep_13_1706,59.6329159855,verb_norming_L1-swe_no_translation,001,809,
KNACKA,Ben/fötter,ben/fötter,0,142,142,36,0,0,0,0,1,3.838,,,2018_Sep_13_1706,59.6329159855,verb_norming_L1-swe_no_translation,001,809,
KNACKA,Armar/händer,armar/händer,0,142,142,36,0,1,1,1,7,0.52,,,2018_Sep_13_1706,59.6329159855,verb_norming_L1-swe_no_translation,001,809,
KNACKA,,,0,142,142,36,,,,,,,,,2018_Sep_13_1706,59.6329159855,verb_norming_L1-swe_no_translation,001,809,
TVINNA,Ben/fötter,ben/fötter,0,143,143,97,0,0,0,0,1,3.64,,,2018_Sep_13_1706,59.6329159855,verb_norming_L1-swe_no_translation,001,809,
TVINNA,Armar/händer,armar/händer,0,143,143,97,0,1,1,1,6,0.79,,,2018_Sep_13_1706,59.6329159855,verb_norming_L1-swe_no_translation,001,809,
TVINNA,,,0,143,143,97,,,,,,,,,2018_Sep_13_1706,59.6329159855,verb_norming_L1-swe_no_translation,001,809,
KNÄA,Ben/fötter,ben/fötter,0,144,144,118,0,0,0,0,6,7.583,,,2018_Sep_13_1706,59.6329159855,verb_norming_L1-swe_no_translation,001,809,
KNÄA,Armar/händer,armar/händer,0,144,144,118,0,1,1,1,4,1.176,,,2018_Sep_13_1706,59.6329159855,verb_norming_L1-swe_no_translation,001,809,
KNÄA,,,0,144,144,118,,,,,,,,,2018_Sep_13_1706,59.6329159855,verb_norming_L1-swe_no_translation,001,809,
GRÄVA,Ben/fötter,ben/fötter,0,145,145,17,0,0,0,0,1,4.328,,,2018_Sep_13_1706,59.6329159855,verb_norming_L1-swe_no_translation,001,809,
GRÄVA,Armar/händer,armar/händer,0,145,145,17,0,1,1,1,6,1.427,,,2018_Sep_13_1706,59.6329159855,verb_norming_L1-swe_no_translation,001,809,
GRÄVA,,,0,145,145,17,,,,,,,,,2018_Sep_13_1706,59.6329159855,verb_norming_L1-swe_no_translation,001,809,
KLIPPA,Ben/fötter,ben/fötter,0,146,146,34,0,0,0,0,1,3.607,,,2018_Sep_13_1706,59.6329159855,verb_norming_L1-swe_no_translation,001,809,
KLIPPA,Armar/händer,armar/händer,0,146,146,34,0,1,1,1,3,2.6,,,2018_Sep_13_1706,59.6329159855,verb_norming_L1-swe_no_translation,001,809,
KLIPPA,,,0,146,146,34,,,,,,,,,2018_Sep_13_1706,59.6329159855,verb_norming_L1-swe_no_translation,001,809,
DRA,Ben/fötter,ben/fötter,0,147,147,6,0,0,0,0,3,4.229,,,2018_Sep_13_1706,59.6329159855,verb_norming_L1-swe_no_translation,001,809,
DRA,Armar/händer,armar/händer,0,147,147,6,0,1,1,1,3,1.411,,,2018_Sep_13_1706,59.6329159855,verb_norming_L1-swe_no_translation,001,809,
DRA,,,0,147,147,6,,,,,,,,,2018_Sep_13_1706,59.6329159855,verb_norming_L1-swe_no_translation,001,809,
ÅLA,Ben/fötter,ben/fötter,0,148,148,100,0,0,0,0,5,4.431,,,2018_Sep_13_1706,59.6329159855,verb_norming_L1-swe_no_translation,001,809,
ÅLA,Armar/händer,armar/händer,0,148,148,100,0,1,1,1,5,3.156,,,2018_Sep_13_1706,59.6329159855,verb_norming_L1-swe_no_translation,001,809,
ÅLA,,,0,148,148,100,,,,,,,,,2018_Sep_13_1706,59.6329159855,verb_norming_L1-swe_no_translation,001,809,
SNO,Ben/fötter,ben/fötter,0,149,149,87,0,0,0,0,1,6.795,,,2018_Sep_13_1706,59.6329159855,verb_norming_L1-swe_no_translation,001,809,
SNO,Armar/händer,armar/händer,0,149,149,87,0,1,1,1,4,2.15,,,2018_Sep_13_1706,59.6329159855,verb_norming_L1-swe_no_translation,001,809,
SNO,,,0,149,149,87,,,,,,,,,2018_Sep_13_1706,59.6329159855,verb_norming_L1-swe_no_translation,001,809,
PISKA,Ben/fötter,ben/fötter,0,150,150,52,0,0,0,0,1,4.563,,,2018_Sep_13_1706,59.6329159855,verb_norming_L1-swe_no_translation,001,809,
PISKA,Armar/händer,armar/händer,0,150,150,52,0,1,1,1,6,2.433,,,2018_Sep_13_1706,59.6329159855,verb_norming_L1-swe_no_translation,001,809,
PISKA,,,0,150,150,52,,,,,,,,,2018_Sep_13_1706,59.6329159855,verb_norming_L1-swe_no_translation,001,809,
SKUTTA,Ben/fötter,ben/fötter,0,151,151,137,0,0,0,0,7,3.673,,,2018_Sep_13_1706,59.6329159855,verb_norming_L1-swe_no_translation,001,809,
SKUTTA,Armar/händer,armar/händer,0,151,151,137,0,1,1,1,2,0.824,,,2018_Sep_13_1706,59.6329159855,verb_norming_L1-swe_no_translation,001,809,
SKUTTA,,,0,151,151,137,,,,,,,,,2018_Sep_13_1706,59.6329159855,verb_norming_L1-swe_no_translation,001,809,
PLOCKA,Ben/fötter,ben/fötter,0,152,152,53,0,0,0,0,1,6.389,,,2018_Sep_13_1706,59.6329159855,verb_norming_L1-swe_no_translation,001,809,
PLOCKA,Armar/händer,armar/händer,0,152,152,53,0,1,1,1,7,0.838,,,2018_Sep_13_1706,59.6329159855,verb_norming_L1-swe_no_translation,001,809,
PLOCKA,,,0,152,152,53,,,,,,,,,2018_Sep_13_1706,59.6329159855,verb_norming_L1-swe_no_translation,001,809,
TÅGA,Ben/fötter,ben/fötter,0,153,153,158,0,0,0,0,7,4.379,,,2018_Sep_13_1706,59.6329159855,verb_norming_L1-swe_no_translation,001,809,
TÅGA,Armar/händer,armar/händer,0,153,153,158,0,1,1,1,2,0.606,,,2018_Sep_13_1706,59.6329159855,verb_norming_L1-swe_no_translation,001,809,
TÅGA,,,0,153,153,158,,,,,,,,,2018_Sep_13_1706,59.6329159855,verb_norming_L1-swe_no_translation,001,809,
KARVA,Ben/fötter,ben/fötter,0,154,154,26,0,0,0,0,1,4.161,,,2018_Sep_13_1706,59.6329159855,verb_norming_L1-swe_no_translation,001,809,
KARVA,Armar/händer,armar/händer,0,154,154,26,0,1,1,1,5,1.812,,,2018_Sep_13_1706,59.6329159855,verb_norming_L1-swe_no_translation,001,809,
KARVA,,,0,154,154,26,,,,,,,,,2018_Sep_13_1706,59.6329159855,verb_norming_L1-swe_no_translation,001,809,
STÖVLA,Ben/fötter,ben/fötter,0,155,155,152,0,0,0,0,7,2.918,,,2018_Sep_13_1706,59.6329159855,verb_norming_L1-swe_no_translation,001,809,
STÖVLA,Armar/händer,armar/händer,0,155,155,152,0,1,1,1,1,2.147,,,2018_Sep_13_1706,59.6329159855,verb_norming_L1-swe_no_translation,001,809,
STÖVLA,,,0,155,155,152,,,,,,,,,2018_Sep_13_1706,59.6329159855,verb_norming_L1-swe_no_translation,001,809,
SKURA,Ben/fötter,ben/fötter,0,156,156,77,0,0,0,0,2,3.49,,,2018_Sep_13_1706,59.6329159855,verb_norming_L1-swe_no_translation,001,809,
SKURA,Armar/händer,armar/händer,0,156,156,77,0,1,1,1,5,2.115,,,2018_Sep_13_1706,59.6329159855,verb_norming_L1-swe_no_translation,001,809,
SKURA,,,0,156,156,77,,,,,,,,,2018_Sep_13_1706,59.6329159855,verb_norming_L1-swe_no_translation,001,809,
KASTA,Ben/fötter,ben/fötter,0,157,157,27,0,0,0,0,1,2.802,,,2018_Sep_13_1706,59.6329159855,verb_norming_L1-swe_no_translation,001,809,
KASTA,Armar/händer,armar/händer,0,157,157,27,0,1,1,1,7,2.065,,,2018_Sep_13_1706,59.6329159855,verb_norming_L1-swe_no_translation,001,809,
KASTA,,,0,157,157,27,,,,,,,,,2018_Sep_13_1706,59.6329159855,verb_norming_L1-swe_no_translation,001,809,
PUTTA,Ben/fötter,ben/fötter,0,158,158,57,0,0,0,0,2,2.919,,,2018_Sep_13_1706,59.6329159855,verb_norming_L1-swe_no_translation,001,809,
PUTTA,Armar/händer,armar/händer,0,158,158,57,0,1,1,1,5,4.044,,,2018_Sep_13_1706,59.6329159855,verb_norming_L1-swe_no_translation,001,809,
PUTTA,,,0,158,158,57,,,,,,,,,2018_Sep_13_1706,59.6329159855,verb_norming_L1-swe_no_translation,001,809,
SPRINTA,Ben/fötter,ben/fötter,0,159,159,146,0,0,0,0,7,4.008,,,2018_Sep_13_1706,59.6329159855,verb_norming_L1-swe_no_translation,001,809,
SPRINTA,Armar/händer,armar/händer,0,159,159,146,0,1,1,1,2,1.074,,,2018_Sep_13_1706,59.6329159855,verb_norming_L1-swe_no_translation,001,809,
SPRINTA,,,0,159,159,146,,,,,,,,,2018_Sep_13_1706,59.6329159855,verb_norming_L1-swe_no_translation,001,809,
RISTA,Ben/fötter,ben/fötter,0,160,160,62,0,0,0,0,1,2.651,,,2018_Sep_13_1706,59.6329159855,verb_norming_L1-swe_no_translation,001,809,
RISTA,Armar/händer,armar/händer,0,160,160,62,0,1,1,1,4,2.753,,,2018_Sep_13_1706,59.6329159855,verb_norming_L1-swe_no_translation,001,809,
RISTA,,,0,160,160,62,,,,,,,,,2018_Sep_13_1706,59.6329159855,verb_norming_L1-swe_no_translation,001,809,
SMEKA,Ben/fötter,ben/fötter,0,161,161,85,0,0,0,0,2,3.105,,,2018_Sep_13_1706,59.6329159855,verb_norming_L1-swe_no_translation,001,809,
SMEKA,Armar/händer,armar/händer,0,161,161,85,0,1,1,1,7,0.858,,,2018_Sep_13_1706,59.6329159855,verb_norming_L1-swe_no_translation,001,809,
SMEKA,,,0,161,161,85,,,,,,,,,2018_Sep_13_1706,59.6329159855,verb_norming_L1-swe_no_translation,001,809,
PROMENERA,Ben/fötter,ben/fötter,0,162,162,129,0,0,0,0,7,2.129,,,2018_Sep_13_1706,59.6329159855,verb_norming_L1-swe_no_translation,001,809,
PROMENERA,Armar/händer,armar/händer,0,162,162,129,0,1,1,1,2,2.466,,,2018_Sep_13_1706,59.6329159855,verb_norming_L1-swe_no_translation,001,809,
PROMENERA,,,0,162,162,129,,,,,,,,,2018_Sep_13_1706,59.6329159855,verb_norming_L1-swe_no_translation,001,809,
STÖTA,Ben/fötter,ben/fötter,0,163,163,89,0,0,0,0,2,4.746,,,2018_Sep_13_1706,59.6329159855,verb_norming_L1-swe_no_translation,001,809,
STÖTA,Armar/händer,armar/händer,0,163,163,89,0,1,1,1,6,1.188,,,2018_Sep_13_1706,59.6329159855,verb_norming_L1-swe_no_translation,001,809,
STÖTA,,,0,163,163,89,,,,,,,,,2018_Sep_13_1706,59.6329159855,verb_norming_L1-swe_no_translation,001,809,
PRESSA,Ben/fötter,ben/fötter,0,164,164,55,0,0,0,0,4,6.424,,,2018_Sep_13_1706,59.6329159855,verb_norming_L1-swe_no_translation,001,809,
PRESSA,Armar/händer,armar/händer,0,164,164,55,0,1,1,1,4,0.689,,,2018_Sep_13_1706,59.6329159855,verb_norming_L1-swe_no_translation,001,809,
PRESSA,,,0,164,164,55,,,,,,,,,2018_Sep_13_1706,59.6329159855,verb_norming_L1-swe_no_translation,001,809,
SKRAPA,Ben/fötter,ben/fötter,0,165,165,74,0,0,0,0,3,3.421,,,2018_Sep_13_1706,59.6329159855,verb_norming_L1-swe_no_translation,001,809,
SKRAPA,Armar/händer,armar/händer,0,165,165,74,0,1,1,1,5,1.561,,,2018_Sep_13_1706,59.6329159855,verb_norming_L1-swe_no_translation,001,809,
SKRAPA,,,0,165,165,74,,,,,,,,,2018_Sep_13_1706,59.6329159855,verb_norming_L1-swe_no_translation,001,809,
HALKA,Ben/fötter,ben/fötter,0,166,166,109,0,0,0,0,7,2.047,,,2018_Sep_13_1706,59.6329159855,verb_norming_L1-swe_no_translation,001,809,
HALKA,Armar/händer,armar/händer,0,166,166,109,0,1,1,1,1,1.645,,,2018_Sep_13_1706,59.6329159855,verb_norming_L1-swe_no_translation,001,809,
HALKA,,,0,166,166,109,,,,,,,,,2018_Sep_13_1706,59.6329159855,verb_norming_L1-swe_no_translation,001,809,
TRYCKA,Ben/fötter,ben/fötter,0,167,167,95,0,0,0,0,2,3.957,,,2018_Sep_13_1706,59.6329159855,verb_norming_L1-swe_no_translation,001,809,
TRYCKA,Armar/händer,armar/händer,0,167,167,95,0,1,1,1,6,5.182,,,2018_Sep_13_1706,59.6329159855,verb_norming_L1-swe_no_translation,001,809,
TRYCKA,,,0,167,167,95,,,,,,,,,2018_Sep_13_1706,59.6329159855,verb_norming_L1-swe_no_translation,001,809,
SNÄRTA,Ben/fötter,ben/fötter,0,168,168,86,0,0,0,0,1,5.115,,,2018_Sep_13_1706,59.6329159855,verb_norming_L1-swe_no_translation,001,809,
SNÄRTA,Armar/händer,armar/händer,0,168,168,86,0,1,1,1,5,1.578,,,2018_Sep_13_1706,59.6329159855,verb_norming_L1-swe_no_translation,001,809,
SNÄRTA,,,0,168,168,86,,,,,,,,,2018_Sep_13_1706,59.6329159855,verb_norming_L1-swe_no_translation,001,809,
,,,,,,,,,,,,,space,11.2870268229,2018_Sep_13_1706,59.6329159855,verb_norming_L1-swe_no_translation,001,809,
