word,category,category_lowercase,trials.thisRepN,trials.thisTrialN,trials.thisN,trials.thisIndex,armleg_loop.thisRepN,armleg_loop.thisTrialN,armleg_loop.thisN,armleg_loop.thisIndex,rating.response,rating.rt,key_resp_7.keys,key_resp_7.rt,date,frameRate,expName,session,participant,
WHIP,Leg,leg,0,0,0,57,0,0,0,0,1,18.057,,,2018_Sep_13_1619,59.6242061024,verb_norming_L2-eng_oral_translation,001,809,
WHIP,Arm,arm,0,0,0,57,0,1,1,1,7,9.807,,,2018_Sep_13_1619,59.6242061024,verb_norming_L2-eng_oral_translation,001,809,
WHIP,,,0,0,0,57,,,,,,,return,14.7753210619,2018_Sep_13_1619,59.6242061024,verb_norming_L2-eng_oral_translation,001,809,
MOUNT,Leg,leg,0,1,1,81,0,0,0,0,2,11.546,,,2018_Sep_13_1619,59.6242061024,verb_norming_L2-eng_oral_translation,001,809,
MOUNT,Arm,arm,0,1,1,81,0,1,1,1,6,11.266,,,2018_Sep_13_1619,59.6242061024,verb_norming_L2-eng_oral_translation,001,809,
MOUNT,,,0,1,1,81,,,,,,,return,16.6371775157,2018_Sep_13_1619,59.6242061024,verb_norming_L2-eng_oral_translation,001,809,
SKIM,Leg,leg,0,2,2,45,0,0,0,0,4,35.313,,,2018_Sep_13_1619,59.6242061024,verb_norming_L2-eng_oral_translation,001,809,
SKIM,Arm,arm,0,2,2,45,0,1,1,1,4,4.391,,,2018_Sep_13_1619,59.6242061024,verb_norming_L2-eng_oral_translation,001,809,
SKIM,,,0,2,2,45,,,,,,,return,12.7631099623,2018_Sep_13_1619,59.6242061024,verb_norming_L2-eng_oral_translation,001,809,
SQUAT,Leg,leg,0,3,3,99,0,0,0,0,7,16.359,,,2018_Sep_13_1619,59.6242061024,verb_norming_L2-eng_oral_translation,001,809,
SQUAT,Arm,arm,0,3,3,99,0,1,1,1,1,2.695,,,2018_Sep_13_1619,59.6242061024,verb_norming_L2-eng_oral_translation,001,809,
SQUAT,,,0,3,3,99,,,,,,,return,6.77570944964,2018_Sep_13_1619,59.6242061024,verb_norming_L2-eng_oral_translation,001,809,
TWINE,Leg,leg,0,4,4,55,0,0,0,0,4,13.074,,,2018_Sep_13_1619,59.6242061024,verb_norming_L2-eng_oral_translation,001,809,
TWINE,Arm,arm,0,4,4,55,0,1,1,1,4,8.364,,,2018_Sep_13_1619,59.6242061024,verb_norming_L2-eng_oral_translation,001,809,
TWINE,,,0,4,4,55,,,,,,,return,7.24523266914,2018_Sep_13_1619,59.6242061024,verb_norming_L2-eng_oral_translation,001,809,
SCRAPE,Leg,leg,0,5,5,39,0,0,0,0,5,14.817,,,2018_Sep_13_1619,59.6242061024,verb_norming_L2-eng_oral_translation,001,809,
SCRAPE,Arm,arm,0,5,5,39,0,1,1,1,5,2.309,,,2018_Sep_13_1619,59.6242061024,verb_norming_L2-eng_oral_translation,001,809,
SCRAPE,,,0,5,5,39,,,,,,,return,8.51997648338,2018_Sep_13_1619,59.6242061024,verb_norming_L2-eng_oral_translation,001,809,
HACK,Leg,leg,0,6,6,22,0,0,0,0,2,18.357,,,2018_Sep_13_1619,59.6242061024,verb_norming_L2-eng_oral_translation,001,809,
HACK,Arm,arm,0,6,6,22,0,1,1,1,6,6.906,,,2018_Sep_13_1619,59.6242061024,verb_norming_L2-eng_oral_translation,001,809,
HACK,,,0,6,6,22,,,,,,,return,6.70877203103,2018_Sep_13_1619,59.6242061024,verb_norming_L2-eng_oral_translation,001,809,
CLEAN,Leg,leg,0,7,7,9,0,0,0,0,3,16.411,,,2018_Sep_13_1619,59.6242061024,verb_norming_L2-eng_oral_translation,001,809,
CLEAN,Arm,arm,0,7,7,9,0,1,1,1,6,10.41,,,2018_Sep_13_1619,59.6242061024,verb_norming_L2-eng_oral_translation,001,809,
CLEAN,,,0,7,7,9,,,,,,,return,5.78636028157,2018_Sep_13_1619,59.6242061024,verb_norming_L2-eng_oral_translation,001,809,
SWITCH,Leg,leg,0,8,8,51,0,0,0,0,5,8.931,,,2018_Sep_13_1619,59.6242061024,verb_norming_L2-eng_oral_translation,001,809,
SWITCH,Arm,arm,0,8,8,51,0,1,1,1,5,1.286,,,2018_Sep_13_1619,59.6242061024,verb_norming_L2-eng_oral_translation,001,809,
SWITCH,,,0,8,8,51,,,,,,,return,7.2622383618,2018_Sep_13_1619,59.6242061024,verb_norming_L2-eng_oral_translation,001,809,
PACE,Leg,leg,0,9,9,82,0,0,0,0,7,9.284,,,2018_Sep_13_1619,59.6242061024,verb_norming_L2-eng_oral_translation,001,809,
PACE,Arm,arm,0,9,9,82,0,1,1,1,5,5.379,,,2018_Sep_13_1619,59.6242061024,verb_norming_L2-eng_oral_translation,001,809,
PACE,,,0,9,9,82,,,,,,,return,9.22419612039,2018_Sep_13_1619,59.6242061024,verb_norming_L2-eng_oral_translation,001,809,
PLUCK,Leg,leg,0,10,10,30,0,0,0,0,2,20.319,,,2018_Sep_13_1619,59.6242061024,verb_norming_L2-eng_oral_translation,001,809,
PLUCK,Arm,arm,0,10,10,30,0,1,1,1,6,7.576,,,2018_Sep_13_1619,59.6242061024,verb_norming_L2-eng_oral_translation,001,809,
PLUCK,,,0,10,10,30,,,,,,,return,3.77388643749,2018_Sep_13_1619,59.6242061024,verb_norming_L2-eng_oral_translation,001,809,
DIG,Leg,leg,0,11,11,13,0,0,0,0,2,10.989,,,2018_Sep_13_1619,59.6242061024,verb_norming_L2-eng_oral_translation,001,809,
DIG,Arm,arm,0,11,11,13,0,1,1,1,7,9.0,,,2018_Sep_13_1619,59.6242061024,verb_norming_L2-eng_oral_translation,001,809,
DIG,,,0,11,11,13,,,,,,,return,6.40718402703,2018_Sep_13_1619,59.6242061024,verb_norming_L2-eng_oral_translation,001,809,
SPRINT,Leg,leg,0,12,12,98,0,0,0,0,7,9.703,,,2018_Sep_13_1619,59.6242061024,verb_norming_L2-eng_oral_translation,001,809,
SPRINT,Arm,arm,0,12,12,98,0,1,1,1,1,1.907,,,2018_Sep_13_1619,59.6242061024,verb_norming_L2-eng_oral_translation,001,809,
SPRINT,,,0,12,12,98,,,,,,,return,4.96459587132,2018_Sep_13_1619,59.6242061024,verb_norming_L2-eng_oral_translation,001,809,
KNOCK,Leg,leg,0,13,13,24,0,0,0,0,4,9.166,,,2018_Sep_13_1619,59.6242061024,verb_norming_L2-eng_oral_translation,001,809,
KNOCK,Arm,arm,0,13,13,24,0,1,1,1,7,4.507,,,2018_Sep_13_1619,59.6242061024,verb_norming_L2-eng_oral_translation,001,809,
KNOCK,,,0,13,13,24,,,,,,,return,2.6837401856,2018_Sep_13_1619,59.6242061024,verb_norming_L2-eng_oral_translation,001,809,
TREK,Leg,leg,0,14,14,119,0,0,0,0,7,16.277,,,2018_Sep_13_1619,59.6242061024,verb_norming_L2-eng_oral_translation,001,809,
TREK,Arm,arm,0,14,14,119,0,1,1,1,2,3.149,,,2018_Sep_13_1619,59.6242061024,verb_norming_L2-eng_oral_translation,001,809,
TREK,,,0,14,14,119,,,,,,,return,4.8136161702,2018_Sep_13_1619,59.6242061024,verb_norming_L2-eng_oral_translation,001,809,
SIGN,Leg,leg,0,15,15,44,0,0,0,0,1,8.526,,,2018_Sep_13_1619,59.6242061024,verb_norming_L2-eng_oral_translation,001,809,
SIGN,Arm,arm,0,15,15,44,0,1,1,1,7,3.903,,,2018_Sep_13_1619,59.6242061024,verb_norming_L2-eng_oral_translation,001,809,
SIGN,,,0,15,15,44,,,,,,,return,3.58940187501,2018_Sep_13_1619,59.6242061024,verb_norming_L2-eng_oral_translation,001,809,
SLIP,Leg,leg,0,16,16,95,0,0,0,0,7,9.553,,,2018_Sep_13_1619,59.6242061024,verb_norming_L2-eng_oral_translation,001,809,
SLIP,Arm,arm,0,16,16,95,0,1,1,1,1,2.227,,,2018_Sep_13_1619,59.6242061024,verb_norming_L2-eng_oral_translation,001,809,
SLIP,,,0,16,16,95,,,,,,,return,4.54518217478,2018_Sep_13_1619,59.6242061024,verb_norming_L2-eng_oral_translation,001,809,
PULL,Leg,leg,0,17,17,33,0,0,0,0,6,14.081,,,2018_Sep_13_1619,59.6242061024,verb_norming_L2-eng_oral_translation,001,809,
PULL,Arm,arm,0,17,17,33,0,1,1,1,6,2.914,,,2018_Sep_13_1619,59.6242061024,verb_norming_L2-eng_oral_translation,001,809,
PULL,,,0,17,17,33,,,,,,,return,3.11971073609,2018_Sep_13_1619,59.6242061024,verb_norming_L2-eng_oral_translation,001,809,
LUMBER,Leg,leg,0,18,18,79,0,0,0,0,5,24.578,,,2018_Sep_13_1619,59.6242061024,verb_norming_L2-eng_oral_translation,001,809,
LUMBER,Arm,arm,0,18,18,79,0,1,1,1,6,12.791,,,2018_Sep_13_1619,59.6242061024,verb_norming_L2-eng_oral_translation,001,809,
LUMBER,,,0,18,18,79,,,,,,,return,13.2661135467,2018_Sep_13_1619,59.6242061024,verb_norming_L2-eng_oral_translation,001,809,
ROAM,Leg,leg,0,19,19,87,0,0,0,0,5,24.948,,,2018_Sep_13_1619,59.6242061024,verb_norming_L2-eng_oral_translation,001,809,
ROAM,Arm,arm,0,19,19,87,0,1,1,1,1,4.373,,,2018_Sep_13_1619,59.6242061024,verb_norming_L2-eng_oral_translation,001,809,
ROAM,,,0,19,19,87,,,,,,,return,4.46139117874,2018_Sep_13_1619,59.6242061024,verb_norming_L2-eng_oral_translation,001,809,
STAND,Leg,leg,0,20,20,102,0,0,0,0,7,7.455,,,2018_Sep_13_1619,59.6242061024,verb_norming_L2-eng_oral_translation,001,809,
STAND,Arm,arm,0,20,20,102,0,1,1,1,1,3.113,,,2018_Sep_13_1619,59.6242061024,verb_norming_L2-eng_oral_translation,001,809,
STAND,,,0,20,20,102,,,,,,,return,4.81367425057,2018_Sep_13_1619,59.6242061024,verb_norming_L2-eng_oral_translation,001,809,
GRIP,Leg,leg,0,21,21,21,0,0,0,0,1,8.259,,,2018_Sep_13_1619,59.6242061024,verb_norming_L2-eng_oral_translation,001,809,
GRIP,Arm,arm,0,21,21,21,0,1,1,1,7,2.544,,,2018_Sep_13_1619,59.6242061024,verb_norming_L2-eng_oral_translation,001,809,
GRIP,,,0,21,21,21,,,,,,,return,5.85336289242,2018_Sep_13_1619,59.6242061024,verb_norming_L2-eng_oral_translation,001,809,
TOSS,Leg,leg,0,22,22,53,0,0,0,0,1,20.621,,,2018_Sep_13_1619,59.6242061024,verb_norming_L2-eng_oral_translation,001,809,
TOSS,Arm,arm,0,22,22,53,0,1,1,1,7,9.069,,,2018_Sep_13_1619,59.6242061024,verb_norming_L2-eng_oral_translation,001,809,
TOSS,,,0,22,22,53,,,,,,,return,7.32928285373,2018_Sep_13_1619,59.6242061024,verb_norming_L2-eng_oral_translation,001,809,
KNEEL,Leg,leg,0,23,23,76,0,0,0,0,7,9.77,,,2018_Sep_13_1619,59.6242061024,verb_norming_L2-eng_oral_translation,001,809,
KNEEL,Arm,arm,0,23,23,76,0,1,1,1,1,3.383,,,2018_Sep_13_1619,59.6242061024,verb_norming_L2-eng_oral_translation,001,809,
KNEEL,,,0,23,23,76,,,,,,,return,4.56191840618,2018_Sep_13_1619,59.6242061024,verb_norming_L2-eng_oral_translation,001,809,
TRAMP,Leg,leg,0,24,24,116,0,0,0,0,4,19.682,,,2018_Sep_13_1619,59.6242061024,verb_norming_L2-eng_oral_translation,001,809,
TRAMP,Arm,arm,0,24,24,116,0,1,1,1,4,2.025,,,2018_Sep_13_1619,59.6242061024,verb_norming_L2-eng_oral_translation,001,809,
TRAMP,,,0,24,24,116,,,,,,,return,5.18250824978,2018_Sep_13_1619,59.6242061024,verb_norming_L2-eng_oral_translation,001,809,
PEEL,Leg,leg,0,25,25,28,0,0,0,0,2,12.47,,,2018_Sep_13_1619,59.6242061024,verb_norming_L2-eng_oral_translation,001,809,
PEEL,Arm,arm,0,25,25,28,0,1,1,1,6,3.149,,,2018_Sep_13_1619,59.6242061024,verb_norming_L2-eng_oral_translation,001,809,
PEEL,,,0,25,25,28,,,,,,,return,2.81793703299,2018_Sep_13_1619,59.6242061024,verb_norming_L2-eng_oral_translation,001,809,
SAUNTER,Leg,leg,0,26,26,90,0,0,0,0,4,8.595,,,2018_Sep_13_1619,59.6242061024,verb_norming_L2-eng_oral_translation,001,809,
SAUNTER,Arm,arm,0,26,26,90,0,1,1,1,4,2.241,,,2018_Sep_13_1619,59.6242061024,verb_norming_L2-eng_oral_translation,001,809,
SAUNTER,,,0,26,26,90,,,,,,,return,3.72353194973,2018_Sep_13_1619,59.6242061024,verb_norming_L2-eng_oral_translation,001,809,
CLAP,Leg,leg,0,27,27,7,0,0,0,0,1,8.328,,,2018_Sep_13_1619,59.6242061024,verb_norming_L2-eng_oral_translation,001,809,
CLAP,Arm,arm,0,27,27,7,0,1,1,1,7,7.694,,,2018_Sep_13_1619,59.6242061024,verb_norming_L2-eng_oral_translation,001,809,
CLAP,,,0,27,27,7,,,,,,,return,4.42787683486,2018_Sep_13_1619,59.6242061024,verb_norming_L2-eng_oral_translation,001,809,
GRASP,Leg,leg,0,28,28,19,0,0,0,0,5,14.482,,,2018_Sep_13_1619,59.6242061024,verb_norming_L2-eng_oral_translation,001,809,
GRASP,Arm,arm,0,28,28,19,0,1,1,1,7,16.815,,,2018_Sep_13_1619,59.6242061024,verb_norming_L2-eng_oral_translation,001,809,
GRASP,,,0,28,28,19,,,,,,,return,3.30410323922,2018_Sep_13_1619,59.6242061024,verb_norming_L2-eng_oral_translation,001,809,
FOLD,Leg,leg,0,29,29,16,0,0,0,0,2,7.387,,,2018_Sep_13_1619,59.6242061024,verb_norming_L2-eng_oral_translation,001,809,
FOLD,Arm,arm,0,29,29,16,0,1,1,1,7,3.818,,,2018_Sep_13_1619,59.6242061024,verb_norming_L2-eng_oral_translation,001,809,
FOLD,,,0,29,29,16,,,,,,,return,5.24970248631,2018_Sep_13_1619,59.6242061024,verb_norming_L2-eng_oral_translation,001,809,
BASH,Leg,leg,0,30,30,0,0,0,0,0,4,26.441,,,2018_Sep_13_1619,59.6242061024,verb_norming_L2-eng_oral_translation,001,809,
BASH,Arm,arm,0,30,30,0,0,1,1,1,5,5.161,,,2018_Sep_13_1619,59.6242061024,verb_norming_L2-eng_oral_translation,001,809,
BASH,,,0,30,30,0,,,,,,,return,3.69002274222,2018_Sep_13_1619,59.6242061024,verb_norming_L2-eng_oral_translation,001,809,
DUNK,Leg,leg,0,31,31,14,0,0,0,0,1,13.978,,,2018_Sep_13_1619,59.6242061024,verb_norming_L2-eng_oral_translation,001,809,
DUNK,Arm,arm,0,31,31,14,0,1,1,1,7,3.148,,,2018_Sep_13_1619,59.6242061024,verb_norming_L2-eng_oral_translation,001,809,
DUNK,,,0,31,31,14,,,,,,,return,5.19938158244,2018_Sep_13_1619,59.6242061024,verb_norming_L2-eng_oral_translation,001,809,
CHOP,Leg,leg,0,32,32,6,0,0,0,0,1,5.662,,,2018_Sep_13_1619,59.6242061024,verb_norming_L2-eng_oral_translation,001,809,
CHOP,Arm,arm,0,32,32,6,0,1,1,1,7,4.188,,,2018_Sep_13_1619,59.6242061024,verb_norming_L2-eng_oral_translation,001,809,
CHOP,,,0,32,32,6,,,,,,,return,3.27061655267,2018_Sep_13_1619,59.6242061024,verb_norming_L2-eng_oral_translation,001,809,
WADE,Leg,leg,0,33,33,124,0,0,0,0,7,9.266,,,2018_Sep_13_1619,59.6242061024,verb_norming_L2-eng_oral_translation,001,809,
WADE,Arm,arm,0,33,33,124,0,1,1,1,5,2.057,,,2018_Sep_13_1619,59.6242061024,verb_norming_L2-eng_oral_translation,001,809,
WADE,,,0,33,33,124,,,,,,,return,4.69628080235,2018_Sep_13_1619,59.6242061024,verb_norming_L2-eng_oral_translation,001,809,
CREEP,Leg,leg,0,34,34,61,0,0,0,0,7,9.569,,,2018_Sep_13_1619,59.6242061024,verb_norming_L2-eng_oral_translation,001,809,
CREEP,Arm,arm,0,34,34,61,0,1,1,1,7,2.344,,,2018_Sep_13_1619,59.6242061024,verb_norming_L2-eng_oral_translation,001,809,
CREEP,,,0,34,34,61,,,,,,,return,3.25369106621,2018_Sep_13_1619,59.6242061024,verb_norming_L2-eng_oral_translation,001,809,
WALK,Leg,leg,0,35,35,125,0,0,0,0,7,4.689,,,2018_Sep_13_1619,59.6242061024,verb_norming_L2-eng_oral_translation,001,809,
WALK,Arm,arm,0,35,35,125,0,1,1,1,3,6.52,,,2018_Sep_13_1619,59.6242061024,verb_norming_L2-eng_oral_translation,001,809,
WALK,,,0,35,35,125,,,,,,,return,8.16776690099,2018_Sep_13_1619,59.6242061024,verb_norming_L2-eng_oral_translation,001,809,
HIKE,Leg,leg,0,36,36,69,0,0,0,0,6,18.81,,,2018_Sep_13_1619,59.6242061024,verb_norming_L2-eng_oral_translation,001,809,
HIKE,Arm,arm,0,36,36,69,0,1,1,1,5,3.669,,,2018_Sep_13_1619,59.6242061024,verb_norming_L2-eng_oral_translation,001,809,
HIKE,,,0,36,36,69,,,,,,,return,6.77577740761,2018_Sep_13_1619,59.6242061024,verb_norming_L2-eng_oral_translation,001,809,
STRIDE,Leg,leg,0,37,37,107,0,0,0,0,7,14.464,,,2018_Sep_13_1619,59.6242061024,verb_norming_L2-eng_oral_translation,001,809,
STRIDE,Arm,arm,0,37,37,107,0,1,1,1,2,5.056,,,2018_Sep_13_1619,59.6242061024,verb_norming_L2-eng_oral_translation,001,809,
STRIDE,,,0,37,37,107,,,,,,,return,4.79683726752,2018_Sep_13_1619,59.6242061024,verb_norming_L2-eng_oral_translation,001,809,
SHAMBLE,Leg,leg,0,38,38,91,0,0,0,0,4,5.576,,,2018_Sep_13_1619,59.6242061024,verb_norming_L2-eng_oral_translation,001,809,
SHAMBLE,Arm,arm,0,38,38,91,0,1,1,1,4,7.273,,,2018_Sep_13_1619,59.6242061024,verb_norming_L2-eng_oral_translation,001,809,
SHAMBLE,,,0,38,38,91,,,,,,,return,4.83034212889,2018_Sep_13_1619,59.6242061024,verb_norming_L2-eng_oral_translation,001,809,
INCH,Leg,leg,0,39,39,72,0,0,0,0,4,22.801,,,2018_Sep_13_1619,59.6242061024,verb_norming_L2-eng_oral_translation,001,809,
INCH,Arm,arm,0,39,39,72,0,1,1,1,4,0.75,,,2018_Sep_13_1619,59.6242061024,verb_norming_L2-eng_oral_translation,001,809,
INCH,,,0,39,39,72,,,,,,,return,3.77385522423,2018_Sep_13_1619,59.6242061024,verb_norming_L2-eng_oral_translation,001,809,
CARVE,Leg,leg,0,40,40,4,0,0,0,0,5,7.036,,,2018_Sep_13_1619,59.6242061024,verb_norming_L2-eng_oral_translation,001,809,
CARVE,Arm,arm,0,40,40,4,0,1,1,1,6,7.995,,,2018_Sep_13_1619,59.6242061024,verb_norming_L2-eng_oral_translation,001,809,
CARVE,,,0,40,40,4,,,,,,,return,3.70676055403,2018_Sep_13_1619,59.6242061024,verb_norming_L2-eng_oral_translation,001,809,
PUNCH,Leg,leg,0,41,41,34,0,0,0,0,1,5.879,,,2018_Sep_13_1619,59.6242061024,verb_norming_L2-eng_oral_translation,001,809,
PUNCH,Arm,arm,0,41,41,34,0,1,1,1,7,1.622,,,2018_Sep_13_1619,59.6242061024,verb_norming_L2-eng_oral_translation,001,809,
PUNCH,,,0,41,41,34,,,,,,,return,4.15946970655,2018_Sep_13_1619,59.6242061024,verb_norming_L2-eng_oral_translation,001,809,
GLIDE,Leg,leg,0,42,42,67,0,0,0,0,1,12.602,,,2018_Sep_13_1619,59.6242061024,verb_norming_L2-eng_oral_translation,001,809,
GLIDE,Arm,arm,0,42,42,67,0,1,1,1,1,1.72,,,2018_Sep_13_1619,59.6242061024,verb_norming_L2-eng_oral_translation,001,809,
GLIDE,,,0,42,42,67,,,,,,,return,4.34418777578,2018_Sep_13_1619,59.6242061024,verb_norming_L2-eng_oral_translation,001,809,
STOMP,Leg,leg,0,43,43,104,0,0,0,0,7,6.097,,,2018_Sep_13_1619,59.6242061024,verb_norming_L2-eng_oral_translation,001,809,
STOMP,Arm,arm,0,43,43,104,0,1,1,1,1,5.513,,,2018_Sep_13_1619,59.6242061024,verb_norming_L2-eng_oral_translation,001,809,
STOMP,,,0,43,43,104,,,,,,,return,3.74034404119,2018_Sep_13_1619,59.6242061024,verb_norming_L2-eng_oral_translation,001,809,
CLICK,Leg,leg,0,44,44,10,0,0,0,0,1,10.139,,,2018_Sep_13_1619,59.6242061024,verb_norming_L2-eng_oral_translation,001,809,
CLICK,Arm,arm,0,44,44,10,0,1,1,1,6,2.343,,,2018_Sep_13_1619,59.6242061024,verb_norming_L2-eng_oral_translation,001,809,
CLICK,,,0,44,44,10,,,,,,,return,2.58315803864,2018_Sep_13_1619,59.6242061024,verb_norming_L2-eng_oral_translation,001,809,
SEIZE,Leg,leg,0,45,45,42,0,0,0,0,1,10.84,,,2018_Sep_13_1619,59.6242061024,verb_norming_L2-eng_oral_translation,001,809,
SEIZE,Arm,arm,0,45,45,42,0,1,1,1,3,6.317,,,2018_Sep_13_1619,59.6242061024,verb_norming_L2-eng_oral_translation,001,809,
SEIZE,,,0,45,45,42,,,,,,,return,5.93708158434,2018_Sep_13_1619,59.6242061024,verb_norming_L2-eng_oral_translation,001,809,
PINCH,Leg,leg,0,46,46,29,0,0,0,0,1,6.265,,,2018_Sep_13_1619,59.6242061024,verb_norming_L2-eng_oral_translation,001,809,
PINCH,Arm,arm,0,46,46,29,0,1,1,1,7,2.928,,,2018_Sep_13_1619,59.6242061024,verb_norming_L2-eng_oral_translation,001,809,
PINCH,,,0,46,46,29,,,,,,,return,3.2035602076,2018_Sep_13_1619,59.6242061024,verb_norming_L2-eng_oral_translation,001,809,
SWAY,Leg,leg,0,47,47,111,0,0,0,0,3,11.28,,,2018_Sep_13_1619,59.6242061024,verb_norming_L2-eng_oral_translation,001,809,
SWAY,Arm,arm,0,47,47,111,0,1,1,1,6,3.602,,,2018_Sep_13_1619,59.6242061024,verb_norming_L2-eng_oral_translation,001,809,
SWAY,,,0,47,47,111,,,,,,,return,4.61240209311,2018_Sep_13_1619,59.6242061024,verb_norming_L2-eng_oral_translation,001,809,
DANCE,Leg,leg,0,48,48,64,0,0,0,0,7,6.431,,,2018_Sep_13_1619,59.6242061024,verb_norming_L2-eng_oral_translation,001,809,
DANCE,Arm,arm,0,48,48,64,0,1,1,1,7,1.672,,,2018_Sep_13_1619,59.6242061024,verb_norming_L2-eng_oral_translation,001,809,
DANCE,,,0,48,48,64,,,,,,,return,3.55579547179,2018_Sep_13_1619,59.6242061024,verb_norming_L2-eng_oral_translation,001,809,
SLAP,Leg,leg,0,49,49,46,0,0,0,0,1,9.032,,,2018_Sep_13_1619,59.6242061024,verb_norming_L2-eng_oral_translation,001,809,
SLAP,Arm,arm,0,49,49,46,0,1,1,1,7,6.184,,,2018_Sep_13_1619,59.6242061024,verb_norming_L2-eng_oral_translation,001,809,
SLAP,,,0,49,49,46,,,,,,,return,3.47188080804,2018_Sep_13_1619,59.6242061024,verb_norming_L2-eng_oral_translation,001,809,
PAT,Leg,leg,0,50,50,27,0,0,0,0,4,15.775,,,2018_Sep_13_1619,59.6242061024,verb_norming_L2-eng_oral_translation,001,809,
PAT,Arm,arm,0,50,50,27,0,1,1,1,4,1.237,,,2018_Sep_13_1619,59.6242061024,verb_norming_L2-eng_oral_translation,001,809,
PAT,,,0,50,50,27,,,,,,,return,5.35035140594,2018_Sep_13_1619,59.6242061024,verb_norming_L2-eng_oral_translation,001,809,
FLEE,Leg,leg,0,51,51,66,0,0,0,0,7,8.193,,,2018_Sep_13_1619,59.6242061024,verb_norming_L2-eng_oral_translation,001,809,
FLEE,Arm,arm,0,51,51,66,0,1,1,1,3,5.027,,,2018_Sep_13_1619,59.6242061024,verb_norming_L2-eng_oral_translation,001,809,
FLEE,,,0,51,51,66,,,,,,,return,3.40483236506,2018_Sep_13_1619,59.6242061024,verb_norming_L2-eng_oral_translation,001,809,
FILE,Leg,leg,0,52,52,15,0,0,0,0,2,9.15,,,2018_Sep_13_1619,59.6242061024,verb_norming_L2-eng_oral_translation,001,809,
FILE,Arm,arm,0,52,52,15,0,1,1,1,2,1.354,,,2018_Sep_13_1619,59.6242061024,verb_norming_L2-eng_oral_translation,001,809,
FILE,,,0,52,52,15,,,,,,,return,5.13211504179,2018_Sep_13_1619,59.6242061024,verb_norming_L2-eng_oral_translation,001,809,
GROVEL,Leg,leg,0,53,53,68,0,0,0,0,1,11.781,,,2018_Sep_13_1619,59.6242061024,verb_norming_L2-eng_oral_translation,001,809,
GROVEL,Arm,arm,0,53,53,68,0,1,1,1,1,11.951,,,2018_Sep_13_1619,59.6242061024,verb_norming_L2-eng_oral_translation,001,809,
GROVEL,,,0,53,53,68,,,,,,,return,3.70655905074,2018_Sep_13_1619,59.6242061024,verb_norming_L2-eng_oral_translation,001,809,
SNEAK,Leg,leg,0,54,54,97,0,0,0,0,6,10.273,,,2018_Sep_13_1619,59.6242061024,verb_norming_L2-eng_oral_translation,001,809,
SNEAK,Arm,arm,0,54,54,97,0,1,1,1,6,7.407,,,2018_Sep_13_1619,59.6242061024,verb_norming_L2-eng_oral_translation,001,809,
SNEAK,,,0,54,54,97,,,,,,,return,3.80740512751,2018_Sep_13_1619,59.6242061024,verb_norming_L2-eng_oral_translation,001,809,
KICK,Leg,leg,0,55,55,75,0,0,0,0,7,3.331,,,2018_Sep_13_1619,59.6242061024,verb_norming_L2-eng_oral_translation,001,809,
KICK,Arm,arm,0,55,55,75,0,1,1,1,1,2.143,,,2018_Sep_13_1619,59.6242061024,verb_norming_L2-eng_oral_translation,001,809,
KICK,,,0,55,55,75,,,,,,,return,3.74037525445,2018_Sep_13_1619,59.6242061024,verb_norming_L2-eng_oral_translation,001,809,
SKATE,Leg,leg,0,56,56,92,0,0,0,0,7,7.036,,,2018_Sep_13_1619,59.6242061024,verb_norming_L2-eng_oral_translation,001,809,
SKATE,Arm,arm,0,56,56,92,0,1,1,1,4,3.199,,,2018_Sep_13_1619,59.6242061024,verb_norming_L2-eng_oral_translation,001,809,
SKATE,,,0,56,56,92,,,,,,,return,4.86392245521,2018_Sep_13_1619,59.6242061024,verb_norming_L2-eng_oral_translation,001,809,
CYCLE,Leg,leg,0,57,57,63,0,0,0,0,2,22.751,,,2018_Sep_13_1619,59.6242061024,verb_norming_L2-eng_oral_translation,001,809,
CYCLE,Arm,arm,0,57,57,63,0,1,1,1,2,15.559,,,2018_Sep_13_1619,59.6242061024,verb_norming_L2-eng_oral_translation,001,809,
CYCLE,,,0,57,57,63,,,,,,,return,6.85963201548,2018_Sep_13_1619,59.6242061024,verb_norming_L2-eng_oral_translation,001,809,
SCRUB,Leg,leg,0,58,58,41,0,0,0,0,2,11.749,,,2018_Sep_13_1619,59.6242061024,verb_norming_L2-eng_oral_translation,001,809,
SCRUB,Arm,arm,0,58,58,41,0,1,1,1,7,4.926,,,2018_Sep_13_1619,59.6242061024,verb_norming_L2-eng_oral_translation,001,809,
SCRUB,,,0,58,58,41,,,,,,,return,3.62295493912,2018_Sep_13_1619,59.6242061024,verb_norming_L2-eng_oral_translation,001,809,
LIFT,Leg,leg,0,59,59,25,0,0,0,0,5,11.716,,,2018_Sep_13_1619,59.6242061024,verb_norming_L2-eng_oral_translation,001,809,
LIFT,Arm,arm,0,59,59,25,0,1,1,1,7,1.858,,,2018_Sep_13_1619,59.6242061024,verb_norming_L2-eng_oral_translation,001,809,
LIFT,,,0,59,59,25,,,,,,,return,4.98113968682,2018_Sep_13_1619,59.6242061024,verb_norming_L2-eng_oral_translation,001,809,
RUSH,Leg,leg,0,60,60,89,0,0,0,0,7,4.202,,,2018_Sep_13_1619,59.6242061024,verb_norming_L2-eng_oral_translation,001,809,
RUSH,Arm,arm,0,60,60,89,0,1,1,1,1,3.854,,,2018_Sep_13_1619,59.6242061024,verb_norming_L2-eng_oral_translation,001,809,
RUSH,,,0,60,60,89,,,,,,,return,5.56797219729,2018_Sep_13_1619,59.6242061024,verb_norming_L2-eng_oral_translation,001,809,
GRAB,Leg,leg,0,61,61,18,0,0,0,0,1,5.375,,,2018_Sep_13_1619,59.6242061024,verb_norming_L2-eng_oral_translation,001,809,
GRAB,Arm,arm,0,61,61,18,0,1,1,1,7,0.984,,,2018_Sep_13_1619,59.6242061024,verb_norming_L2-eng_oral_translation,001,809,
GRAB,,,0,61,61,18,,,,,,,return,4.1258964921,2018_Sep_13_1619,59.6242061024,verb_norming_L2-eng_oral_translation,001,809,
WASH,Leg,leg,0,62,62,56,0,0,0,0,2,7.507,,,2018_Sep_13_1619,59.6242061024,verb_norming_L2-eng_oral_translation,001,809,
WASH,Arm,arm,0,62,62,56,0,1,1,1,7,2.83,,,2018_Sep_13_1619,59.6242061024,verb_norming_L2-eng_oral_translation,001,809,
WASH,,,0,62,62,56,,,,,,,return,3.52229179573,2018_Sep_13_1619,59.6242061024,verb_norming_L2-eng_oral_translation,001,809,
WRAP,Leg,leg,0,63,63,59,0,0,0,0,1,13.93,,,2018_Sep_13_1619,59.6242061024,verb_norming_L2-eng_oral_translation,001,809,
WRAP,Arm,arm,0,63,63,59,0,1,1,1,7,4.105,,,2018_Sep_13_1619,59.6242061024,verb_norming_L2-eng_oral_translation,001,809,
WRAP,,,0,63,63,59,,,,,,,return,4.61243488678,2018_Sep_13_1619,59.6242061024,verb_norming_L2-eng_oral_translation,001,809,
CLUTCH,Leg,leg,0,64,64,11,0,0,0,0,7,7.673,,,2018_Sep_13_1619,59.6242061024,verb_norming_L2-eng_oral_translation,001,809,
CLUTCH,Arm,arm,0,64,64,11,0,1,1,1,3,4.438,,,2018_Sep_13_1619,59.6242061024,verb_norming_L2-eng_oral_translation,001,809,
CLUTCH,,,0,64,64,11,,,,,,,return,5.45080790968,2018_Sep_13_1619,59.6242061024,verb_norming_L2-eng_oral_translation,001,809,
BIND,Leg,leg,0,65,65,1,0,0,0,0,2,9.165,,,2018_Sep_13_1619,59.6242061024,verb_norming_L2-eng_oral_translation,001,809,
BIND,Arm,arm,0,65,65,1,0,1,1,1,5,2.98,,,2018_Sep_13_1619,59.6242061024,verb_norming_L2-eng_oral_translation,001,809,
BIND,,,0,65,65,1,,,,,,,return,5.29891196124,2018_Sep_13_1619,59.6242061024,verb_norming_L2-eng_oral_translation,001,809,
SLIDE,Leg,leg,0,66,66,94,0,0,0,0,7,10.725,,,2018_Sep_13_1619,59.6242061024,verb_norming_L2-eng_oral_translation,001,809,
SLIDE,Arm,arm,0,66,66,94,0,1,1,1,4,2.225,,,2018_Sep_13_1619,59.6242061024,verb_norming_L2-eng_oral_translation,001,809,
SLIDE,,,0,66,66,94,,,,,,,return,4.41112756502,2018_Sep_13_1619,59.6242061024,verb_norming_L2-eng_oral_translation,001,809,
JUMP,Leg,leg,0,67,67,74,0,0,0,0,7,5.507,,,2018_Sep_13_1619,59.6242061024,verb_norming_L2-eng_oral_translation,001,809,
JUMP,Arm,arm,0,67,67,74,0,1,1,1,5,4.49,,,2018_Sep_13_1619,59.6242061024,verb_norming_L2-eng_oral_translation,001,809,
JUMP,,,0,67,67,74,,,,,,,return,1.94583512447,2018_Sep_13_1619,59.6242061024,verb_norming_L2-eng_oral_translation,001,809,
CATCH,Leg,leg,0,68,68,5,0,0,0,0,1,6.214,,,2018_Sep_13_1619,59.6242061024,verb_norming_L2-eng_oral_translation,001,809,
CATCH,Arm,arm,0,68,68,5,0,1,1,1,7,5.463,,,2018_Sep_13_1619,59.6242061024,verb_norming_L2-eng_oral_translation,001,809,
CATCH,,,0,68,68,5,,,,,,,return,2.66698340877,2018_Sep_13_1619,59.6242061024,verb_norming_L2-eng_oral_translation,001,809,
SLITHER,Leg,leg,0,69,69,96,0,0,0,0,4,16.695,,,2018_Sep_13_1619,59.6242061024,verb_norming_L2-eng_oral_translation,001,809,
SLITHER,Arm,arm,0,69,69,96,0,1,1,1,4,5.696,,,2018_Sep_13_1619,59.6242061024,verb_norming_L2-eng_oral_translation,001,809,
SLITHER,,,0,69,69,96,,,,,,,return,4.86362731215,2018_Sep_13_1619,59.6242061024,verb_norming_L2-eng_oral_translation,001,809,
NIP,Leg,leg,0,70,70,26,0,0,0,0,4,10.559,,,2018_Sep_13_1619,59.6242061024,verb_norming_L2-eng_oral_translation,001,809,
NIP,Arm,arm,0,70,70,26,0,1,1,1,4,2.881,,,2018_Sep_13_1619,59.6242061024,verb_norming_L2-eng_oral_translation,001,809,
NIP,,,0,70,70,26,,,,,,,return,3.58947062319,2018_Sep_13_1619,59.6242061024,verb_norming_L2-eng_oral_translation,001,809,
STRUT,Leg,leg,0,71,71,109,0,0,0,0,7,14.164,,,2018_Sep_13_1619,59.6242061024,verb_norming_L2-eng_oral_translation,001,809,
STRUT,Arm,arm,0,71,71,109,0,1,1,1,2,2.126,,,2018_Sep_13_1619,59.6242061024,verb_norming_L2-eng_oral_translation,001,809,
STRUT,,,0,71,71,109,,,,,,,return,4.51170813157,2018_Sep_13_1619,59.6242061024,verb_norming_L2-eng_oral_translation,001,809,
HUG,Leg,leg,0,72,72,23,0,0,0,0,3,5.476,,,2018_Sep_13_1619,59.6242061024,verb_norming_L2-eng_oral_translation,001,809,
HUG,Arm,arm,0,72,72,23,0,1,1,1,7,2.578,,,2018_Sep_13_1619,59.6242061024,verb_norming_L2-eng_oral_translation,001,809,
HUG,,,0,72,72,23,,,,,,,return,2.83445556181,2018_Sep_13_1619,59.6242061024,verb_norming_L2-eng_oral_translation,001,809,
LIMP,Leg,leg,0,73,73,78,0,0,0,0,7,5.661,,,2018_Sep_13_1619,59.6242061024,verb_norming_L2-eng_oral_translation,001,809,
LIMP,Arm,arm,0,73,73,78,0,1,1,1,1,1.153,,,2018_Sep_13_1619,59.6242061024,verb_norming_L2-eng_oral_translation,001,809,
LIMP,,,0,73,73,78,,,,,,,return,2.34832610029,2018_Sep_13_1619,59.6242061024,verb_norming_L2-eng_oral_translation,001,809,
PUSH,Leg,leg,0,74,74,35,0,0,0,0,2,5.494,,,2018_Sep_13_1619,59.6242061024,verb_norming_L2-eng_oral_translation,001,809,
PUSH,Arm,arm,0,74,74,35,0,1,1,1,6,2.511,,,2018_Sep_13_1619,59.6242061024,verb_norming_L2-eng_oral_translation,001,809,
PUSH,,,0,74,74,35,,,,,,,return,5.56821755718,2018_Sep_13_1619,59.6242061024,verb_norming_L2-eng_oral_translation,001,809,
STUMBLE,Leg,leg,0,75,75,110,0,0,0,0,7,10.138,,,2018_Sep_13_1619,59.6242061024,verb_norming_L2-eng_oral_translation,001,809,
STUMBLE,Arm,arm,0,75,75,110,0,1,1,1,1,4.992,,,2018_Sep_13_1619,59.6242061024,verb_norming_L2-eng_oral_translation,001,809,
STUMBLE,,,0,75,75,110,,,,,,,return,3.58939910928,2018_Sep_13_1619,59.6242061024,verb_norming_L2-eng_oral_translation,001,809,
POKE,Leg,leg,0,76,76,31,0,0,0,0,5,12.068,,,2018_Sep_13_1619,59.6242061024,verb_norming_L2-eng_oral_translation,001,809,
POKE,Arm,arm,0,76,76,31,0,1,1,1,6,8.029,,,2018_Sep_13_1619,59.6242061024,verb_norming_L2-eng_oral_translation,001,809,
POKE,,,0,76,76,31,,,,,,,return,3.32088609295,2018_Sep_13_1619,59.6242061024,verb_norming_L2-eng_oral_translation,001,809,
MARCH,Leg,leg,0,77,77,80,0,0,0,0,7,5.677,,,2018_Sep_13_1619,59.6242061024,verb_norming_L2-eng_oral_translation,001,809,
MARCH,Arm,arm,0,77,77,80,0,1,1,1,5,4.758,,,2018_Sep_13_1619,59.6242061024,verb_norming_L2-eng_oral_translation,001,809,
MARCH,,,0,77,77,80,,,,,,,return,4.89742731658,2018_Sep_13_1619,59.6242061024,verb_norming_L2-eng_oral_translation,001,809,
TRUDGE,Leg,leg,0,78,78,122,0,0,0,0,4,10.254,,,2018_Sep_13_1619,59.6242061024,verb_norming_L2-eng_oral_translation,001,809,
TRUDGE,Arm,arm,0,78,78,122,0,1,1,1,4,0.933,,,2018_Sep_13_1619,59.6242061024,verb_norming_L2-eng_oral_translation,001,809,
TRUDGE,,,0,78,78,122,,,,,,,return,3.42169226417,2018_Sep_13_1619,59.6242061024,verb_norming_L2-eng_oral_translation,001,809,
TRIP,Leg,leg,0,79,79,120,0,0,0,0,7,6.299,,,2018_Sep_13_1619,59.6242061024,verb_norming_L2-eng_oral_translation,001,809,
TRIP,Arm,arm,0,79,79,120,0,1,1,1,1,2.965,,,2018_Sep_13_1619,59.6242061024,verb_norming_L2-eng_oral_translation,001,809,
TRIP,,,0,79,79,120,,,,,,,return,3.52191565625,2018_Sep_13_1619,59.6242061024,verb_norming_L2-eng_oral_translation,001,809,
SHAKE,Leg,leg,0,80,80,43,0,0,0,0,3,6.567,,,2018_Sep_13_1619,59.6242061024,verb_norming_L2-eng_oral_translation,001,809,
SHAKE,Arm,arm,0,80,80,43,0,1,1,1,6,4.507,,,2018_Sep_13_1619,59.6242061024,verb_norming_L2-eng_oral_translation,001,809,
SHAKE,,,0,80,80,43,,,,,,,return,1.71109050422,2018_Sep_13_1619,59.6242061024,verb_norming_L2-eng_oral_translation,001,809,
SKIP,Leg,leg,0,81,81,93,0,0,0,0,7,38.264,,,2018_Sep_13_1619,59.6242061024,verb_norming_L2-eng_oral_translation,001,809,
SKIP,Arm,arm,0,81,81,93,0,1,1,1,1,0.7,,,2018_Sep_13_1619,59.6242061024,verb_norming_L2-eng_oral_translation,001,809,
SKIP,,,0,81,81,93,,,,,,,return,3.27083148951,2018_Sep_13_1619,59.6242061024,verb_norming_L2-eng_oral_translation,001,809,
STAB,Leg,leg,0,82,82,49,0,0,0,0,1,5.073,,,2018_Sep_13_1619,59.6242061024,verb_norming_L2-eng_oral_translation,001,809,
STAB,Arm,arm,0,82,82,49,0,1,1,1,7,3.636,,,2018_Sep_13_1619,59.6242061024,verb_norming_L2-eng_oral_translation,001,809,
STAB,,,0,82,82,49,,,,,,,return,3.10304443819,2018_Sep_13_1619,59.6242061024,verb_norming_L2-eng_oral_translation,001,809,
STRADDLE,Leg,leg,0,83,83,105,0,0,0,0,4,5.407,,,2018_Sep_13_1619,59.6242061024,verb_norming_L2-eng_oral_translation,001,809,
STRADDLE,Arm,arm,0,83,83,105,0,1,1,1,4,1.955,,,2018_Sep_13_1619,59.6242061024,verb_norming_L2-eng_oral_translation,001,809,
STRADDLE,,,0,83,83,105,,,,,,,return,5.06601524471,2018_Sep_13_1619,59.6242061024,verb_norming_L2-eng_oral_translation,001,809,
TREAD,Leg,leg,0,84,84,118,0,0,0,0,5,23.973,,,2018_Sep_13_1619,59.6242061024,verb_norming_L2-eng_oral_translation,001,809,
TREAD,Arm,arm,0,84,84,118,0,1,1,1,5,1.067,,,2018_Sep_13_1619,59.6242061024,verb_norming_L2-eng_oral_translation,001,809,
TREAD,,,0,84,84,118,,,,,,,return,3.08629319282,2018_Sep_13_1619,59.6242061024,verb_norming_L2-eng_oral_translation,001,809,
DASH,Leg,leg,0,85,85,65,0,0,0,0,4,17.702,,,2018_Sep_13_1619,59.6242061024,verb_norming_L2-eng_oral_translation,001,809,
DASH,Arm,arm,0,85,85,65,0,1,1,1,4,1.521,,,2018_Sep_13_1619,59.6242061024,verb_norming_L2-eng_oral_translation,001,809,
DASH,,,0,85,85,65,,,,,,,return,3.18688798313,2018_Sep_13_1619,59.6242061024,verb_norming_L2-eng_oral_translation,001,809,
GRATE,Leg,leg,0,86,86,20,0,0,0,0,4,15.354,,,2018_Sep_13_1619,59.6242061024,verb_norming_L2-eng_oral_translation,001,809,
GRATE,Arm,arm,0,86,86,20,0,1,1,1,4,0.699,,,2018_Sep_13_1619,59.6242061024,verb_norming_L2-eng_oral_translation,001,809,
GRATE,,,0,86,86,20,,,,,,,return,4.1762284589,2018_Sep_13_1619,59.6242061024,verb_norming_L2-eng_oral_translation,001,809,
RUN,Leg,leg,0,87,87,88,0,0,0,0,7,7.305,,,2018_Sep_13_1619,59.6242061024,verb_norming_L2-eng_oral_translation,001,809,
RUN,Arm,arm,0,87,87,88,0,1,1,1,2,3.653,,,2018_Sep_13_1619,59.6242061024,verb_norming_L2-eng_oral_translation,001,809,
RUN,,,0,87,87,88,,,,,,,return,2.59974492054,2018_Sep_13_1619,59.6242061024,verb_norming_L2-eng_oral_translation,001,809,
STROLL,Leg,leg,0,88,88,108,0,0,0,0,7,9.72,,,2018_Sep_13_1619,59.6242061024,verb_norming_L2-eng_oral_translation,001,809,
STROLL,Arm,arm,0,88,88,108,0,1,1,1,2,3.282,,,2018_Sep_13_1619,59.6242061024,verb_norming_L2-eng_oral_translation,001,809,
STROLL,,,0,88,88,108,,,,,,,return,4.26011348982,2018_Sep_13_1619,59.6242061024,verb_norming_L2-eng_oral_translation,001,809,
STIR,Leg,leg,0,89,89,50,0,0,0,0,1,12.755,,,2018_Sep_13_1619,59.6242061024,verb_norming_L2-eng_oral_translation,001,809,
STIR,Arm,arm,0,89,89,50,0,1,1,1,5,2.981,,,2018_Sep_13_1619,59.6242061024,verb_norming_L2-eng_oral_translation,001,809,
STIR,,,0,89,89,50,,,,,,,return,3.50538724982,2018_Sep_13_1619,59.6242061024,verb_norming_L2-eng_oral_translation,001,809,
STAGGER,Leg,leg,0,90,90,100,0,0,0,0,3,16.024,,,2018_Sep_13_1619,59.6242061024,verb_norming_L2-eng_oral_translation,001,809,
STAGGER,Arm,arm,0,90,90,100,0,1,1,1,3,0.966,,,2018_Sep_13_1619,59.6242061024,verb_norming_L2-eng_oral_translation,001,809,
STAGGER,,,0,90,90,100,,,,,,,return,4.88071597676,2018_Sep_13_1619,59.6242061024,verb_norming_L2-eng_oral_translation,001,809,
STEP,Leg,leg,0,91,91,103,0,0,0,0,7,7.222,,,2018_Sep_13_1619,59.6242061024,verb_norming_L2-eng_oral_translation,001,809,
STEP,Arm,arm,0,91,91,103,0,1,1,1,1,1.522,,,2018_Sep_13_1619,59.6242061024,verb_norming_L2-eng_oral_translation,001,809,
STEP,,,0,91,91,103,,,,,,,return,2.73363200599,2018_Sep_13_1619,59.6242061024,verb_norming_L2-eng_oral_translation,001,809,
PLOD,Leg,leg,0,92,92,84,0,0,0,0,4,12.184,,,2018_Sep_13_1619,59.6242061024,verb_norming_L2-eng_oral_translation,001,809,
PLOD,Arm,arm,0,92,92,84,0,1,1,1,4,0.884,,,2018_Sep_13_1619,59.6242061024,verb_norming_L2-eng_oral_translation,001,809,
PLOD,,,0,92,92,84,,,,,,,return,2.91845438282,2018_Sep_13_1619,59.6242061024,verb_norming_L2-eng_oral_translation,001,809,
TROT,Leg,leg,0,93,93,121,0,0,0,0,4,7.389,,,2018_Sep_13_1619,59.6242061024,verb_norming_L2-eng_oral_translation,001,809,
TROT,Arm,arm,0,93,93,121,0,1,1,1,4,2.16,,,2018_Sep_13_1619,59.6242061024,verb_norming_L2-eng_oral_translation,001,809,
TROT,,,0,93,93,121,,,,,,,return,4.46147889194,2018_Sep_13_1619,59.6242061024,verb_norming_L2-eng_oral_translation,001,809,
TRAIPSE,Leg,leg,0,94,94,115,0,0,0,0,4,16.025,,,2018_Sep_13_1619,59.6242061024,verb_norming_L2-eng_oral_translation,001,809,
TRAIPSE,Arm,arm,0,94,94,115,0,1,1,1,4,2.946,,,2018_Sep_13_1619,59.6242061024,verb_norming_L2-eng_oral_translation,001,809,
TRAIPSE,,,0,94,94,115,,,,,,,return,4.15943651777,2018_Sep_13_1619,59.6242061024,verb_norming_L2-eng_oral_translation,001,809,
TRAMPLE,Leg,leg,0,95,95,117,0,0,0,0,7,7.471,,,2018_Sep_13_1619,59.6242061024,verb_norming_L2-eng_oral_translation,001,809,
TRAMPLE,Arm,arm,0,95,95,117,0,1,1,1,1,1.201,,,2018_Sep_13_1619,59.6242061024,verb_norming_L2-eng_oral_translation,001,809,
TRAMPLE,,,0,95,95,117,,,,,,,return,2.43223799831,2018_Sep_13_1619,59.6242061024,verb_norming_L2-eng_oral_translation,001,809,
JOG,Leg,leg,0,96,96,73,0,0,0,0,7,14.767,,,2018_Sep_13_1619,59.6242061024,verb_norming_L2-eng_oral_translation,001,809,
JOG,Arm,arm,0,96,96,73,0,1,1,1,1,0.9,,,2018_Sep_13_1619,59.6242061024,verb_norming_L2-eng_oral_translation,001,809,
JOG,,,0,96,96,73,,,,,,,return,2.54923792245,2018_Sep_13_1619,59.6242061024,verb_norming_L2-eng_oral_translation,001,809,
GESTURE,Leg,leg,0,97,97,17,0,0,0,0,1,6.33,,,2018_Sep_13_1619,59.6242061024,verb_norming_L2-eng_oral_translation,001,809,
GESTURE,Arm,arm,0,97,97,17,0,1,1,1,7,2.693,,,2018_Sep_13_1619,59.6242061024,verb_norming_L2-eng_oral_translation,001,809,
GESTURE,,,0,97,97,17,,,,,,,return,3.57246137459,2018_Sep_13_1619,59.6242061024,verb_norming_L2-eng_oral_translation,001,809,
TUG,Leg,leg,0,98,98,54,0,0,0,0,5,10.338,,,2018_Sep_13_1619,59.6242061024,verb_norming_L2-eng_oral_translation,001,809,
TUG,Arm,arm,0,98,98,54,0,1,1,1,5,0.7,,,2018_Sep_13_1619,59.6242061024,verb_norming_L2-eng_oral_translation,001,809,
TUG,,,0,98,98,54,,,,,,,return,3.15348110768,2018_Sep_13_1619,59.6242061024,verb_norming_L2-eng_oral_translation,001,809,
SNATCH,Leg,leg,0,99,99,47,0,0,0,0,1,12.605,,,2018_Sep_13_1619,59.6242061024,verb_norming_L2-eng_oral_translation,001,809,
SNATCH,Arm,arm,0,99,99,47,0,1,1,1,1,0.849,,,2018_Sep_13_1619,59.6242061024,verb_norming_L2-eng_oral_translation,001,809,
SNATCH,,,0,99,99,47,,,,,,,return,3.17010789514,2018_Sep_13_1619,59.6242061024,verb_norming_L2-eng_oral_translation,001,809,
SCRATCH,Leg,leg,0,100,100,40,0,0,0,0,1,7.622,,,2018_Sep_13_1619,59.6242061024,verb_norming_L2-eng_oral_translation,001,809,
SCRATCH,Arm,arm,0,100,100,40,0,1,1,1,2,5.076,,,2018_Sep_13_1619,59.6242061024,verb_norming_L2-eng_oral_translation,001,809,
SCRATCH,,,0,100,100,40,,,,,,,return,3.10299623545,2018_Sep_13_1619,59.6242061024,verb_norming_L2-eng_oral_translation,001,809,
BRAID,Leg,leg,0,101,101,2,0,0,0,0,4,6.749,,,2018_Sep_13_1619,59.6242061024,verb_norming_L2-eng_oral_translation,001,809,
BRAID,Arm,arm,0,101,101,2,0,1,1,1,4,3.365,,,2018_Sep_13_1619,59.6242061024,verb_norming_L2-eng_oral_translation,001,809,
BRAID,,,0,101,101,2,,,,,,,return,2.98552811247,2018_Sep_13_1619,59.6242061024,verb_norming_L2-eng_oral_translation,001,809,
TOTTER,Leg,leg,0,102,102,114,0,0,0,0,4,5.258,,,2018_Sep_13_1619,59.6242061024,verb_norming_L2-eng_oral_translation,001,809,
TOTTER,Arm,arm,0,102,102,114,0,1,1,1,4,0.731,,,2018_Sep_13_1619,59.6242061024,verb_norming_L2-eng_oral_translation,001,809,
TOTTER,,,0,102,102,114,,,,,,,return,3.45634648452,2018_Sep_13_1619,59.6242061024,verb_norming_L2-eng_oral_translation,001,809,
HOBBLE,Leg,leg,0,103,103,70,0,0,0,0,4,9.787,,,2018_Sep_13_1619,59.6242061024,verb_norming_L2-eng_oral_translation,001,809,
HOBBLE,Arm,arm,0,103,103,70,0,1,1,1,4,0.682,,,2018_Sep_13_1619,59.6242061024,verb_norming_L2-eng_oral_translation,001,809,
HOBBLE,,,0,103,103,70,,,,,,,return,2.76749759776,2018_Sep_13_1619,59.6242061024,verb_norming_L2-eng_oral_translation,001,809,
WANDER,Leg,leg,0,104,104,126,0,0,0,0,1,18.942,,,2018_Sep_13_1619,59.6242061024,verb_norming_L2-eng_oral_translation,001,809,
WANDER,Arm,arm,0,104,104,126,0,1,1,1,1,0.665,,,2018_Sep_13_1619,59.6242061024,verb_norming_L2-eng_oral_translation,001,809,
WANDER,,,0,104,104,126,,,,,,,return,3.25364167815,2018_Sep_13_1619,59.6242061024,verb_norming_L2-eng_oral_translation,001,809,
CUT,Leg,leg,0,105,105,12,0,0,0,0,1,8.429,,,2018_Sep_13_1619,59.6242061024,verb_norming_L2-eng_oral_translation,001,809,
CUT,Arm,arm,0,105,105,12,0,1,1,1,1,4.843,,,2018_Sep_13_1619,59.6242061024,verb_norming_L2-eng_oral_translation,001,809,
CUT,,,0,105,105,12,,,,,,,return,2.51581445261,2018_Sep_13_1619,59.6242061024,verb_norming_L2-eng_oral_translation,001,809,
PEDAL,Leg,leg,0,106,106,83,0,0,0,0,6,15.571,,,2018_Sep_13_1619,59.6242061024,verb_norming_L2-eng_oral_translation,001,809,
PEDAL,Arm,arm,0,106,106,83,0,1,1,1,4,3.885,,,2018_Sep_13_1619,59.6242061024,verb_norming_L2-eng_oral_translation,001,809,
PEDAL,,,0,106,106,83,,,,,,,return,4.47832417218,2018_Sep_13_1619,59.6242061024,verb_norming_L2-eng_oral_translation,001,809,
POLISH,Leg,leg,0,107,107,32,0,0,0,0,1,5.09,,,2018_Sep_13_1619,59.6242061024,verb_norming_L2-eng_oral_translation,001,809,
POLISH,Arm,arm,0,107,107,32,0,1,1,1,5,2.779,,,2018_Sep_13_1619,59.6242061024,verb_norming_L2-eng_oral_translation,001,809,
POLISH,,,0,107,107,32,,,,,,,return,3.33783370526,2018_Sep_13_1619,59.6242061024,verb_norming_L2-eng_oral_translation,001,809,
THROW,Leg,leg,0,108,108,52,0,0,0,0,1,3.931,,,2018_Sep_13_1619,59.6242061024,verb_norming_L2-eng_oral_translation,001,809,
THROW,Arm,arm,0,108,108,52,0,1,1,1,7,1.018,,,2018_Sep_13_1619,59.6242061024,verb_norming_L2-eng_oral_translation,001,809,
THROW,,,0,108,108,52,,,,,,,return,3.33773650955,2018_Sep_13_1619,59.6242061024,verb_norming_L2-eng_oral_translation,001,809,
STAMP,Leg,leg,0,109,109,101,0,0,0,0,1,12.587,,,2018_Sep_13_1619,59.6242061024,verb_norming_L2-eng_oral_translation,001,809,
STAMP,Arm,arm,0,109,109,101,0,1,1,1,1,6.251,,,2018_Sep_13_1619,59.6242061024,verb_norming_L2-eng_oral_translation,001,809,
STAMP,,,0,109,109,101,,,,,,,return,3.50539791764,2018_Sep_13_1619,59.6242061024,verb_norming_L2-eng_oral_translation,001,809,
TIPTOE,Leg,leg,0,110,110,112,0,0,0,0,6,9.334,,,2018_Sep_13_1619,59.6242061024,verb_norming_L2-eng_oral_translation,001,809,
TIPTOE,Arm,arm,0,110,110,112,0,1,1,1,2,1.27,,,2018_Sep_13_1619,59.6242061024,verb_norming_L2-eng_oral_translation,001,809,
TIPTOE,,,0,110,110,112,,,,,,,return,4.27680072826,2018_Sep_13_1619,59.6242061024,verb_norming_L2-eng_oral_translation,001,809,
HOP,Leg,leg,0,111,111,71,0,0,0,0,6,19.347,,,2018_Sep_13_1619,59.6242061024,verb_norming_L2-eng_oral_translation,001,809,
HOP,Arm,arm,0,111,111,71,0,1,1,1,2,0.986,,,2018_Sep_13_1619,59.6242061024,verb_norming_L2-eng_oral_translation,001,809,
HOP,,,0,111,111,71,,,,,,,return,1.878584388,2018_Sep_13_1619,59.6242061024,verb_norming_L2-eng_oral_translation,001,809,
STRAY,Leg,leg,0,112,112,106,0,0,0,0,6,10.843,,,2018_Sep_13_1619,59.6242061024,verb_norming_L2-eng_oral_translation,001,809,
STRAY,Arm,arm,0,112,112,106,0,1,1,1,3,6.955,,,2018_Sep_13_1619,59.6242061024,verb_norming_L2-eng_oral_translation,001,809,
STRAY,,,0,112,112,106,,,,,,,return,2.83463454414,2018_Sep_13_1619,59.6242061024,verb_norming_L2-eng_oral_translation,001,809,
BRUSH,Leg,leg,0,113,113,3,0,0,0,0,1,5.963,,,2018_Sep_13_1619,59.6242061024,verb_norming_L2-eng_oral_translation,001,809,
BRUSH,Arm,arm,0,113,113,3,0,1,1,1,6,2.645,,,2018_Sep_13_1619,59.6242061024,verb_norming_L2-eng_oral_translation,001,809,
BRUSH,,,0,113,113,3,,,,,,,return,17.676848773,2018_Sep_13_1619,59.6242061024,verb_norming_L2-eng_oral_translation,001,809,
ROW,Leg,leg,0,114,114,36,0,0,0,0,2,17.234,,,2018_Sep_13_1619,59.6242061024,verb_norming_L2-eng_oral_translation,001,809,
ROW,Arm,arm,0,114,114,36,0,1,1,1,6,2.311,,,2018_Sep_13_1619,59.6242061024,verb_norming_L2-eng_oral_translation,001,809,
ROW,,,0,114,114,36,,,,,,,return,2.19751708432,2018_Sep_13_1619,59.6242061024,verb_norming_L2-eng_oral_translation,001,809,
CLAW,Leg,leg,0,115,115,8,0,0,0,0,1,17.603,,,2018_Sep_13_1619,59.6242061024,verb_norming_L2-eng_oral_translation,001,809,
CLAW,Arm,arm,0,115,115,8,0,1,1,1,6,1.505,,,2018_Sep_13_1619,59.6242061024,verb_norming_L2-eng_oral_translation,001,809,
CLAW,,,0,115,115,8,,,,,,,return,3.63952522663,2018_Sep_13_1619,59.6242061024,verb_norming_L2-eng_oral_translation,001,809,
PRANCE,Leg,leg,0,116,116,85,0,0,0,0,4,6.397,,,2018_Sep_13_1619,59.6242061024,verb_norming_L2-eng_oral_translation,001,809,
PRANCE,Arm,arm,0,116,116,85,0,1,1,1,4,0.868,,,2018_Sep_13_1619,59.6242061024,verb_norming_L2-eng_oral_translation,001,809,
PRANCE,,,0,116,116,85,,,,,,,return,3.77382677671,2018_Sep_13_1619,59.6242061024,verb_norming_L2-eng_oral_translation,001,809,
TODDLE,Leg,leg,0,117,117,113,0,0,0,0,5,16.896,,,2018_Sep_13_1619,59.6242061024,verb_norming_L2-eng_oral_translation,001,809,
TODDLE,Arm,arm,0,117,117,113,0,1,1,1,5,1.937,,,2018_Sep_13_1619,59.6242061024,verb_norming_L2-eng_oral_translation,001,809,
TODDLE,,,0,117,117,113,,,,,,,return,4.04206084925,2018_Sep_13_1619,59.6242061024,verb_norming_L2-eng_oral_translation,001,809,
RAMBLE,Leg,leg,0,118,118,86,0,0,0,0,1,8.327,,,2018_Sep_13_1619,59.6242061024,verb_norming_L2-eng_oral_translation,001,809,
RAMBLE,Arm,arm,0,118,118,86,0,1,1,1,1,0.984,,,2018_Sep_13_1619,59.6242061024,verb_norming_L2-eng_oral_translation,001,809,
RAMBLE,,,0,118,118,86,,,,,,,return,3.7234323834,2018_Sep_13_1619,59.6242061024,verb_norming_L2-eng_oral_translation,001,809,
WIPE,Leg,leg,0,119,119,58,0,0,0,0,1,11.196,,,2018_Sep_13_1619,59.6242061024,verb_norming_L2-eng_oral_translation,001,809,
WIPE,Arm,arm,0,119,119,58,0,1,1,1,1,0.868,,,2018_Sep_13_1619,59.6242061024,verb_norming_L2-eng_oral_translation,001,809,
WIPE,,,0,119,119,58,,,,,,,return,3.00228330889,2018_Sep_13_1619,59.6242061024,verb_norming_L2-eng_oral_translation,001,809,
WADDLE,Leg,leg,0,120,120,123,0,0,0,0,4,3.144,,,2018_Sep_13_1619,59.6242061024,verb_norming_L2-eng_oral_translation,001,809,
WADDLE,Arm,arm,0,120,120,123,0,1,1,1,4,0.564,,,2018_Sep_13_1619,59.6242061024,verb_norming_L2-eng_oral_translation,001,809,
WADDLE,,,0,120,120,123,,,,,,,return,4.9478051155,2018_Sep_13_1619,59.6242061024,verb_norming_L2-eng_oral_translation,001,809,
SQUEEZE,Leg,leg,0,121,121,48,0,0,0,0,1,7.084,,,2018_Sep_13_1619,59.6242061024,verb_norming_L2-eng_oral_translation,001,809,
SQUEEZE,Arm,arm,0,121,121,48,0,1,1,1,5,6.701,,,2018_Sep_13_1619,59.6242061024,verb_norming_L2-eng_oral_translation,001,809,
SQUEEZE,,,0,121,121,48,,,,,,,return,5.87007304692,2018_Sep_13_1619,59.6242061024,verb_norming_L2-eng_oral_translation,001,809,
RUB,Leg,leg,0,122,122,37,0,0,0,0,2,8.58,,,2018_Sep_13_1619,59.6242061024,verb_norming_L2-eng_oral_translation,001,809,
RUB,Arm,arm,0,122,122,37,0,1,1,1,6,1.237,,,2018_Sep_13_1619,59.6242061024,verb_norming_L2-eng_oral_translation,001,809,
RUB,,,0,122,122,37,,,,,,,return,5.88647067376,2018_Sep_13_1619,59.6242061024,verb_norming_L2-eng_oral_translation,001,809,
SCOOP,Leg,leg,0,123,123,38,0,0,0,0,4,15.455,,,2018_Sep_13_1619,59.6242061024,verb_norming_L2-eng_oral_translation,001,809,
SCOOP,Arm,arm,0,123,123,38,0,1,1,1,4,0.7,,,2018_Sep_13_1619,59.6242061024,verb_norming_L2-eng_oral_translation,001,809,
SCOOP,,,0,123,123,38,,,,,,,return,4.00855519768,2018_Sep_13_1619,59.6242061024,verb_norming_L2-eng_oral_translation,001,809,
BOUNCE,Leg,leg,0,124,124,60,0,0,0,0,6,8.042,,,2018_Sep_13_1619,59.6242061024,verb_norming_L2-eng_oral_translation,001,809,
BOUNCE,Arm,arm,0,124,124,60,0,1,1,1,1,3.584,,,2018_Sep_13_1619,59.6242061024,verb_norming_L2-eng_oral_translation,001,809,
BOUNCE,,,0,124,124,60,,,,,,,return,3.50553067275,2018_Sep_13_1619,59.6242061024,verb_norming_L2-eng_oral_translation,001,809,
CROUCH,Leg,leg,0,125,125,62,0,0,0,0,7,14.817,,,2018_Sep_13_1619,59.6242061024,verb_norming_L2-eng_oral_translation,001,809,
CROUCH,Arm,arm,0,125,125,62,0,1,1,1,3,1.135,,,2018_Sep_13_1619,59.6242061024,verb_norming_L2-eng_oral_translation,001,809,
CROUCH,,,0,125,125,62,,,,,,,return,4.41117063141,2018_Sep_13_1619,59.6242061024,verb_norming_L2-eng_oral_translation,001,809,
WOBBLE,Leg,leg,0,126,126,127,0,0,0,0,2,10.172,,,2018_Sep_13_1619,59.6242061024,verb_norming_L2-eng_oral_translation,001,809,
WOBBLE,Arm,arm,0,126,126,127,0,1,1,1,2,1.068,,,2018_Sep_13_1619,59.6242061024,verb_norming_L2-eng_oral_translation,001,809,
WOBBLE,,,0,126,126,127,,,,,,,return,2.88500720671,2018_Sep_13_1619,59.6242061024,verb_norming_L2-eng_oral_translation,001,809,
LEAP,Leg,leg,0,127,127,77,0,0,0,0,7,11.766,,,2018_Sep_13_1619,59.6242061024,verb_norming_L2-eng_oral_translation,001,809,
LEAP,Arm,arm,0,127,127,77,0,1,1,1,1,1.438,,,2018_Sep_13_1619,59.6242061024,verb_norming_L2-eng_oral_translation,001,809,
LEAP,,,0,127,127,77,,,,,,,return,2.88499969972,2018_Sep_13_1619,59.6242061024,verb_norming_L2-eng_oral_translation,001,809,
