word,category,category_lowercase,trials.thisRepN,trials.thisTrialN,trials.thisN,trials.thisIndex,armleg_loop.thisRepN,armleg_loop.thisTrialN,armleg_loop.thisN,armleg_loop.thisIndex,rating.response,rating.rt,key_resp_7.keys,key_resp_7.rt,date,frameRate,expName,session,participant,
PUSH,Arm,arm,0,0,0,35,0,0,0,0,7,5.58,,,2018_Sep_17_1327,59.626939514,verb_norming_L2-eng_oral_translation,001,810,
PUSH,Leg,leg,0,0,0,35,0,1,1,1,1,14.956,,,2018_Sep_17_1327,59.626939514,verb_norming_L2-eng_oral_translation,001,810,
PUSH,,,0,0,0,35,,,,,,,return,12.880643809,2018_Sep_17_1327,59.626939514,verb_norming_L2-eng_oral_translation,001,810,
STOMP,Arm,arm,0,1,1,104,0,0,0,0,1,3.931,,,2018_Sep_17_1327,59.626939514,verb_norming_L2-eng_oral_translation,001,810,
STOMP,Leg,leg,0,1,1,104,0,1,1,1,7,2.461,,,2018_Sep_17_1327,59.626939514,verb_norming_L2-eng_oral_translation,001,810,
STOMP,,,0,1,1,104,,,,,,,return,5.80314721386,2018_Sep_17_1327,59.626939514,verb_norming_L2-eng_oral_translation,001,810,
BIND,Arm,arm,0,2,2,1,0,0,0,0,6,6.079,,,2018_Sep_17_1327,59.626939514,verb_norming_L2-eng_oral_translation,001,810,
BIND,Leg,leg,0,2,2,1,0,1,1,1,2,2.043,,,2018_Sep_17_1327,59.626939514,verb_norming_L2-eng_oral_translation,001,810,
BIND,,,0,2,2,1,,,,,,,return,3.60732369079,2018_Sep_17_1327,59.626939514,verb_norming_L2-eng_oral_translation,001,810,
KNEEL,Arm,arm,0,3,3,76,0,0,0,0,1,5.209,,,2018_Sep_17_1327,59.626939514,verb_norming_L2-eng_oral_translation,001,810,
KNEEL,Leg,leg,0,3,3,76,0,1,1,1,7,2.208,,,2018_Sep_17_1327,59.626939514,verb_norming_L2-eng_oral_translation,001,810,
KNEEL,,,0,3,3,76,,,,,,,return,7.1113310999,2018_Sep_17_1327,59.626939514,verb_norming_L2-eng_oral_translation,001,810,
HOBBLE,Arm,arm,0,4,4,70,0,0,0,0,4,5.477,,,2018_Sep_17_1327,59.626939514,verb_norming_L2-eng_oral_translation,001,810,
HOBBLE,Leg,leg,0,4,4,70,0,1,1,1,4,0.498,,,2018_Sep_17_1327,59.626939514,verb_norming_L2-eng_oral_translation,001,810,
HOBBLE,,,0,4,4,70,,,,,,,return,1.99600306132,2018_Sep_17_1327,59.626939514,verb_norming_L2-eng_oral_translation,001,810,
STRUT,Arm,arm,0,5,5,109,0,0,0,0,1,4.068,,,2018_Sep_17_1327,59.626939514,verb_norming_L2-eng_oral_translation,001,810,
STRUT,Leg,leg,0,5,5,109,0,1,1,1,7,1.303,,,2018_Sep_17_1327,59.626939514,verb_norming_L2-eng_oral_translation,001,810,
STRUT,,,0,5,5,109,,,,,,,return,6.35666672067,2018_Sep_17_1327,59.626939514,verb_norming_L2-eng_oral_translation,001,810,
RAMBLE,Arm,arm,0,6,6,86,0,0,0,0,4,3.145,,,2018_Sep_17_1327,59.626939514,verb_norming_L2-eng_oral_translation,001,810,
RAMBLE,Leg,leg,0,6,6,86,0,1,1,1,4,0.43,,,2018_Sep_17_1327,59.626939514,verb_norming_L2-eng_oral_translation,001,810,
RAMBLE,,,0,6,6,86,,,,,,,return,0.872494653166,2018_Sep_17_1327,59.626939514,verb_norming_L2-eng_oral_translation,001,810,
TOSS,Arm,arm,0,7,7,53,0,0,0,0,7,2.978,,,2018_Sep_17_1327,59.626939514,verb_norming_L2-eng_oral_translation,001,810,
TOSS,Leg,leg,0,7,7,53,0,1,1,1,1,0.684,,,2018_Sep_17_1327,59.626939514,verb_norming_L2-eng_oral_translation,001,810,
TOSS,,,0,7,7,53,,,,,,,return,1.30856951398,2018_Sep_17_1327,59.626939514,verb_norming_L2-eng_oral_translation,001,810,
WALK,Arm,arm,0,8,8,125,0,0,0,0,1,5.762,,,2018_Sep_17_1327,59.626939514,verb_norming_L2-eng_oral_translation,001,810,
WALK,Leg,leg,0,8,8,125,0,1,1,1,7,1.187,,,2018_Sep_17_1327,59.626939514,verb_norming_L2-eng_oral_translation,001,810,
WALK,,,0,8,8,125,,,,,,,return,1.82852003033,2018_Sep_17_1327,59.626939514,verb_norming_L2-eng_oral_translation,001,810,
SCRAPE,Arm,arm,0,9,9,39,0,0,0,0,7,3.866,,,2018_Sep_17_1327,59.626939514,verb_norming_L2-eng_oral_translation,001,810,
SCRAPE,Leg,leg,0,9,9,39,0,1,1,1,1,1.051,,,2018_Sep_17_1327,59.626939514,verb_norming_L2-eng_oral_translation,001,810,
SCRAPE,,,0,9,9,39,,,,,,,return,1.10711803573,2018_Sep_17_1327,59.626939514,verb_norming_L2-eng_oral_translation,001,810,
TROT,Arm,arm,0,10,10,121,0,0,0,0,1,5.679,,,2018_Sep_17_1327,59.626939514,verb_norming_L2-eng_oral_translation,001,810,
TROT,Leg,leg,0,10,10,121,0,1,1,1,7,3.585,,,2018_Sep_17_1327,59.626939514,verb_norming_L2-eng_oral_translation,001,810,
TROT,,,0,10,10,121,,,,,,,return,2.76769157035,2018_Sep_17_1327,59.626939514,verb_norming_L2-eng_oral_translation,001,810,
PRANCE,Arm,arm,0,11,11,85,0,0,0,0,4,3.212,,,2018_Sep_17_1327,59.626939514,verb_norming_L2-eng_oral_translation,001,810,
PRANCE,Leg,leg,0,11,11,85,0,1,1,1,4,0.465,,,2018_Sep_17_1327,59.626939514,verb_norming_L2-eng_oral_translation,001,810,
PRANCE,,,0,11,11,85,,,,,,,return,1.19119677811,2018_Sep_17_1327,59.626939514,verb_norming_L2-eng_oral_translation,001,810,
FOLD,Arm,arm,0,12,12,16,0,0,0,0,7,3.398,,,2018_Sep_17_1327,59.626939514,verb_norming_L2-eng_oral_translation,001,810,
FOLD,Leg,leg,0,12,12,16,0,1,1,1,1,0.751,,,2018_Sep_17_1327,59.626939514,verb_norming_L2-eng_oral_translation,001,810,
FOLD,,,0,12,12,16,,,,,,,return,0.352780808056,2018_Sep_17_1327,59.626939514,verb_norming_L2-eng_oral_translation,001,810,
CLAW,Arm,arm,0,13,13,8,0,0,0,0,7,2.928,,,2018_Sep_17_1327,59.626939514,verb_norming_L2-eng_oral_translation,001,810,
CLAW,Leg,leg,0,13,13,8,0,1,1,1,1,0.801,,,2018_Sep_17_1327,59.626939514,verb_norming_L2-eng_oral_translation,001,810,
CLAW,,,0,13,13,8,,,,,,,return,0.369400739726,2018_Sep_17_1327,59.626939514,verb_norming_L2-eng_oral_translation,001,810,
MOUNT,Arm,arm,0,14,14,81,0,0,0,0,1,3.916,,,2018_Sep_17_1327,59.626939514,verb_norming_L2-eng_oral_translation,001,810,
MOUNT,Leg,leg,0,14,14,81,0,1,1,1,7,1.237,,,2018_Sep_17_1327,59.626939514,verb_norming_L2-eng_oral_translation,001,810,
MOUNT,,,0,14,14,81,,,,,,,return,1.69429543288,2018_Sep_17_1327,59.626939514,verb_norming_L2-eng_oral_translation,001,810,
TWINE,Arm,arm,0,15,15,55,0,0,0,0,7,5.142,,,2018_Sep_17_1327,59.626939514,verb_norming_L2-eng_oral_translation,001,810,
TWINE,Leg,leg,0,15,15,55,0,1,1,1,1,1.637,,,2018_Sep_17_1327,59.626939514,verb_norming_L2-eng_oral_translation,001,810,
TWINE,,,0,15,15,55,,,,,,,return,0.704827105534,2018_Sep_17_1327,59.626939514,verb_norming_L2-eng_oral_translation,001,810,
BOUNCE,Arm,arm,0,16,16,60,0,0,0,0,7,4.068,,,2018_Sep_17_1327,59.626939514,verb_norming_L2-eng_oral_translation,001,810,
BOUNCE,Leg,leg,0,16,16,60,0,1,1,1,1,0.834,,,2018_Sep_17_1327,59.626939514,verb_norming_L2-eng_oral_translation,001,810,
BOUNCE,,,0,16,16,60,,,,,,,return,0.67128656304,2018_Sep_17_1327,59.626939514,verb_norming_L2-eng_oral_translation,001,810,
BRUSH,Arm,arm,0,17,17,3,0,0,0,0,7,3.565,,,2018_Sep_17_1327,59.626939514,verb_norming_L2-eng_oral_translation,001,810,
BRUSH,Leg,leg,0,17,17,3,0,1,1,1,1,0.851,,,2018_Sep_17_1327,59.626939514,verb_norming_L2-eng_oral_translation,001,810,
BRUSH,,,0,17,17,3,,,,,,,return,1.12407618206,2018_Sep_17_1327,59.626939514,verb_norming_L2-eng_oral_translation,001,810,
STRIDE,Arm,arm,0,18,18,107,0,0,0,0,4,5.929,,,2018_Sep_17_1327,59.626939514,verb_norming_L2-eng_oral_translation,001,810,
STRIDE,Leg,leg,0,18,18,107,0,1,1,1,4,0.431,,,2018_Sep_17_1327,59.626939514,verb_norming_L2-eng_oral_translation,001,810,
STRIDE,,,0,18,18,107,,,,,,,return,0.922814356896,2018_Sep_17_1327,59.626939514,verb_norming_L2-eng_oral_translation,001,810,
STRADDLE,Arm,arm,0,19,19,105,0,0,0,0,4,3.127,,,2018_Sep_17_1327,59.626939514,verb_norming_L2-eng_oral_translation,001,810,
STRADDLE,Leg,leg,0,19,19,105,0,1,1,1,4,0.463,,,2018_Sep_17_1327,59.626939514,verb_norming_L2-eng_oral_translation,001,810,
STRADDLE,,,0,19,19,105,,,,,,,return,0.654501870256,2018_Sep_17_1327,59.626939514,verb_norming_L2-eng_oral_translation,001,810,
KICK,Arm,arm,0,20,20,75,0,0,0,0,1,2.945,,,2018_Sep_17_1327,59.626939514,verb_norming_L2-eng_oral_translation,001,810,
KICK,Leg,leg,0,20,20,75,0,1,1,1,7,0.499,,,2018_Sep_17_1327,59.626939514,verb_norming_L2-eng_oral_translation,001,810,
KICK,,,0,20,20,75,,,,,,,return,0.788680634878,2018_Sep_17_1327,59.626939514,verb_norming_L2-eng_oral_translation,001,810,
STUMBLE,Arm,arm,0,21,21,110,0,0,0,0,1,6.331,,,2018_Sep_17_1327,59.626939514,verb_norming_L2-eng_oral_translation,001,810,
STUMBLE,Leg,leg,0,21,21,110,0,1,1,1,5,2.259,,,2018_Sep_17_1327,59.626939514,verb_norming_L2-eng_oral_translation,001,810,
STUMBLE,,,0,21,21,110,,,,,,,return,2.01294619344,2018_Sep_17_1327,59.626939514,verb_norming_L2-eng_oral_translation,001,810,
SKATE,Arm,arm,0,22,22,92,0,0,0,0,1,13.628,,,2018_Sep_17_1327,59.626939514,verb_norming_L2-eng_oral_translation,001,810,
SKATE,Leg,leg,0,22,22,92,0,1,1,1,7,1.756,,,2018_Sep_17_1327,59.626939514,verb_norming_L2-eng_oral_translation,001,810,
SKATE,,,0,22,22,92,,,,,,,return,1.54318222856,2018_Sep_17_1327,59.626939514,verb_norming_L2-eng_oral_translation,001,810,
SIGN,Arm,arm,0,23,23,44,0,0,0,0,7,2.722,,,2018_Sep_17_1327,59.626939514,verb_norming_L2-eng_oral_translation,001,810,
SIGN,Leg,leg,0,23,23,44,0,1,1,1,1,1.739,,,2018_Sep_17_1327,59.626939514,verb_norming_L2-eng_oral_translation,001,810,
SIGN,,,0,23,23,44,,,,,,,return,1.84510677271,2018_Sep_17_1327,59.626939514,verb_norming_L2-eng_oral_translation,001,810,
ROAM,Arm,arm,0,24,24,87,0,0,0,0,4,5.109,,,2018_Sep_17_1327,59.626939514,verb_norming_L2-eng_oral_translation,001,810,
ROAM,Leg,leg,0,24,24,87,0,1,1,1,4,0.431,,,2018_Sep_17_1327,59.626939514,verb_norming_L2-eng_oral_translation,001,810,
ROAM,,,0,24,24,87,,,,,,,return,0.77179044757,2018_Sep_17_1327,59.626939514,verb_norming_L2-eng_oral_translation,001,810,
SQUAT,Arm,arm,0,25,25,99,0,0,0,0,1,3.595,,,2018_Sep_17_1327,59.626939514,verb_norming_L2-eng_oral_translation,001,810,
SQUAT,Leg,leg,0,25,25,99,0,1,1,1,7,2.443,,,2018_Sep_17_1327,59.626939514,verb_norming_L2-eng_oral_translation,001,810,
SQUAT,,,0,25,25,99,,,,,,,return,5.33338522452,2018_Sep_17_1327,59.626939514,verb_norming_L2-eng_oral_translation,001,810,
CARVE,Arm,arm,0,26,26,4,0,0,0,0,7,6.534,,,2018_Sep_17_1327,59.626939514,verb_norming_L2-eng_oral_translation,001,810,
CARVE,Leg,leg,0,26,26,4,0,1,1,1,1,1.136,,,2018_Sep_17_1327,59.626939514,verb_norming_L2-eng_oral_translation,001,810,
CARVE,,,0,26,26,4,,,,,,,return,1.76138837118,2018_Sep_17_1327,59.626939514,verb_norming_L2-eng_oral_translation,001,810,
CATCH,Arm,arm,0,27,27,5,0,0,0,0,7,5.091,,,2018_Sep_17_1327,59.626939514,verb_norming_L2-eng_oral_translation,001,810,
CATCH,Leg,leg,0,27,27,5,0,1,1,1,1,0.9,,,2018_Sep_17_1327,59.626939514,verb_norming_L2-eng_oral_translation,001,810,
CATCH,,,0,27,27,5,,,,,,,return,1.84512534291,2018_Sep_17_1327,59.626939514,verb_norming_L2-eng_oral_translation,001,810,
LIFT,Arm,arm,0,28,28,25,0,0,0,0,7,5.36,,,2018_Sep_17_1327,59.626939514,verb_norming_L2-eng_oral_translation,001,810,
LIFT,Leg,leg,0,28,28,25,0,1,1,1,2,1.053,,,2018_Sep_17_1327,59.626939514,verb_norming_L2-eng_oral_translation,001,810,
LIFT,,,0,28,28,25,,,,,,,return,0.436560056611,2018_Sep_17_1327,59.626939514,verb_norming_L2-eng_oral_translation,001,810,
CLEAN,Arm,arm,0,29,29,9,0,0,0,0,7,3.984,,,2018_Sep_17_1327,59.626939514,verb_norming_L2-eng_oral_translation,001,810,
CLEAN,Leg,leg,0,29,29,9,0,1,1,1,1,0.682,,,2018_Sep_17_1327,59.626939514,verb_norming_L2-eng_oral_translation,001,810,
CLEAN,,,0,29,29,9,,,,,,,return,0.738332483188,2018_Sep_17_1327,59.626939514,verb_norming_L2-eng_oral_translation,001,810,
TODDLE,Arm,arm,0,30,30,113,0,0,0,0,4,2.055,,,2018_Sep_17_1327,59.626939514,verb_norming_L2-eng_oral_translation,001,810,
TODDLE,Leg,leg,0,30,30,113,0,1,1,1,4,0.884,,,2018_Sep_17_1327,59.626939514,verb_norming_L2-eng_oral_translation,001,810,
TODDLE,,,0,30,30,113,,,,,,,return,0.671182648955,2018_Sep_17_1327,59.626939514,verb_norming_L2-eng_oral_translation,001,810,
INCH,Arm,arm,0,31,31,72,0,0,0,0,4,4.32,,,2018_Sep_17_1327,59.626939514,verb_norming_L2-eng_oral_translation,001,810,
INCH,Leg,leg,0,31,31,72,0,1,1,1,4,0.499,,,2018_Sep_17_1327,59.626939514,verb_norming_L2-eng_oral_translation,001,810,
INCH,,,0,31,31,72,,,,,,,return,0.536877844057,2018_Sep_17_1327,59.626939514,verb_norming_L2-eng_oral_translation,001,810,
GRIP,Arm,arm,0,32,32,21,0,0,0,0,6,3.866,,,2018_Sep_17_1327,59.626939514,verb_norming_L2-eng_oral_translation,001,810,
GRIP,Leg,leg,0,32,32,21,0,1,1,1,2,1.186,,,2018_Sep_17_1327,59.626939514,verb_norming_L2-eng_oral_translation,001,810,
GRIP,,,0,32,32,21,,,,,,,return,4.42808967588,2018_Sep_17_1327,59.626939514,verb_norming_L2-eng_oral_translation,001,810,
JOG,Arm,arm,0,33,33,73,0,0,0,0,1,3.948,,,2018_Sep_17_1327,59.626939514,verb_norming_L2-eng_oral_translation,001,810,
JOG,Leg,leg,0,33,33,73,0,1,1,1,7,0.699,,,2018_Sep_17_1327,59.626939514,verb_norming_L2-eng_oral_translation,001,810,
JOG,,,0,33,33,73,,,,,,,return,1.25834029057,2018_Sep_17_1327,59.626939514,verb_norming_L2-eng_oral_translation,001,810,
SCRUB,Arm,arm,0,34,34,41,0,0,0,0,7,4.907,,,2018_Sep_17_1327,59.626939514,verb_norming_L2-eng_oral_translation,001,810,
SCRUB,Leg,leg,0,34,34,41,0,1,1,1,1,0.666,,,2018_Sep_17_1327,59.626939514,verb_norming_L2-eng_oral_translation,001,810,
SCRUB,,,0,34,34,41,,,,,,,return,1.9625474676,2018_Sep_17_1327,59.626939514,verb_norming_L2-eng_oral_translation,001,810,
HUG,Arm,arm,0,35,35,23,0,0,0,0,7,3.162,,,2018_Sep_17_1327,59.626939514,verb_norming_L2-eng_oral_translation,001,810,
HUG,Leg,leg,0,35,35,23,0,1,1,1,1,0.901,,,2018_Sep_17_1327,59.626939514,verb_norming_L2-eng_oral_translation,001,810,
HUG,,,0,35,35,23,,,,,,,return,0.335920254041,2018_Sep_17_1327,59.626939514,verb_norming_L2-eng_oral_translation,001,810,
SKIM,Arm,arm,0,36,36,45,0,0,0,0,4,2.978,,,2018_Sep_17_1327,59.626939514,verb_norming_L2-eng_oral_translation,001,810,
SKIM,Leg,leg,0,36,36,45,0,1,1,1,4,0.432,,,2018_Sep_17_1327,59.626939514,verb_norming_L2-eng_oral_translation,001,810,
SKIM,,,0,36,36,45,,,,,,,return,0.352643704682,2018_Sep_17_1327,59.626939514,verb_norming_L2-eng_oral_translation,001,810,
CREEP,Arm,arm,0,37,37,61,0,0,0,0,4,6.651,,,2018_Sep_17_1327,59.626939514,verb_norming_L2-eng_oral_translation,001,810,
CREEP,Leg,leg,0,37,37,61,0,1,1,1,4,0.482,,,2018_Sep_17_1327,59.626939514,verb_norming_L2-eng_oral_translation,001,810,
CREEP,,,0,37,37,61,,,,,,,return,0.721661977363,2018_Sep_17_1327,59.626939514,verb_norming_L2-eng_oral_translation,001,810,
PACE,Arm,arm,0,38,38,82,0,0,0,0,3,14.582,,,2018_Sep_17_1327,59.626939514,verb_norming_L2-eng_oral_translation,001,810,
PACE,Leg,leg,0,38,38,82,0,1,1,1,5,1.155,,,2018_Sep_17_1327,59.626939514,verb_norming_L2-eng_oral_translation,001,810,
PACE,,,0,38,38,82,,,,,,,return,3.06961690473,2018_Sep_17_1327,59.626939514,verb_norming_L2-eng_oral_translation,001,810,
CLAP,Arm,arm,0,39,39,7,0,0,0,0,7,4.622,,,2018_Sep_17_1327,59.626939514,verb_norming_L2-eng_oral_translation,001,810,
CLAP,Leg,leg,0,39,39,7,0,1,1,1,1,0.767,,,2018_Sep_17_1327,59.626939514,verb_norming_L2-eng_oral_translation,001,810,
CLAP,,,0,39,39,7,,,,,,,return,0.268833637503,2018_Sep_17_1327,59.626939514,verb_norming_L2-eng_oral_translation,001,810,
GRAB,Arm,arm,0,40,40,18,0,0,0,0,7,2.558,,,2018_Sep_17_1327,59.626939514,verb_norming_L2-eng_oral_translation,001,810,
GRAB,Leg,leg,0,40,40,18,0,1,1,1,1,1.336,,,2018_Sep_17_1327,59.626939514,verb_norming_L2-eng_oral_translation,001,810,
GRAB,,,0,40,40,18,,,,,,,return,2.98554804011,2018_Sep_17_1327,59.626939514,verb_norming_L2-eng_oral_translation,001,810,
LUMBER,Arm,arm,0,41,41,79,0,0,0,0,4,3.464,,,2018_Sep_17_1327,59.626939514,verb_norming_L2-eng_oral_translation,001,810,
LUMBER,Leg,leg,0,41,41,79,0,1,1,1,4,0.414,,,2018_Sep_17_1327,59.626939514,verb_norming_L2-eng_oral_translation,001,810,
LUMBER,,,0,41,41,79,,,,,,,return,0.58754564021,2018_Sep_17_1327,59.626939514,verb_norming_L2-eng_oral_translation,001,810,
STAND,Arm,arm,0,42,42,102,0,0,0,0,1,3.23,,,2018_Sep_17_1327,59.626939514,verb_norming_L2-eng_oral_translation,001,810,
STAND,Leg,leg,0,42,42,102,0,1,1,1,7,0.666,,,2018_Sep_17_1327,59.626939514,verb_norming_L2-eng_oral_translation,001,810,
STAND,,,0,42,42,102,,,,,,,return,1.45943498396,2018_Sep_17_1327,59.626939514,verb_norming_L2-eng_oral_translation,001,810,
CHOP,Arm,arm,0,43,43,6,0,0,0,0,7,3.448,,,2018_Sep_17_1327,59.626939514,verb_norming_L2-eng_oral_translation,001,810,
CHOP,Leg,leg,0,43,43,6,0,1,1,1,1,1.488,,,2018_Sep_17_1327,59.626939514,verb_norming_L2-eng_oral_translation,001,810,
CHOP,,,0,43,43,6,,,,,,,return,6.62498197308,2018_Sep_17_1327,59.626939514,verb_norming_L2-eng_oral_translation,001,810,
SQUEEZE,Arm,arm,0,44,44,48,0,0,0,0,7,3.929,,,2018_Sep_17_1327,59.626939514,verb_norming_L2-eng_oral_translation,001,810,
SQUEEZE,Leg,leg,0,44,44,48,0,1,1,1,3,1.887,,,2018_Sep_17_1327,59.626939514,verb_norming_L2-eng_oral_translation,001,810,
SQUEEZE,,,0,44,44,48,,,,,,,return,12.8135718115,2018_Sep_17_1327,59.626939514,verb_norming_L2-eng_oral_translation,001,810,
STIR,Arm,arm,0,45,45,50,0,0,0,0,7,3.363,,,2018_Sep_17_1327,59.626939514,verb_norming_L2-eng_oral_translation,001,810,
STIR,Leg,leg,0,45,45,50,0,1,1,1,1,0.985,,,2018_Sep_17_1327,59.626939514,verb_norming_L2-eng_oral_translation,001,810,
STIR,,,0,45,45,50,,,,,,,return,1.71115045534,2018_Sep_17_1327,59.626939514,verb_norming_L2-eng_oral_translation,001,810,
SLITHER,Arm,arm,0,46,46,96,0,0,0,0,4,3.413,,,2018_Sep_17_1327,59.626939514,verb_norming_L2-eng_oral_translation,001,810,
SLITHER,Leg,leg,0,46,46,96,0,1,1,1,4,0.48,,,2018_Sep_17_1327,59.626939514,verb_norming_L2-eng_oral_translation,001,810,
SLITHER,,,0,46,46,96,,,,,,,return,1.69418954324,2018_Sep_17_1327,59.626939514,verb_norming_L2-eng_oral_translation,001,810,
PLOD,Arm,arm,0,47,47,84,0,0,0,0,4,15.789,,,2018_Sep_17_1327,59.626939514,verb_norming_L2-eng_oral_translation,001,810,
PLOD,Leg,leg,0,47,47,84,0,1,1,1,4,0.466,,,2018_Sep_17_1327,59.626939514,verb_norming_L2-eng_oral_translation,001,810,
PLOD,,,0,47,47,84,,,,,,,return,2.11357730358,2018_Sep_17_1327,59.626939514,verb_norming_L2-eng_oral_translation,001,810,
LEAP,Arm,arm,0,48,48,77,0,0,0,0,2,6.97,,,2018_Sep_17_1327,59.626939514,verb_norming_L2-eng_oral_translation,001,810,
LEAP,Leg,leg,0,48,48,77,0,1,1,1,6,0.684,,,2018_Sep_17_1327,59.626939514,verb_norming_L2-eng_oral_translation,001,810,
LEAP,,,0,48,48,77,,,,,,,return,4.44485421802,2018_Sep_17_1327,59.626939514,verb_norming_L2-eng_oral_translation,001,810,
PUNCH,Arm,arm,0,49,49,34,0,0,0,0,7,3.615,,,2018_Sep_17_1327,59.626939514,verb_norming_L2-eng_oral_translation,001,810,
PUNCH,Leg,leg,0,49,49,34,0,1,1,1,1,0.851,,,2018_Sep_17_1327,59.626939514,verb_norming_L2-eng_oral_translation,001,810,
PUNCH,,,0,49,49,34,,,,,,,return,2.1135852058,2018_Sep_17_1327,59.626939514,verb_norming_L2-eng_oral_translation,001,810,
PEDAL,Arm,arm,0,50,50,83,0,0,0,0,1,4.337,,,2018_Sep_17_1327,59.626939514,verb_norming_L2-eng_oral_translation,001,810,
PEDAL,Leg,leg,0,50,50,83,0,1,1,1,7,1.136,,,2018_Sep_17_1327,59.626939514,verb_norming_L2-eng_oral_translation,001,810,
PEDAL,,,0,50,50,83,,,,,,,return,6.67533921232,2018_Sep_17_1327,59.626939514,verb_norming_L2-eng_oral_translation,001,810,
STEP,Arm,arm,0,51,51,103,0,0,0,0,1,5.024,,,2018_Sep_17_1327,59.626939514,verb_norming_L2-eng_oral_translation,001,810,
STEP,Leg,leg,0,51,51,103,0,1,1,1,7,1.958,,,2018_Sep_17_1327,59.626939514,verb_norming_L2-eng_oral_translation,001,810,
STEP,,,0,51,51,103,,,,,,,return,5.19930839843,2018_Sep_17_1327,59.626939514,verb_norming_L2-eng_oral_translation,001,810,
SAUNTER,Arm,arm,0,52,52,90,0,0,0,0,4,2.843,,,2018_Sep_17_1327,59.626939514,verb_norming_L2-eng_oral_translation,001,810,
SAUNTER,Leg,leg,0,52,52,90,0,1,1,1,4,0.43,,,2018_Sep_17_1327,59.626939514,verb_norming_L2-eng_oral_translation,001,810,
SAUNTER,,,0,52,52,90,,,,,,,return,0.368643312733,2018_Sep_17_1327,59.626939514,verb_norming_L2-eng_oral_translation,001,810,
PEEL,Arm,arm,0,53,53,28,0,0,0,0,7,4.203,,,2018_Sep_17_1327,59.626939514,verb_norming_L2-eng_oral_translation,001,810,
PEEL,Leg,leg,0,53,53,28,0,1,1,1,1,0.984,,,2018_Sep_17_1327,59.626939514,verb_norming_L2-eng_oral_translation,001,810,
PEEL,,,0,53,53,28,,,,,,,return,0.939327213597,2018_Sep_17_1327,59.626939514,verb_norming_L2-eng_oral_translation,001,810,
FILE,Arm,arm,0,54,54,15,0,0,0,0,5,8.244,,,2018_Sep_17_1327,59.626939514,verb_norming_L2-eng_oral_translation,001,810,
FILE,Leg,leg,0,54,54,15,0,1,1,1,3,1.823,,,2018_Sep_17_1327,59.626939514,verb_norming_L2-eng_oral_translation,001,810,
FILE,,,0,54,54,15,,,,,,,return,2.29812041943,2018_Sep_17_1327,59.626939514,verb_norming_L2-eng_oral_translation,001,810,
HACK,Arm,arm,0,55,55,22,0,0,0,0,6,5.762,,,2018_Sep_17_1327,59.626939514,verb_norming_L2-eng_oral_translation,001,810,
HACK,Leg,leg,0,55,55,22,0,1,1,1,3,0.851,,,2018_Sep_17_1327,59.626939514,verb_norming_L2-eng_oral_translation,001,810,
HACK,,,0,55,55,22,,,,,,,return,3.70683663797,2018_Sep_17_1327,59.626939514,verb_norming_L2-eng_oral_translation,001,810,
DIG,Arm,arm,0,56,56,13,0,0,0,0,7,6.935,,,2018_Sep_17_1327,59.626939514,verb_norming_L2-eng_oral_translation,001,810,
DIG,Leg,leg,0,56,56,13,0,1,1,1,1,0.732,,,2018_Sep_17_1327,59.626939514,verb_norming_L2-eng_oral_translation,001,810,
DIG,,,0,56,56,13,,,,,,,return,1.30830953121,2018_Sep_17_1327,59.626939514,verb_norming_L2-eng_oral_translation,001,810,
STAGGER,Arm,arm,0,57,57,100,0,0,0,0,3,5.826,,,2018_Sep_17_1327,59.626939514,verb_norming_L2-eng_oral_translation,001,810,
STAGGER,Leg,leg,0,57,57,100,0,1,1,1,5,0.999,,,2018_Sep_17_1327,59.626939514,verb_norming_L2-eng_oral_translation,001,810,
STAGGER,,,0,57,57,100,,,,,,,return,2.29804771908,2018_Sep_17_1327,59.626939514,verb_norming_L2-eng_oral_translation,001,810,
GRASP,Arm,arm,0,58,58,19,0,0,0,0,7,4.922,,,2018_Sep_17_1327,59.626939514,verb_norming_L2-eng_oral_translation,001,810,
GRASP,Leg,leg,0,58,58,19,0,1,1,1,1,1.008,,,2018_Sep_17_1327,59.626939514,verb_norming_L2-eng_oral_translation,001,810,
GRASP,,,0,58,58,19,,,,,,,return,8.97304634608,2018_Sep_17_1327,59.626939514,verb_norming_L2-eng_oral_translation,001,810,
STROLL,Arm,arm,0,59,59,108,0,0,0,0,1,4.738,,,2018_Sep_17_1327,59.626939514,verb_norming_L2-eng_oral_translation,001,810,
STROLL,Leg,leg,0,59,59,108,0,1,1,1,7,1.035,,,2018_Sep_17_1327,59.626939514,verb_norming_L2-eng_oral_translation,001,810,
STROLL,,,0,59,59,108,,,,,,,return,7.04413701329,2018_Sep_17_1327,59.626939514,verb_norming_L2-eng_oral_translation,001,810,
SWAY,Arm,arm,0,60,60,111,0,0,0,0,2,4.79,,,2018_Sep_17_1327,59.626939514,verb_norming_L2-eng_oral_translation,001,810,
SWAY,Leg,leg,0,60,60,111,0,1,1,1,6,0.851,,,2018_Sep_17_1327,59.626939514,verb_norming_L2-eng_oral_translation,001,810,
SWAY,,,0,60,60,111,,,,,,,return,0.989922704515,2018_Sep_17_1327,59.626939514,verb_norming_L2-eng_oral_translation,001,810,
SKIP,Arm,arm,0,61,61,93,0,0,0,0,4,8.815,,,2018_Sep_17_1327,59.626939514,verb_norming_L2-eng_oral_translation,001,810,
SKIP,Leg,leg,0,61,61,93,0,1,1,1,4,0.582,,,2018_Sep_17_1327,59.626939514,verb_norming_L2-eng_oral_translation,001,810,
SKIP,,,0,61,61,93,,,,,,,return,1.91218469681,2018_Sep_17_1327,59.626939514,verb_norming_L2-eng_oral_translation,001,810,
SLIP,Arm,arm,0,62,62,95,0,0,0,0,1,5.36,,,2018_Sep_17_1327,59.626939514,verb_norming_L2-eng_oral_translation,001,810,
SLIP,Leg,leg,0,62,62,95,0,1,1,1,7,1.539,,,2018_Sep_17_1327,59.626939514,verb_norming_L2-eng_oral_translation,001,810,
SLIP,,,0,62,62,95,,,,,,,return,4.83053311876,2018_Sep_17_1327,59.626939514,verb_norming_L2-eng_oral_translation,001,810,
TIPTOE,Arm,arm,0,63,63,112,0,0,0,0,1,5.476,,,2018_Sep_17_1327,59.626939514,verb_norming_L2-eng_oral_translation,001,810,
TIPTOE,Leg,leg,0,63,63,112,0,1,1,1,7,1.286,,,2018_Sep_17_1327,59.626939514,verb_norming_L2-eng_oral_translation,001,810,
TIPTOE,,,0,63,63,112,,,,,,,return,1.71218445975,2018_Sep_17_1327,59.626939514,verb_norming_L2-eng_oral_translation,001,810,
SNEAK,Arm,arm,0,64,64,97,0,0,0,0,1,5.443,,,2018_Sep_17_1327,59.626939514,verb_norming_L2-eng_oral_translation,001,810,
SNEAK,Leg,leg,0,64,64,97,0,1,1,1,7,0.633,,,2018_Sep_17_1327,59.626939514,verb_norming_L2-eng_oral_translation,001,810,
SNEAK,,,0,64,64,97,,,,,,,return,1.9626707421,2018_Sep_17_1327,59.626939514,verb_norming_L2-eng_oral_translation,001,810,
CROUCH,Arm,arm,0,65,65,62,0,0,0,0,4,6.565,,,2018_Sep_17_1327,59.626939514,verb_norming_L2-eng_oral_translation,001,810,
CROUCH,Leg,leg,0,65,65,62,0,1,1,1,4,0.414,,,2018_Sep_17_1327,59.626939514,verb_norming_L2-eng_oral_translation,001,810,
CROUCH,,,0,65,65,62,,,,,,,return,0.771887644773,2018_Sep_17_1327,59.626939514,verb_norming_L2-eng_oral_translation,001,810,
SHAMBLE,Arm,arm,0,66,66,91,0,0,0,0,4,2.49,,,2018_Sep_17_1327,59.626939514,verb_norming_L2-eng_oral_translation,001,810,
SHAMBLE,Leg,leg,0,66,66,91,0,1,1,1,4,0.414,,,2018_Sep_17_1327,59.626939514,verb_norming_L2-eng_oral_translation,001,810,
SHAMBLE,,,0,66,66,91,,,,,,,return,0.687879232079,2018_Sep_17_1327,59.626939514,verb_norming_L2-eng_oral_translation,001,810,
PAT,Arm,arm,0,67,67,27,0,0,0,0,7,5.075,,,2018_Sep_17_1327,59.626939514,verb_norming_L2-eng_oral_translation,001,810,
PAT,Leg,leg,0,67,67,27,0,1,1,1,1,0.533,,,2018_Sep_17_1327,59.626939514,verb_norming_L2-eng_oral_translation,001,810,
PAT,,,0,67,67,27,,,,,,,return,1.0905257618,2018_Sep_17_1327,59.626939514,verb_norming_L2-eng_oral_translation,001,810,
DANCE,Arm,arm,0,68,68,64,0,0,0,0,3,4.471,,,2018_Sep_17_1327,59.626939514,verb_norming_L2-eng_oral_translation,001,810,
DANCE,Leg,leg,0,68,68,64,0,1,1,1,7,0.918,,,2018_Sep_17_1327,59.626939514,verb_norming_L2-eng_oral_translation,001,810,
DANCE,,,0,68,68,64,,,,,,,return,0.973031726984,2018_Sep_17_1327,59.626939514,verb_norming_L2-eng_oral_translation,001,810,
TOTTER,Arm,arm,0,69,69,114,0,0,0,0,4,2.457,,,2018_Sep_17_1327,59.626939514,verb_norming_L2-eng_oral_translation,001,810,
TOTTER,Leg,leg,0,69,69,114,0,1,1,1,4,0.482,,,2018_Sep_17_1327,59.626939514,verb_norming_L2-eng_oral_translation,001,810,
TOTTER,,,0,69,69,114,,,,,,,return,0.671119431261,2018_Sep_17_1327,59.626939514,verb_norming_L2-eng_oral_translation,001,810,
TREK,Arm,arm,0,70,70,119,0,0,0,0,4,2.156,,,2018_Sep_17_1327,59.626939514,verb_norming_L2-eng_oral_translation,001,810,
TREK,Leg,leg,0,70,70,119,0,1,1,1,4,0.466,,,2018_Sep_17_1327,59.626939514,verb_norming_L2-eng_oral_translation,001,810,
TREK,,,0,70,70,119,,,,,,,return,0.906011489025,2018_Sep_17_1327,59.626939514,verb_norming_L2-eng_oral_translation,001,810,
WIPE,Arm,arm,0,71,71,58,0,0,0,0,7,3.582,,,2018_Sep_17_1327,59.626939514,verb_norming_L2-eng_oral_translation,001,810,
WIPE,Leg,leg,0,71,71,58,0,1,1,1,1,1.438,,,2018_Sep_17_1327,59.626939514,verb_norming_L2-eng_oral_translation,001,810,
WIPE,,,0,71,71,58,,,,,,,return,1.51096214564,2018_Sep_17_1327,59.626939514,verb_norming_L2-eng_oral_translation,001,810,
KNOCK,Arm,arm,0,72,72,24,0,0,0,0,7,3.582,,,2018_Sep_17_1327,59.626939514,verb_norming_L2-eng_oral_translation,001,810,
KNOCK,Leg,leg,0,72,72,24,0,1,1,1,2,0.75,,,2018_Sep_17_1327,59.626939514,verb_norming_L2-eng_oral_translation,001,810,
KNOCK,,,0,72,72,24,,,,,,,return,1.1910545383,2018_Sep_17_1327,59.626939514,verb_norming_L2-eng_oral_translation,001,810,
GESTURE,Arm,arm,0,73,73,17,0,0,0,0,6,6.145,,,2018_Sep_17_1327,59.626939514,verb_norming_L2-eng_oral_translation,001,810,
GESTURE,Leg,leg,0,73,73,17,0,1,1,1,1,0.966,,,2018_Sep_17_1327,59.626939514,verb_norming_L2-eng_oral_translation,001,810,
GESTURE,,,0,73,73,17,,,,,,,return,0.68804280786,2018_Sep_17_1327,59.626939514,verb_norming_L2-eng_oral_translation,001,810,
TRAMPLE,Arm,arm,0,74,74,117,0,0,0,0,4,2.524,,,2018_Sep_17_1327,59.626939514,verb_norming_L2-eng_oral_translation,001,810,
TRAMPLE,Leg,leg,0,74,74,117,0,1,1,1,4,0.479,,,2018_Sep_17_1327,59.626939514,verb_norming_L2-eng_oral_translation,001,810,
TRAMPLE,,,0,74,74,117,,,,,,,return,0.855788587389,2018_Sep_17_1327,59.626939514,verb_norming_L2-eng_oral_translation,001,810,
CYCLE,Arm,arm,0,75,75,63,0,0,0,0,1,3.498,,,2018_Sep_17_1327,59.626939514,verb_norming_L2-eng_oral_translation,001,810,
CYCLE,Leg,leg,0,75,75,63,0,1,1,1,7,1.203,,,2018_Sep_17_1327,59.626939514,verb_norming_L2-eng_oral_translation,001,810,
CYCLE,,,0,75,75,63,,,,,,,return,1.44272180619,2018_Sep_17_1327,59.626939514,verb_norming_L2-eng_oral_translation,001,810,
TRIP,Arm,arm,0,76,76,120,0,0,0,0,1,4.068,,,2018_Sep_17_1327,59.626939514,verb_norming_L2-eng_oral_translation,001,810,
TRIP,Leg,leg,0,76,76,120,0,1,1,1,7,1.153,,,2018_Sep_17_1327,59.626939514,verb_norming_L2-eng_oral_translation,001,810,
TRIP,,,0,76,76,120,,,,,,,return,1.09048427519,2018_Sep_17_1327,59.626939514,verb_norming_L2-eng_oral_translation,001,810,
HOP,Arm,arm,0,77,77,71,0,0,0,0,1,2.392,,,2018_Sep_17_1327,59.626939514,verb_norming_L2-eng_oral_translation,001,810,
HOP,Leg,leg,0,77,77,71,0,1,1,1,7,0.466,,,2018_Sep_17_1327,59.626939514,verb_norming_L2-eng_oral_translation,001,810,
HOP,,,0,77,77,71,,,,,,,return,1.09054512222,2018_Sep_17_1327,59.626939514,verb_norming_L2-eng_oral_translation,001,810,
MARCH,Arm,arm,0,78,78,80,0,0,0,0,1,2.743,,,2018_Sep_17_1327,59.626939514,verb_norming_L2-eng_oral_translation,001,810,
MARCH,Leg,leg,0,78,78,80,0,1,1,1,7,1.957,,,2018_Sep_17_1327,59.626939514,verb_norming_L2-eng_oral_translation,001,810,
MARCH,,,0,78,78,80,,,,,,,return,2.65014814671,2018_Sep_17_1327,59.626939514,verb_norming_L2-eng_oral_translation,001,810,
FLEE,Arm,arm,0,79,79,66,0,0,0,0,1,3.414,,,2018_Sep_17_1327,59.626939514,verb_norming_L2-eng_oral_translation,001,810,
FLEE,Leg,leg,0,79,79,66,0,1,1,1,7,0.516,,,2018_Sep_17_1327,59.626939514,verb_norming_L2-eng_oral_translation,001,810,
FLEE,,,0,79,79,66,,,,,,,return,1.1911181511,2018_Sep_17_1327,59.626939514,verb_norming_L2-eng_oral_translation,001,810,
POKE,Arm,arm,0,80,80,31,0,0,0,0,7,3.381,,,2018_Sep_17_1327,59.626939514,verb_norming_L2-eng_oral_translation,001,810,
POKE,Leg,leg,0,80,80,31,0,1,1,1,1,1.875,,,2018_Sep_17_1327,59.626939514,verb_norming_L2-eng_oral_translation,001,810,
POKE,,,0,80,80,31,,,,,,,return,2.86833334848,2018_Sep_17_1327,59.626939514,verb_norming_L2-eng_oral_translation,001,810,
TRUDGE,Arm,arm,0,81,81,122,0,0,0,0,4,2.305,,,2018_Sep_17_1327,59.626939514,verb_norming_L2-eng_oral_translation,001,810,
TRUDGE,Leg,leg,0,81,81,122,0,1,1,1,4,0.412,,,2018_Sep_17_1327,59.626939514,verb_norming_L2-eng_oral_translation,001,810,
TRUDGE,,,0,81,81,122,,,,,,,return,0.788391809041,2018_Sep_17_1327,59.626939514,verb_norming_L2-eng_oral_translation,001,810,
PLUCK,Arm,arm,0,82,82,30,0,0,0,0,6,4.957,,,2018_Sep_17_1327,59.626939514,verb_norming_L2-eng_oral_translation,001,810,
PLUCK,Leg,leg,0,82,82,30,0,1,1,1,2,1.304,,,2018_Sep_17_1327,59.626939514,verb_norming_L2-eng_oral_translation,001,810,
PLUCK,,,0,82,82,30,,,,,,,return,1.00665208182,2018_Sep_17_1327,59.626939514,verb_norming_L2-eng_oral_translation,001,810,
DASH,Arm,arm,0,83,83,65,0,0,0,0,7,6.651,,,2018_Sep_17_1327,59.626939514,verb_norming_L2-eng_oral_translation,001,810,
DASH,Leg,leg,0,83,83,65,0,1,1,1,2,0.85,,,2018_Sep_17_1327,59.626939514,verb_norming_L2-eng_oral_translation,001,810,
DASH,,,0,83,83,65,,,,,,,return,4.54538576029,2018_Sep_17_1327,59.626939514,verb_norming_L2-eng_oral_translation,001,810,
BASH,Arm,arm,0,84,84,0,0,0,0,0,4,3.9,,,2018_Sep_17_1327,59.626939514,verb_norming_L2-eng_oral_translation,001,810,
BASH,Leg,leg,0,84,84,0,0,1,1,1,4,0.432,,,2018_Sep_17_1327,59.626939514,verb_norming_L2-eng_oral_translation,001,810,
BASH,,,0,84,84,0,,,,,,,return,0.419731506554,2018_Sep_17_1327,59.626939514,verb_norming_L2-eng_oral_translation,001,810,
SWITCH,Arm,arm,0,85,85,51,0,0,0,0,4,5.963,,,2018_Sep_17_1327,59.626939514,verb_norming_L2-eng_oral_translation,001,810,
SWITCH,Leg,leg,0,85,85,51,0,1,1,1,4,0.498,,,2018_Sep_17_1327,59.626939514,verb_norming_L2-eng_oral_translation,001,810,
SWITCH,,,0,85,85,51,,,,,,,return,4.83033832924,2018_Sep_17_1327,59.626939514,verb_norming_L2-eng_oral_translation,001,810,
WASH,Arm,arm,0,86,86,56,0,0,0,0,7,2.76,,,2018_Sep_17_1327,59.626939514,verb_norming_L2-eng_oral_translation,001,810,
WASH,Leg,leg,0,86,86,56,0,1,1,1,1,0.583,,,2018_Sep_17_1327,59.626939514,verb_norming_L2-eng_oral_translation,001,810,
WASH,,,0,86,86,56,,,,,,,return,0.486815752427,2018_Sep_17_1327,59.626939514,verb_norming_L2-eng_oral_translation,001,810,
SLAP,Arm,arm,0,87,87,46,0,0,0,0,7,2.375,,,2018_Sep_17_1327,59.626939514,verb_norming_L2-eng_oral_translation,001,810,
SLAP,Leg,leg,0,87,87,46,0,1,1,1,1,0.633,,,2018_Sep_17_1327,59.626939514,verb_norming_L2-eng_oral_translation,001,810,
SLAP,,,0,87,87,46,,,,,,,return,1.09040920418,2018_Sep_17_1327,59.626939514,verb_norming_L2-eng_oral_translation,001,810,
GRATE,Arm,arm,0,88,88,20,0,0,0,0,4,5.677,,,2018_Sep_17_1327,59.626939514,verb_norming_L2-eng_oral_translation,001,810,
GRATE,Leg,leg,0,88,88,20,0,1,1,1,4,0.933,,,2018_Sep_17_1327,59.626939514,verb_norming_L2-eng_oral_translation,001,810,
GRATE,,,0,88,88,20,,,,,,,return,0.45325426907,2018_Sep_17_1327,59.626939514,verb_norming_L2-eng_oral_translation,001,810,
RUB,Arm,arm,0,89,89,37,0,0,0,0,7,5.712,,,2018_Sep_17_1327,59.626939514,verb_norming_L2-eng_oral_translation,001,810,
RUB,Leg,leg,0,89,89,37,0,1,1,1,3,2.227,,,2018_Sep_17_1327,59.626939514,verb_norming_L2-eng_oral_translation,001,810,
RUB,,,0,89,89,37,,,,,,,return,0.788895179927,2018_Sep_17_1327,59.626939514,verb_norming_L2-eng_oral_translation,001,810,
HIKE,Arm,arm,0,90,90,69,0,0,0,0,4,4.303,,,2018_Sep_17_1327,59.626939514,verb_norming_L2-eng_oral_translation,001,810,
HIKE,Leg,leg,0,90,90,69,0,1,1,1,4,0.566,,,2018_Sep_17_1327,59.626939514,verb_norming_L2-eng_oral_translation,001,810,
HIKE,,,0,90,90,69,,,,,,,return,10.1635888211,2018_Sep_17_1327,59.626939514,verb_norming_L2-eng_oral_translation,001,810,
STAB,Arm,arm,0,91,91,49,0,0,0,0,7,3.398,,,2018_Sep_17_1327,59.626939514,verb_norming_L2-eng_oral_translation,001,810,
STAB,Leg,leg,0,91,91,49,0,1,1,1,1,0.616,,,2018_Sep_17_1327,59.626939514,verb_norming_L2-eng_oral_translation,001,810,
STAB,,,0,91,91,49,,,,,,,return,0.704690792383,2018_Sep_17_1327,59.626939514,verb_norming_L2-eng_oral_translation,001,810,
POLISH,Arm,arm,0,92,92,32,0,0,0,0,7,3.296,,,2018_Sep_17_1327,59.626939514,verb_norming_L2-eng_oral_translation,001,810,
POLISH,Leg,leg,0,92,92,32,0,1,1,1,1,0.515,,,2018_Sep_17_1327,59.626939514,verb_norming_L2-eng_oral_translation,001,810,
POLISH,,,0,92,92,32,,,,,,,return,0.78847794315,2018_Sep_17_1327,59.626939514,verb_norming_L2-eng_oral_translation,001,810,
WADDLE,Arm,arm,0,93,93,123,0,0,0,0,1,2.625,,,2018_Sep_17_1327,59.626939514,verb_norming_L2-eng_oral_translation,001,810,
WADDLE,Leg,leg,0,93,93,123,0,1,1,1,7,1.32,,,2018_Sep_17_1327,59.626939514,verb_norming_L2-eng_oral_translation,001,810,
WADDLE,,,0,93,93,123,,,,,,,return,0.285486758463,2018_Sep_17_1327,59.626939514,verb_norming_L2-eng_oral_translation,001,810,
DUNK,Arm,arm,0,94,94,14,0,0,0,0,7,2.979,,,2018_Sep_17_1327,59.626939514,verb_norming_L2-eng_oral_translation,001,810,
DUNK,Leg,leg,0,94,94,14,0,1,1,1,1,0.717,,,2018_Sep_17_1327,59.626939514,verb_norming_L2-eng_oral_translation,001,810,
DUNK,,,0,94,94,14,,,,,,,return,0.386172788971,2018_Sep_17_1327,59.626939514,verb_norming_L2-eng_oral_translation,001,810,
WHIP,Arm,arm,0,95,95,57,0,0,0,0,6,3.817,,,2018_Sep_17_1327,59.626939514,verb_norming_L2-eng_oral_translation,001,810,
WHIP,Leg,leg,0,95,95,57,0,1,1,1,1,0.985,,,2018_Sep_17_1327,59.626939514,verb_norming_L2-eng_oral_translation,001,810,
WHIP,,,0,95,95,57,,,,,,,return,1.24122686578,2018_Sep_17_1327,59.626939514,verb_norming_L2-eng_oral_translation,001,810,
SHAKE,Arm,arm,0,96,96,43,0,0,0,0,7,2.76,,,2018_Sep_17_1327,59.626939514,verb_norming_L2-eng_oral_translation,001,810,
SHAKE,Leg,leg,0,96,96,43,0,1,1,1,1,0.498,,,2018_Sep_17_1327,59.626939514,verb_norming_L2-eng_oral_translation,001,810,
SHAKE,,,0,96,96,43,,,,,,,return,0.503570021696,2018_Sep_17_1327,59.626939514,verb_norming_L2-eng_oral_translation,001,810,
SPRINT,Arm,arm,0,97,97,98,0,0,0,0,1,3.698,,,2018_Sep_17_1327,59.626939514,verb_norming_L2-eng_oral_translation,001,810,
SPRINT,Leg,leg,0,97,97,98,0,1,1,1,7,0.448,,,2018_Sep_17_1327,59.626939514,verb_norming_L2-eng_oral_translation,001,810,
SPRINT,,,0,97,97,98,,,,,,,return,3.06946715781,2018_Sep_17_1327,59.626939514,verb_norming_L2-eng_oral_translation,001,810,
JUMP,Arm,arm,0,98,98,74,0,0,0,0,1,3.329,,,2018_Sep_17_1327,59.626939514,verb_norming_L2-eng_oral_translation,001,810,
JUMP,Leg,leg,0,98,98,74,0,1,1,1,7,0.43,,,2018_Sep_17_1327,59.626939514,verb_norming_L2-eng_oral_translation,001,810,
JUMP,,,0,98,98,74,,,,,,,return,0.922728222789,2018_Sep_17_1327,59.626939514,verb_norming_L2-eng_oral_translation,001,810,
CLICK,Arm,arm,0,99,99,10,0,0,0,0,7,4.135,,,2018_Sep_17_1327,59.626939514,verb_norming_L2-eng_oral_translation,001,810,
CLICK,Leg,leg,0,99,99,10,0,1,1,1,1,1.287,,,2018_Sep_17_1327,59.626939514,verb_norming_L2-eng_oral_translation,001,810,
CLICK,,,0,99,99,10,,,,,,,return,1.52653029293,2018_Sep_17_1327,59.626939514,verb_norming_L2-eng_oral_translation,001,810,
BRAID,Arm,arm,0,100,100,2,0,0,0,0,4,2.559,,,2018_Sep_17_1327,59.626939514,verb_norming_L2-eng_oral_translation,001,810,
BRAID,Leg,leg,0,100,100,2,0,1,1,1,4,0.415,,,2018_Sep_17_1327,59.626939514,verb_norming_L2-eng_oral_translation,001,810,
BRAID,,,0,100,100,2,,,,,,,return,1.09044832013,2018_Sep_17_1327,59.626939514,verb_norming_L2-eng_oral_translation,001,810,
STRAY,Arm,arm,0,101,101,106,0,0,0,0,4,2.341,,,2018_Sep_17_1327,59.626939514,verb_norming_L2-eng_oral_translation,001,810,
STRAY,Leg,leg,0,101,101,106,0,1,1,1,4,1.169,,,2018_Sep_17_1327,59.626939514,verb_norming_L2-eng_oral_translation,001,810,
STRAY,,,0,101,101,106,,,,,,,return,0.570666515998,2018_Sep_17_1327,59.626939514,verb_norming_L2-eng_oral_translation,001,810,
SNATCH,Arm,arm,0,102,102,47,0,0,0,0,7,2.64,,,2018_Sep_17_1327,59.626939514,verb_norming_L2-eng_oral_translation,001,810,
SNATCH,Leg,leg,0,102,102,47,0,1,1,1,2,1.152,,,2018_Sep_17_1327,59.626939514,verb_norming_L2-eng_oral_translation,001,810,
SNATCH,,,0,102,102,47,,,,,,,return,7.21195035673,2018_Sep_17_1327,59.626939514,verb_norming_L2-eng_oral_translation,001,810,
SCRATCH,Arm,arm,0,103,103,40,0,0,0,0,7,4.637,,,2018_Sep_17_1327,59.626939514,verb_norming_L2-eng_oral_translation,001,810,
SCRATCH,Leg,leg,0,103,103,40,0,1,1,1,2,2.207,,,2018_Sep_17_1327,59.626939514,verb_norming_L2-eng_oral_translation,001,810,
SCRATCH,,,0,103,103,40,,,,,,,return,0.855510429536,2018_Sep_17_1327,59.626939514,verb_norming_L2-eng_oral_translation,001,810,
TRAMP,Arm,arm,0,104,104,116,0,0,0,0,4,3.665,,,2018_Sep_17_1327,59.626939514,verb_norming_L2-eng_oral_translation,001,810,
TRAMP,Leg,leg,0,104,104,116,0,1,1,1,4,0.85,,,2018_Sep_17_1327,59.626939514,verb_norming_L2-eng_oral_translation,001,810,
TRAMP,,,0,104,104,116,,,,,,,return,0.436357759991,2018_Sep_17_1327,59.626939514,verb_norming_L2-eng_oral_translation,001,810,
GLIDE,Arm,arm,0,105,105,67,0,0,0,0,1,7.069,,,2018_Sep_17_1327,59.626939514,verb_norming_L2-eng_oral_translation,001,810,
GLIDE,Leg,leg,0,105,105,67,0,1,1,1,7,1.805,,,2018_Sep_17_1327,59.626939514,verb_norming_L2-eng_oral_translation,001,810,
GLIDE,,,0,105,105,67,,,,,,,return,1.09036416157,2018_Sep_17_1327,59.626939514,verb_norming_L2-eng_oral_translation,001,810,
STAMP,Arm,arm,0,106,106,101,0,0,0,0,1,9.25,,,2018_Sep_17_1327,59.626939514,verb_norming_L2-eng_oral_translation,001,810,
STAMP,Leg,leg,0,106,106,101,0,1,1,1,6,0.582,,,2018_Sep_17_1327,59.626939514,verb_norming_L2-eng_oral_translation,001,810,
STAMP,,,0,106,106,101,,,,,,,return,2.76764810819,2018_Sep_17_1327,59.626939514,verb_norming_L2-eng_oral_translation,001,810,
NIP,Arm,arm,0,107,107,26,0,0,0,0,4,2.71,,,2018_Sep_17_1327,59.626939514,verb_norming_L2-eng_oral_translation,001,810,
NIP,Leg,leg,0,107,107,26,0,1,1,1,4,0.868,,,2018_Sep_17_1327,59.626939514,verb_norming_L2-eng_oral_translation,001,810,
NIP,,,0,107,107,26,,,,,,,return,0.822247649785,2018_Sep_17_1327,59.626939514,verb_norming_L2-eng_oral_translation,001,810,
RUN,Arm,arm,0,108,108,88,0,0,0,0,1,2.476,,,2018_Sep_17_1327,59.626939514,verb_norming_L2-eng_oral_translation,001,810,
RUN,Leg,leg,0,108,108,88,0,1,1,1,7,0.801,,,2018_Sep_17_1327,59.626939514,verb_norming_L2-eng_oral_translation,001,810,
RUN,,,0,108,108,88,,,,,,,return,1.0904360717,2018_Sep_17_1327,59.626939514,verb_norming_L2-eng_oral_translation,001,810,
PINCH,Arm,arm,0,109,109,29,0,0,0,0,7,3.347,,,2018_Sep_17_1327,59.626939514,verb_norming_L2-eng_oral_translation,001,810,
PINCH,Leg,leg,0,109,109,29,0,1,1,1,1,0.951,,,2018_Sep_17_1327,59.626939514,verb_norming_L2-eng_oral_translation,001,810,
PINCH,,,0,109,109,29,,,,,,,return,1.96276359309,2018_Sep_17_1327,59.626939514,verb_norming_L2-eng_oral_translation,001,810,
RUSH,Arm,arm,0,110,110,89,0,0,0,0,1,4.002,,,2018_Sep_17_1327,59.626939514,verb_norming_L2-eng_oral_translation,001,810,
RUSH,Leg,leg,0,110,110,89,0,1,1,1,7,0.918,,,2018_Sep_17_1327,59.626939514,verb_norming_L2-eng_oral_translation,001,810,
RUSH,,,0,110,110,89,,,,,,,return,1.19111024889,2018_Sep_17_1327,59.626939514,verb_norming_L2-eng_oral_translation,001,810,
SLIDE,Arm,arm,0,111,111,94,0,0,0,0,1,8.344,,,2018_Sep_17_1327,59.626939514,verb_norming_L2-eng_oral_translation,001,810,
SLIDE,Leg,leg,0,111,111,94,0,1,1,1,7,0.832,,,2018_Sep_17_1327,59.626939514,verb_norming_L2-eng_oral_translation,001,810,
SLIDE,,,0,111,111,94,,,,,,,return,1.9123297024,2018_Sep_17_1327,59.626939514,verb_norming_L2-eng_oral_translation,001,810,
SEIZE,Arm,arm,0,112,112,42,0,0,0,0,4,5.877,,,2018_Sep_17_1327,59.626939514,verb_norming_L2-eng_oral_translation,001,810,
SEIZE,Leg,leg,0,112,112,42,0,1,1,1,4,0.447,,,2018_Sep_17_1327,59.626939514,verb_norming_L2-eng_oral_translation,001,810,
SEIZE,,,0,112,112,42,,,,,,,return,0.537066706916,2018_Sep_17_1327,59.626939514,verb_norming_L2-eng_oral_translation,001,810,
SCOOP,Arm,arm,0,113,113,38,0,0,0,0,4,2.978,,,2018_Sep_17_1327,59.626939514,verb_norming_L2-eng_oral_translation,001,810,
SCOOP,Leg,leg,0,113,113,38,0,1,1,1,4,0.415,,,2018_Sep_17_1327,59.626939514,verb_norming_L2-eng_oral_translation,001,810,
SCOOP,,,0,113,113,38,,,,,,,return,0.989188589048,2018_Sep_17_1327,59.626939514,verb_norming_L2-eng_oral_translation,001,810,
CUT,Arm,arm,0,114,114,12,0,0,0,0,7,2.778,,,2018_Sep_17_1327,59.626939514,verb_norming_L2-eng_oral_translation,001,810,
CUT,Leg,leg,0,114,114,12,0,1,1,1,1,0.634,,,2018_Sep_17_1327,59.626939514,verb_norming_L2-eng_oral_translation,001,810,
CUT,,,0,114,114,12,,,,,,,return,0.252006272774,2018_Sep_17_1327,59.626939514,verb_norming_L2-eng_oral_translation,001,810,
WADE,Arm,arm,0,115,115,124,0,0,0,0,4,3.665,,,2018_Sep_17_1327,59.626939514,verb_norming_L2-eng_oral_translation,001,810,
WADE,Leg,leg,0,115,115,124,0,1,1,1,4,0.935,,,2018_Sep_17_1327,59.626939514,verb_norming_L2-eng_oral_translation,001,810,
WADE,,,0,115,115,124,,,,,,,return,0.0505516336434,2018_Sep_17_1327,59.626939514,verb_norming_L2-eng_oral_translation,001,810,
LIMP,Arm,arm,0,116,116,78,0,0,0,0,2,6.248,,,2018_Sep_17_1327,59.626939514,verb_norming_L2-eng_oral_translation,001,810,
LIMP,Leg,leg,0,116,116,78,0,1,1,1,4,1.589,,,2018_Sep_17_1327,59.626939514,verb_norming_L2-eng_oral_translation,001,810,
LIMP,,,0,116,116,78,,,,,,,return,1.27503924436,2018_Sep_17_1327,59.626939514,verb_norming_L2-eng_oral_translation,001,810,
CLUTCH,Arm,arm,0,117,117,11,0,0,0,0,4,2.608,,,2018_Sep_17_1327,59.626939514,verb_norming_L2-eng_oral_translation,001,810,
CLUTCH,Leg,leg,0,117,117,11,0,1,1,1,4,0.481,,,2018_Sep_17_1327,59.626939514,verb_norming_L2-eng_oral_translation,001,810,
CLUTCH,,,0,117,117,11,,,,,,,return,0.97316329881,2018_Sep_17_1327,59.626939514,verb_norming_L2-eng_oral_translation,001,810,
THROW,Arm,arm,0,118,118,52,0,0,0,0,7,2.156,,,2018_Sep_17_1327,59.626939514,verb_norming_L2-eng_oral_translation,001,810,
THROW,Leg,leg,0,118,118,52,0,1,1,1,1,0.951,,,2018_Sep_17_1327,59.626939514,verb_norming_L2-eng_oral_translation,001,810,
THROW,,,0,118,118,52,,,,,,,return,0.805291083896,2018_Sep_17_1327,59.626939514,verb_norming_L2-eng_oral_translation,001,810,
WOBBLE,Arm,arm,0,119,119,127,0,0,0,0,4,2.91,,,2018_Sep_17_1327,59.626939514,verb_norming_L2-eng_oral_translation,001,810,
WOBBLE,Leg,leg,0,119,119,127,0,1,1,1,4,0.431,,,2018_Sep_17_1327,59.626939514,verb_norming_L2-eng_oral_translation,001,810,
WOBBLE,,,0,119,119,127,,,,,,,return,0.87234925247,2018_Sep_17_1327,59.626939514,verb_norming_L2-eng_oral_translation,001,810,
TREAD,Arm,arm,0,120,120,118,0,0,0,0,6,5.846,,,2018_Sep_17_1327,59.626939514,verb_norming_L2-eng_oral_translation,001,810,
TREAD,Leg,leg,0,120,120,118,0,1,1,1,2,1.134,,,2018_Sep_17_1327,59.626939514,verb_norming_L2-eng_oral_translation,001,810,
TREAD,,,0,120,120,118,,,,,,,return,0.537132295272,2018_Sep_17_1327,59.626939514,verb_norming_L2-eng_oral_translation,001,810,
TUG,Arm,arm,0,121,121,54,0,0,0,0,4,7.003,,,2018_Sep_17_1327,59.626939514,verb_norming_L2-eng_oral_translation,001,810,
TUG,Leg,leg,0,121,121,54,0,1,1,1,4,0.582,,,2018_Sep_17_1327,59.626939514,verb_norming_L2-eng_oral_translation,001,810,
TUG,,,0,121,121,54,,,,,,,return,0.822084864221,2018_Sep_17_1327,59.626939514,verb_norming_L2-eng_oral_translation,001,810,
PULL,Arm,arm,0,122,122,33,0,0,0,0,7,4.202,,,2018_Sep_17_1327,59.626939514,verb_norming_L2-eng_oral_translation,001,810,
PULL,Leg,leg,0,122,122,33,0,1,1,1,1,0.633,,,2018_Sep_17_1327,59.626939514,verb_norming_L2-eng_oral_translation,001,810,
PULL,,,0,122,122,33,,,,,,,return,0.956197250267,2018_Sep_17_1327,59.626939514,verb_norming_L2-eng_oral_translation,001,810,
ROW,Arm,arm,0,123,123,36,0,0,0,0,7,4.723,,,2018_Sep_17_1327,59.626939514,verb_norming_L2-eng_oral_translation,001,810,
ROW,Leg,leg,0,123,123,36,0,1,1,1,1,0.533,,,2018_Sep_17_1327,59.626939514,verb_norming_L2-eng_oral_translation,001,810,
ROW,,,0,123,123,36,,,,,,,return,1.04025979311,2018_Sep_17_1327,59.626939514,verb_norming_L2-eng_oral_translation,001,810,
WRAP,Arm,arm,0,124,124,59,0,0,0,0,7,3.833,,,2018_Sep_17_1327,59.626939514,verb_norming_L2-eng_oral_translation,001,810,
WRAP,Leg,leg,0,124,124,59,0,1,1,1,1,0.465,,,2018_Sep_17_1327,59.626939514,verb_norming_L2-eng_oral_translation,001,810,
WRAP,,,0,124,124,59,,,,,,,return,1.05697929265,2018_Sep_17_1327,59.626939514,verb_norming_L2-eng_oral_translation,001,810,
TRAIPSE,Arm,arm,0,125,125,115,0,0,0,0,4,3.396,,,2018_Sep_17_1327,59.626939514,verb_norming_L2-eng_oral_translation,001,810,
TRAIPSE,Leg,leg,0,125,125,115,0,1,1,1,4,0.414,,,2018_Sep_17_1327,59.626939514,verb_norming_L2-eng_oral_translation,001,810,
TRAIPSE,,,0,125,125,115,,,,,,,return,0.889330315214,2018_Sep_17_1327,59.626939514,verb_norming_L2-eng_oral_translation,001,810,
GROVEL,Arm,arm,0,126,126,68,0,0,0,0,5,4.552,,,2018_Sep_17_1327,59.626939514,verb_norming_L2-eng_oral_translation,001,810,
GROVEL,Leg,leg,0,126,126,68,0,1,1,1,2,1.034,,,2018_Sep_17_1327,59.626939514,verb_norming_L2-eng_oral_translation,001,810,
GROVEL,,,0,126,126,68,,,,,,,return,0.402949974652,2018_Sep_17_1327,59.626939514,verb_norming_L2-eng_oral_translation,001,810,
WANDER,Arm,arm,0,127,127,126,0,0,0,0,1,3.932,,,2018_Sep_17_1327,59.626939514,verb_norming_L2-eng_oral_translation,001,810,
WANDER,Leg,leg,0,127,127,126,0,1,1,1,7,0.867,,,2018_Sep_17_1327,59.626939514,verb_norming_L2-eng_oral_translation,001,810,
WANDER,,,0,127,127,126,,,,,,,return,0.637708880149,2018_Sep_17_1327,59.626939514,verb_norming_L2-eng_oral_translation,001,810,
