word,category,category_lowercase,trials.thisRepN,trials.thisTrialN,trials.thisN,trials.thisIndex,armleg_loop.thisRepN,armleg_loop.thisTrialN,armleg_loop.thisN,armleg_loop.thisIndex,rating.response,rating.rt,key_resp_8.keys,key_resp_8.rt,date,frameRate,expName,session,participant,
SKRAPA,Arm,arm,0,0,0,74,0,0,0,0,7,10.374,,,2018_Sep_17_1307,59.604050633,verb_norming_L1-swe_no_translation,001,810,
SKRAPA,Ben,ben,0,0,0,74,0,1,1,1,3,7.222,,,2018_Sep_17_1307,59.604050633,verb_norming_L1-swe_no_translation,001,810,
SKRAPA,,,0,0,0,74,,,,,,,,,2018_Sep_17_1307,59.604050633,verb_norming_L1-swe_no_translation,001,810,
JOGGA,Arm,arm,0,1,1,114,0,0,0,0,1,4.82,,,2018_Sep_17_1307,59.604050633,verb_norming_L1-swe_no_translation,001,810,
JOGGA,Ben,ben,0,1,1,114,0,1,1,1,7,5.077,,,2018_Sep_17_1307,59.604050633,verb_norming_L1-swe_no_translation,001,810,
JOGGA,,,0,1,1,114,,,,,,,,,2018_Sep_17_1307,59.604050633,verb_norming_L1-swe_no_translation,001,810,
RAFSA,Arm,arm,0,2,2,58,0,0,0,0,6,5.946,,,2018_Sep_17_1307,59.604050633,verb_norming_L1-swe_no_translation,001,810,
RAFSA,Ben,ben,0,2,2,58,0,1,1,1,2,3.584,,,2018_Sep_17_1307,59.604050633,verb_norming_L1-swe_no_translation,001,810,
RAFSA,,,0,2,2,58,,,,,,,,,2018_Sep_17_1307,59.604050633,verb_norming_L1-swe_no_translation,001,810,
SLÅ,Arm,arm,0,3,3,79,0,0,0,0,7,3.864,,,2018_Sep_17_1307,59.604050633,verb_norming_L1-swe_no_translation,001,810,
SLÅ,Ben,ben,0,3,3,79,0,1,1,1,1,2.596,,,2018_Sep_17_1307,59.604050633,verb_norming_L1-swe_no_translation,001,810,
SLÅ,,,0,3,3,79,,,,,,,,,2018_Sep_17_1307,59.604050633,verb_norming_L1-swe_no_translation,001,810,
FILA,Arm,arm,0,4,4,10,0,0,0,0,7,5.36,,,2018_Sep_17_1307,59.604050633,verb_norming_L1-swe_no_translation,001,810,
FILA,Ben,ben,0,4,4,10,0,1,1,1,1,1.556,,,2018_Sep_17_1307,59.604050633,verb_norming_L1-swe_no_translation,001,810,
FILA,,,0,4,4,10,,,,,,,,,2018_Sep_17_1307,59.604050633,verb_norming_L1-swe_no_translation,001,810,
TRYCKA,Arm,arm,0,5,5,95,0,0,0,0,6,5.037,,,2018_Sep_17_1307,59.604050633,verb_norming_L1-swe_no_translation,001,810,
TRYCKA,Ben,ben,0,5,5,95,0,1,1,1,2,1.756,,,2018_Sep_17_1307,59.604050633,verb_norming_L1-swe_no_translation,001,810,
TRYCKA,,,0,5,5,95,,,,,,,,,2018_Sep_17_1307,59.604050633,verb_norming_L1-swe_no_translation,001,810,
BINDA,Arm,arm,0,6,6,2,0,0,0,0,7,3.565,,,2018_Sep_17_1307,59.604050633,verb_norming_L1-swe_no_translation,001,810,
BINDA,Ben,ben,0,6,6,2,0,1,1,1,1,2.528,,,2018_Sep_17_1307,59.604050633,verb_norming_L1-swe_no_translation,001,810,
BINDA,,,0,6,6,2,,,,,,,,,2018_Sep_17_1307,59.604050633,verb_norming_L1-swe_no_translation,001,810,
FLANERA,Arm,arm,0,7,7,104,0,0,0,0,6,7.567,,,2018_Sep_17_1307,59.604050633,verb_norming_L1-swe_no_translation,001,810,
FLANERA,Ben,ben,0,7,7,104,0,1,1,1,2,1.518,,,2018_Sep_17_1307,59.604050633,verb_norming_L1-swe_no_translation,001,810,
FLANERA,,,0,7,7,104,,,,,,,,,2018_Sep_17_1307,59.604050633,verb_norming_L1-swe_no_translation,001,810,
KLIVA,Arm,arm,0,8,8,117,0,0,0,0,1,3.33,,,2018_Sep_17_1307,59.604050633,verb_norming_L1-swe_no_translation,001,810,
KLIVA,Ben,ben,0,8,8,117,0,1,1,1,7,2.394,,,2018_Sep_17_1307,59.604050633,verb_norming_L1-swe_no_translation,001,810,
KLIVA,,,0,8,8,117,,,,,,,,,2018_Sep_17_1307,59.604050633,verb_norming_L1-swe_no_translation,001,810,
SLEVA,Arm,arm,0,9,9,80,0,0,0,0,6,11.243,,,2018_Sep_17_1307,59.604050633,verb_norming_L1-swe_no_translation,001,810,
SLEVA,Ben,ben,0,9,9,80,0,1,1,1,2,1.956,,,2018_Sep_17_1307,59.604050633,verb_norming_L1-swe_no_translation,001,810,
SLEVA,,,0,9,9,80,,,,,,,,,2018_Sep_17_1307,59.604050633,verb_norming_L1-swe_no_translation,001,810,
DANSA,Arm,arm,0,10,10,102,0,0,0,0,4,9.401,,,2018_Sep_17_1307,59.604050633,verb_norming_L1-swe_no_translation,001,810,
DANSA,Ben,ben,0,10,10,102,0,1,1,1,6,5.647,,,2018_Sep_17_1307,59.604050633,verb_norming_L1-swe_no_translation,001,810,
DANSA,,,0,10,10,102,,,,,,,,,2018_Sep_17_1307,59.604050633,verb_norming_L1-swe_no_translation,001,810,
ÅLA,Arm,arm,0,11,11,100,0,0,0,0,5,7.121,,,2018_Sep_17_1307,59.604050633,verb_norming_L1-swe_no_translation,001,810,
ÅLA,Ben,ben,0,11,11,100,0,1,1,1,5,4.24,,,2018_Sep_17_1307,59.604050633,verb_norming_L1-swe_no_translation,001,810,
ÅLA,,,0,11,11,100,,,,,,,,,2018_Sep_17_1307,59.604050633,verb_norming_L1-swe_no_translation,001,810,
TÅGA,Arm,arm,0,12,12,158,0,0,0,0,1,5.427,,,2018_Sep_17_1307,59.604050633,verb_norming_L1-swe_no_translation,001,810,
TÅGA,Ben,ben,0,12,12,158,0,1,1,1,6,1.639,,,2018_Sep_17_1307,59.604050633,verb_norming_L1-swe_no_translation,001,810,
TÅGA,,,0,12,12,158,,,,,,,,,2018_Sep_17_1307,59.604050633,verb_norming_L1-swe_no_translation,001,810,
RAGLA,Arm,arm,0,13,13,130,0,0,0,0,4,15.12,,,2018_Sep_17_1307,59.604050633,verb_norming_L1-swe_no_translation,001,810,
RAGLA,Ben,ben,0,13,13,130,0,1,1,1,4,0.75,,,2018_Sep_17_1307,59.604050633,verb_norming_L1-swe_no_translation,001,810,
RAGLA,,,0,13,13,130,,,,,,,,,2018_Sep_17_1307,59.604050633,verb_norming_L1-swe_no_translation,001,810,
PILLA,Arm,arm,0,14,14,51,0,0,0,0,7,4.538,,,2018_Sep_17_1307,59.604050633,verb_norming_L1-swe_no_translation,001,810,
PILLA,Ben,ben,0,14,14,51,0,1,1,1,1,4.624,,,2018_Sep_17_1307,59.604050633,verb_norming_L1-swe_no_translation,001,810,
PILLA,,,0,14,14,51,,,,,,,,,2018_Sep_17_1307,59.604050633,verb_norming_L1-swe_no_translation,001,810,
RUSA,Arm,arm,0,15,15,134,0,0,0,0,1,4.266,,,2018_Sep_17_1307,59.604050633,verb_norming_L1-swe_no_translation,001,810,
RUSA,Ben,ben,0,15,15,134,0,1,1,1,7,4.522,,,2018_Sep_17_1307,59.604050633,verb_norming_L1-swe_no_translation,001,810,
RUSA,,,0,15,15,134,,,,,,,,,2018_Sep_17_1307,59.604050633,verb_norming_L1-swe_no_translation,001,810,
STAPPLA,Arm,arm,0,16,16,149,0,0,0,0,7,3.899,,,2018_Sep_17_1307,59.604050633,verb_norming_L1-swe_no_translation,001,810,
STAPPLA,Ben,ben,0,16,16,149,0,1,1,1,1,1.772,,,2018_Sep_17_1307,59.604050633,verb_norming_L1-swe_no_translation,001,810,
STAPPLA,,,0,16,16,149,,,,,,,,,2018_Sep_17_1307,59.604050633,verb_norming_L1-swe_no_translation,001,810,
STUDSA,Arm,arm,0,17,17,155,0,0,0,0,6,6.532,,,2018_Sep_17_1307,59.604050633,verb_norming_L1-swe_no_translation,001,810,
STUDSA,Ben,ben,0,17,17,155,0,1,1,1,2,0.715,,,2018_Sep_17_1307,59.604050633,verb_norming_L1-swe_no_translation,001,810,
STUDSA,,,0,17,17,155,,,,,,,,,2018_Sep_17_1307,59.604050633,verb_norming_L1-swe_no_translation,001,810,
ILA,Arm,arm,0,18,18,112,0,0,0,0,1,7.507,,,2018_Sep_17_1307,59.604050633,verb_norming_L1-swe_no_translation,001,810,
ILA,Ben,ben,0,18,18,112,0,1,1,1,1,0.852,,,2018_Sep_17_1307,59.604050633,verb_norming_L1-swe_no_translation,001,810,
ILA,,,0,18,18,112,,,,,,,,,2018_Sep_17_1307,59.604050633,verb_norming_L1-swe_no_translation,001,810,
KRYPA,Arm,arm,0,19,19,123,0,0,0,0,3,7.691,,,2018_Sep_17_1307,59.604050633,verb_norming_L1-swe_no_translation,001,810,
KRYPA,Ben,ben,0,19,19,123,0,1,1,1,5,1.957,,,2018_Sep_17_1307,59.604050633,verb_norming_L1-swe_no_translation,001,810,
KRYPA,,,0,19,19,123,,,,,,,,,2018_Sep_17_1307,59.604050633,verb_norming_L1-swe_no_translation,001,810,
DRA,Arm,arm,0,20,20,6,0,0,0,0,7,2.776,,,2018_Sep_17_1307,59.604050633,verb_norming_L1-swe_no_translation,001,810,
DRA,Ben,ben,0,20,20,6,0,1,1,1,3,2.797,,,2018_Sep_17_1307,59.604050633,verb_norming_L1-swe_no_translation,001,810,
DRA,,,0,20,20,6,,,,,,,,,2018_Sep_17_1307,59.604050633,verb_norming_L1-swe_no_translation,001,810,
SIGNERA,Arm,arm,0,21,21,68,0,0,0,0,7,2.908,,,2018_Sep_17_1307,59.604050633,verb_norming_L1-swe_no_translation,001,810,
SIGNERA,Ben,ben,0,21,21,68,0,1,1,1,1,2.156,,,2018_Sep_17_1307,59.604050633,verb_norming_L1-swe_no_translation,001,810,
SIGNERA,,,0,21,21,68,,,,,,,,,2018_Sep_17_1307,59.604050633,verb_norming_L1-swe_no_translation,001,810,
KLICKA,Arm,arm,0,22,22,33,0,0,0,0,7,4.989,,,2018_Sep_17_1307,59.604050633,verb_norming_L1-swe_no_translation,001,810,
KLICKA,Ben,ben,0,22,22,33,0,1,1,1,1,0.867,,,2018_Sep_17_1307,59.604050633,verb_norming_L1-swe_no_translation,001,810,
KLICKA,,,0,22,22,33,,,,,,,,,2018_Sep_17_1307,59.604050633,verb_norming_L1-swe_no_translation,001,810,
KLÄTTRA,Arm,arm,0,23,23,116,0,0,0,0,7,3.631,,,2018_Sep_17_1307,59.604050633,verb_norming_L1-swe_no_translation,001,810,
KLÄTTRA,Ben,ben,0,23,23,116,0,1,1,1,3,2.56,,,2018_Sep_17_1307,59.604050633,verb_norming_L1-swe_no_translation,001,810,
KLÄTTRA,,,0,23,23,116,,,,,,,,,2018_Sep_17_1307,59.604050633,verb_norming_L1-swe_no_translation,001,810,
IRRA,Arm,arm,0,24,24,113,0,0,0,0,1,3.615,,,2018_Sep_17_1307,59.604050633,verb_norming_L1-swe_no_translation,001,810,
IRRA,Ben,ben,0,24,24,113,0,1,1,1,7,1.237,,,2018_Sep_17_1307,59.604050633,verb_norming_L1-swe_no_translation,001,810,
IRRA,,,0,24,24,113,,,,,,,,,2018_Sep_17_1307,59.604050633,verb_norming_L1-swe_no_translation,001,810,
SKURA,Arm,arm,0,25,25,77,0,0,0,0,7,2.841,,,2018_Sep_17_1307,59.604050633,verb_norming_L1-swe_no_translation,001,810,
SKURA,Ben,ben,0,25,25,77,0,1,1,1,1,1.754,,,2018_Sep_17_1307,59.604050633,verb_norming_L1-swe_no_translation,001,810,
SKURA,,,0,25,25,77,,,,,,,,,2018_Sep_17_1307,59.604050633,verb_norming_L1-swe_no_translation,001,810,
RO,Arm,arm,0,26,26,64,0,0,0,0,7,2.258,,,2018_Sep_17_1307,59.604050633,verb_norming_L1-swe_no_translation,001,810,
RO,Ben,ben,0,26,26,64,0,1,1,1,1,1.238,,,2018_Sep_17_1307,59.604050633,verb_norming_L1-swe_no_translation,001,810,
RO,,,0,26,26,64,,,,,,,,,2018_Sep_17_1307,59.604050633,verb_norming_L1-swe_no_translation,001,810,
SNUBBLA,Arm,arm,0,27,27,143,0,0,0,0,1,3.21,,,2018_Sep_17_1307,59.604050633,verb_norming_L1-swe_no_translation,001,810,
SNUBBLA,Ben,ben,0,27,27,143,0,1,1,1,7,1.117,,,2018_Sep_17_1307,59.604050633,verb_norming_L1-swe_no_translation,001,810,
SNUBBLA,,,0,27,27,143,,,,,,,,,2018_Sep_17_1307,59.604050633,verb_norming_L1-swe_no_translation,001,810,
FLÄTA,Arm,arm,0,28,28,11,0,0,0,0,7,3.062,,,2018_Sep_17_1307,59.604050633,verb_norming_L1-swe_no_translation,001,810,
FLÄTA,Ben,ben,0,28,28,11,0,1,1,1,1,0.783,,,2018_Sep_17_1307,59.604050633,verb_norming_L1-swe_no_translation,001,810,
FLÄTA,,,0,28,28,11,,,,,,,,,2018_Sep_17_1307,59.604050633,verb_norming_L1-swe_no_translation,001,810,
SPARKA,Arm,arm,0,29,29,144,0,0,0,0,1,3.111,,,2018_Sep_17_1307,59.604050633,verb_norming_L1-swe_no_translation,001,810,
SPARKA,Ben,ben,0,29,29,144,0,1,1,1,7,1.655,,,2018_Sep_17_1307,59.604050633,verb_norming_L1-swe_no_translation,001,810,
SPARKA,,,0,29,29,144,,,,,,,,,2018_Sep_17_1307,59.604050633,verb_norming_L1-swe_no_translation,001,810,
SPRINGA,Arm,arm,0,30,30,145,0,0,0,0,1,2.574,,,2018_Sep_17_1307,59.604050633,verb_norming_L1-swe_no_translation,001,810,
SPRINGA,Ben,ben,0,30,30,145,0,1,1,1,7,1.638,,,2018_Sep_17_1307,59.604050633,verb_norming_L1-swe_no_translation,001,810,
SPRINGA,,,0,30,30,145,,,,,,,,,2018_Sep_17_1307,59.604050633,verb_norming_L1-swe_no_translation,001,810,
NAPPA,Arm,arm,0,31,31,45,0,0,0,0,4,11.011,,,2018_Sep_17_1307,59.604050633,verb_norming_L1-swe_no_translation,001,810,
NAPPA,Ben,ben,0,31,31,45,0,1,1,1,4,0.665,,,2018_Sep_17_1307,59.604050633,verb_norming_L1-swe_no_translation,001,810,
NAPPA,,,0,31,31,45,,,,,,,,,2018_Sep_17_1307,59.604050633,verb_norming_L1-swe_no_translation,001,810,
GLIDA,Arm,arm,0,32,32,107,0,0,0,0,1,3.997,,,2018_Sep_17_1307,59.604050633,verb_norming_L1-swe_no_translation,001,810,
GLIDA,Ben,ben,0,32,32,107,0,1,1,1,7,0.663,,,2018_Sep_17_1307,59.604050633,verb_norming_L1-swe_no_translation,001,810,
GLIDA,,,0,32,32,107,,,,,,,,,2018_Sep_17_1307,59.604050633,verb_norming_L1-swe_no_translation,001,810,
TASSA,Arm,arm,0,33,33,159,0,0,0,0,1,4.32,,,2018_Sep_17_1307,59.604050633,verb_norming_L1-swe_no_translation,001,810,
TASSA,Ben,ben,0,33,33,159,0,1,1,1,7,1.521,,,2018_Sep_17_1307,59.604050633,verb_norming_L1-swe_no_translation,001,810,
TASSA,,,0,33,33,159,,,,,,,,,2018_Sep_17_1307,59.604050633,verb_norming_L1-swe_no_translation,001,810,
DUNKA,Arm,arm,0,34,34,7,0,0,0,0,6,5.911,,,2018_Sep_17_1307,59.604050633,verb_norming_L1-swe_no_translation,001,810,
DUNKA,Ben,ben,0,34,34,7,0,1,1,1,2,0.983,,,2018_Sep_17_1307,59.604050633,verb_norming_L1-swe_no_translation,001,810,
DUNKA,,,0,34,34,7,,,,,,,,,2018_Sep_17_1307,59.604050633,verb_norming_L1-swe_no_translation,001,810,
SNO,Arm,arm,0,35,35,87,0,0,0,0,7,3.28,,,2018_Sep_17_1307,59.604050633,verb_norming_L1-swe_no_translation,001,810,
SNO,Ben,ben,0,35,35,87,0,1,1,1,1,0.734,,,2018_Sep_17_1307,59.604050633,verb_norming_L1-swe_no_translation,001,810,
SNO,,,0,35,35,87,,,,,,,,,2018_Sep_17_1307,59.604050633,verb_norming_L1-swe_no_translation,001,810,
VANKA,Arm,arm,0,36,36,167,0,0,0,0,1,3.28,,,2018_Sep_17_1307,59.604050633,verb_norming_L1-swe_no_translation,001,810,
VANKA,Ben,ben,0,36,36,167,0,1,1,1,7,1.287,,,2018_Sep_17_1307,59.604050633,verb_norming_L1-swe_no_translation,001,810,
VANKA,,,0,36,36,167,,,,,,,,,2018_Sep_17_1307,59.604050633,verb_norming_L1-swe_no_translation,001,810,
RÄNNA,Arm,arm,0,37,37,131,0,0,0,0,1,3.783,,,2018_Sep_17_1307,59.604050633,verb_norming_L1-swe_no_translation,001,810,
RÄNNA,Ben,ben,0,37,37,131,0,1,1,1,7,0.666,,,2018_Sep_17_1307,59.604050633,verb_norming_L1-swe_no_translation,001,810,
RÄNNA,,,0,37,37,131,,,,,,,,,2018_Sep_17_1307,59.604050633,verb_norming_L1-swe_no_translation,001,810,
KRAMA,Arm,arm,0,38,38,41,0,0,0,0,7,3.495,,,2018_Sep_17_1307,59.604050633,verb_norming_L1-swe_no_translation,001,810,
KRAMA,Ben,ben,0,38,38,41,0,1,1,1,1,0.782,,,2018_Sep_17_1307,59.604050633,verb_norming_L1-swe_no_translation,001,810,
KRAMA,,,0,38,38,41,,,,,,,,,2018_Sep_17_1307,59.604050633,verb_norming_L1-swe_no_translation,001,810,
TRÄDA,Arm,arm,0,39,39,160,0,0,0,0,4,6.701,,,2018_Sep_17_1307,59.604050633,verb_norming_L1-swe_no_translation,001,810,
TRÄDA,Ben,ben,0,39,39,160,0,1,1,1,4,0.482,,,2018_Sep_17_1307,59.604050633,verb_norming_L1-swe_no_translation,001,810,
TRÄDA,,,0,39,39,160,,,,,,,,,2018_Sep_17_1307,59.604050633,verb_norming_L1-swe_no_translation,001,810,
PADDLA,Arm,arm,0,40,40,49,0,0,0,0,7,2.575,,,2018_Sep_17_1307,59.604050633,verb_norming_L1-swe_no_translation,001,810,
PADDLA,Ben,ben,0,40,40,49,0,1,1,1,1,1.387,,,2018_Sep_17_1307,59.604050633,verb_norming_L1-swe_no_translation,001,810,
PADDLA,,,0,40,40,49,,,,,,,,,2018_Sep_17_1307,59.604050633,verb_norming_L1-swe_no_translation,001,810,
GNIDA,Arm,arm,0,41,41,14,0,0,0,0,5,6.5,,,2018_Sep_17_1307,59.604050633,verb_norming_L1-swe_no_translation,001,810,
GNIDA,Ben,ben,0,41,41,14,0,1,1,1,3,0.901,,,2018_Sep_17_1307,59.604050633,verb_norming_L1-swe_no_translation,001,810,
GNIDA,,,0,41,41,14,,,,,,,,,2018_Sep_17_1307,59.604050633,verb_norming_L1-swe_no_translation,001,810,
SVAJA,Arm,arm,0,42,42,156,0,0,0,0,1,4.839,,,2018_Sep_17_1307,59.604050633,verb_norming_L1-swe_no_translation,001,810,
SVAJA,Ben,ben,0,42,42,156,0,1,1,1,7,0.817,,,2018_Sep_17_1307,59.604050633,verb_norming_L1-swe_no_translation,001,810,
SVAJA,,,0,42,42,156,,,,,,,,,2018_Sep_17_1307,59.604050633,verb_norming_L1-swe_no_translation,001,810,
SNÄRTA,Arm,arm,0,43,43,86,0,0,0,0,7,3.011,,,2018_Sep_17_1307,59.604050633,verb_norming_L1-swe_no_translation,001,810,
SNÄRTA,Ben,ben,0,43,43,86,0,1,1,1,1,0.766,,,2018_Sep_17_1307,59.604050633,verb_norming_L1-swe_no_translation,001,810,
SNÄRTA,,,0,43,43,86,,,,,,,,,2018_Sep_17_1307,59.604050633,verb_norming_L1-swe_no_translation,001,810,
STRUTTA,Arm,arm,0,44,44,154,0,0,0,0,1,2.506,,,2018_Sep_17_1307,59.604050633,verb_norming_L1-swe_no_translation,001,810,
STRUTTA,Ben,ben,0,44,44,154,0,1,1,1,7,1.888,,,2018_Sep_17_1307,59.604050633,verb_norming_L1-swe_no_translation,001,810,
STRUTTA,,,0,44,44,154,,,,,,,,,2018_Sep_17_1307,59.604050633,verb_norming_L1-swe_no_translation,001,810,
TA,Arm,arm,0,45,45,92,0,0,0,0,7,2.829,,,2018_Sep_17_1307,59.604050633,verb_norming_L1-swe_no_translation,001,810,
TA,Ben,ben,0,45,45,92,0,1,1,1,1,0.768,,,2018_Sep_17_1307,59.604050633,verb_norming_L1-swe_no_translation,001,810,
TA,,,0,45,45,92,,,,,,,,,2018_Sep_17_1307,59.604050633,verb_norming_L1-swe_no_translation,001,810,
ROTA,Arm,arm,0,46,46,66,0,0,0,0,7,2.307,,,2018_Sep_17_1307,59.604050633,verb_norming_L1-swe_no_translation,001,810,
ROTA,Ben,ben,0,46,46,66,0,1,1,1,1,0.684,,,2018_Sep_17_1307,59.604050633,verb_norming_L1-swe_no_translation,001,810,
ROTA,,,0,46,46,66,,,,,,,,,2018_Sep_17_1307,59.604050633,verb_norming_L1-swe_no_translation,001,810,
KRATSA,Arm,arm,0,47,47,42,0,0,0,0,6,3.899,,,2018_Sep_17_1307,59.604050633,verb_norming_L1-swe_no_translation,001,810,
KRATSA,Ben,ben,0,47,47,42,0,1,1,1,1,1.437,,,2018_Sep_17_1307,59.604050633,verb_norming_L1-swe_no_translation,001,810,
KRATSA,,,0,47,47,42,,,,,,,,,2018_Sep_17_1307,59.604050633,verb_norming_L1-swe_no_translation,001,810,
VACKLA,Arm,arm,0,48,48,164,0,0,0,0,4,7.723,,,2018_Sep_17_1307,59.604050633,verb_norming_L1-swe_no_translation,001,810,
VACKLA,Ben,ben,0,48,48,164,0,1,1,1,6,2.41,,,2018_Sep_17_1307,59.604050633,verb_norming_L1-swe_no_translation,001,810,
VACKLA,,,0,48,48,164,,,,,,,,,2018_Sep_17_1307,59.604050633,verb_norming_L1-swe_no_translation,001,810,
HISSA,Arm,arm,0,49,49,23,0,0,0,0,7,3.85,,,2018_Sep_17_1307,59.604050633,verb_norming_L1-swe_no_translation,001,810,
HISSA,Ben,ben,0,49,49,23,0,1,1,1,1,0.733,,,2018_Sep_17_1307,59.604050633,verb_norming_L1-swe_no_translation,001,810,
HISSA,,,0,49,49,23,,,,,,,,,2018_Sep_17_1307,59.604050633,verb_norming_L1-swe_no_translation,001,810,
FLY,Arm,arm,0,50,50,105,0,0,0,0,1,3.95,,,2018_Sep_17_1307,59.604050633,verb_norming_L1-swe_no_translation,001,810,
FLY,Ben,ben,0,50,50,105,0,1,1,1,7,1.473,,,2018_Sep_17_1307,59.604050633,verb_norming_L1-swe_no_translation,001,810,
FLY,,,0,50,50,105,,,,,,,,,2018_Sep_17_1307,59.604050633,verb_norming_L1-swe_no_translation,001,810,
STRÖVA,Arm,arm,0,51,51,153,0,0,0,0,1,4.198,,,2018_Sep_17_1307,59.604050633,verb_norming_L1-swe_no_translation,001,810,
STRÖVA,Ben,ben,0,51,51,153,0,1,1,1,7,5.545,,,2018_Sep_17_1307,59.604050633,verb_norming_L1-swe_no_translation,001,810,
STRÖVA,,,0,51,51,153,,,,,,,,,2018_Sep_17_1307,59.604050633,verb_norming_L1-swe_no_translation,001,810,
KASTA,Arm,arm,0,52,52,27,0,0,0,0,7,3.129,,,2018_Sep_17_1307,59.604050633,verb_norming_L1-swe_no_translation,001,810,
KASTA,Ben,ben,0,52,52,27,0,1,1,1,1,2.662,,,2018_Sep_17_1307,59.604050633,verb_norming_L1-swe_no_translation,001,810,
KASTA,,,0,52,52,27,,,,,,,,,2018_Sep_17_1307,59.604050633,verb_norming_L1-swe_no_translation,001,810,
FLACKA,Arm,arm,0,53,53,103,0,0,0,0,4,4.504,,,2018_Sep_17_1307,59.604050633,verb_norming_L1-swe_no_translation,001,810,
FLACKA,Ben,ben,0,53,53,103,0,1,1,1,4,0.532,,,2018_Sep_17_1307,59.604050633,verb_norming_L1-swe_no_translation,001,810,
FLACKA,,,0,53,53,103,,,,,,,,,2018_Sep_17_1307,59.604050633,verb_norming_L1-swe_no_translation,001,810,
GREPPA,Arm,arm,0,54,54,18,0,0,0,0,7,5.592,,,2018_Sep_17_1307,59.604050633,verb_norming_L1-swe_no_translation,001,810,
GREPPA,Ben,ben,0,54,54,18,0,1,1,1,1,1.989,,,2018_Sep_17_1307,59.604050633,verb_norming_L1-swe_no_translation,001,810,
GREPPA,,,0,54,54,18,,,,,,,,,2018_Sep_17_1307,59.604050633,verb_norming_L1-swe_no_translation,001,810,
KNATA,Arm,arm,0,55,55,120,0,0,0,0,1,2.71,,,2018_Sep_17_1307,59.604050633,verb_norming_L1-swe_no_translation,001,810,
KNATA,Ben,ben,0,55,55,120,0,1,1,1,7,0.766,,,2018_Sep_17_1307,59.604050633,verb_norming_L1-swe_no_translation,001,810,
KNATA,,,0,55,55,120,,,,,,,,,2018_Sep_17_1307,59.604050633,verb_norming_L1-swe_no_translation,001,810,
STÖTA,Arm,arm,0,56,56,89,0,0,0,0,3,6.431,,,2018_Sep_17_1307,59.604050633,verb_norming_L1-swe_no_translation,001,810,
STÖTA,Ben,ben,0,56,56,89,0,1,1,1,4,1.452,,,2018_Sep_17_1307,59.604050633,verb_norming_L1-swe_no_translation,001,810,
STÖTA,,,0,56,56,89,,,,,,,,,2018_Sep_17_1307,59.604050633,verb_norming_L1-swe_no_translation,001,810,
SKYFFLA,Arm,arm,0,57,57,78,0,0,0,0,7,4.302,,,2018_Sep_17_1307,59.604050633,verb_norming_L1-swe_no_translation,001,810,
SKYFFLA,Ben,ben,0,57,57,78,0,1,1,1,1,0.765,,,2018_Sep_17_1307,59.604050633,verb_norming_L1-swe_no_translation,001,810,
SKYFFLA,,,0,57,57,78,,,,,,,,,2018_Sep_17_1307,59.604050633,verb_norming_L1-swe_no_translation,001,810,
MARSCHERA,Arm,arm,0,58,58,127,0,0,0,0,1,2.772,,,2018_Sep_17_1307,59.604050633,verb_norming_L1-swe_no_translation,001,810,
MARSCHERA,Ben,ben,0,58,58,127,0,1,1,1,7,1.216,,,2018_Sep_17_1307,59.604050633,verb_norming_L1-swe_no_translation,001,810,
MARSCHERA,,,0,58,58,127,,,,,,,,,2018_Sep_17_1307,59.604050633,verb_norming_L1-swe_no_translation,001,810,
HÖJA,Arm,arm,0,59,59,25,0,0,0,0,6,4.486,,,2018_Sep_17_1307,59.604050633,verb_norming_L1-swe_no_translation,001,810,
HÖJA,Ben,ben,0,59,59,25,0,1,1,1,3,1.403,,,2018_Sep_17_1307,59.604050633,verb_norming_L1-swe_no_translation,001,810,
HÖJA,,,0,59,59,25,,,,,,,,,2018_Sep_17_1307,59.604050633,verb_norming_L1-swe_no_translation,001,810,
KELA,Arm,arm,0,60,60,28,0,0,0,0,4,6.314,,,2018_Sep_17_1307,59.604050633,verb_norming_L1-swe_no_translation,001,810,
KELA,Ben,ben,0,60,60,28,0,1,1,1,4,0.563,,,2018_Sep_17_1307,59.604050633,verb_norming_L1-swe_no_translation,001,810,
KELA,,,0,60,60,28,,,,,,,,,2018_Sep_17_1307,59.604050633,verb_norming_L1-swe_no_translation,001,810,
GUPPA,Arm,arm,0,61,61,108,0,0,0,0,1,5.961,,,2018_Sep_17_1307,59.604050633,verb_norming_L1-swe_no_translation,001,810,
GUPPA,Ben,ben,0,61,61,108,0,1,1,1,6,1.016,,,2018_Sep_17_1307,59.604050633,verb_norming_L1-swe_no_translation,001,810,
GUPPA,,,0,61,61,108,,,,,,,,,2018_Sep_17_1307,59.604050633,verb_norming_L1-swe_no_translation,001,810,
SKALA,Arm,arm,0,62,62,70,0,0,0,0,7,2.709,,,2018_Sep_17_1307,59.604050633,verb_norming_L1-swe_no_translation,001,810,
SKALA,Ben,ben,0,62,62,70,0,1,1,1,1,2.377,,,2018_Sep_17_1307,59.604050633,verb_norming_L1-swe_no_translation,001,810,
SKALA,,,0,62,62,70,,,,,,,,,2018_Sep_17_1307,59.604050633,verb_norming_L1-swe_no_translation,001,810,
PUTTA,Arm,arm,0,63,63,57,0,0,0,0,7,2.892,,,2018_Sep_17_1307,59.604050633,verb_norming_L1-swe_no_translation,001,810,
PUTTA,Ben,ben,0,63,63,57,0,1,1,1,1,1.318,,,2018_Sep_17_1307,59.604050633,verb_norming_L1-swe_no_translation,001,810,
PUTTA,,,0,63,63,57,,,,,,,,,2018_Sep_17_1307,59.604050633,verb_norming_L1-swe_no_translation,001,810,
KARVA,Arm,arm,0,64,64,26,0,0,0,0,7,6.717,,,2018_Sep_17_1307,59.604050633,verb_norming_L1-swe_no_translation,001,810,
KARVA,Ben,ben,0,64,64,26,0,1,1,1,1,0.934,,,2018_Sep_17_1307,59.604050633,verb_norming_L1-swe_no_translation,001,810,
KARVA,,,0,64,64,26,,,,,,,,,2018_Sep_17_1307,59.604050633,verb_norming_L1-swe_no_translation,001,810,
KLÅ,Arm,arm,0,65,65,29,0,0,0,0,4,5.729,,,2018_Sep_17_1307,59.604050633,verb_norming_L1-swe_no_translation,001,810,
KLÅ,Ben,ben,0,65,65,29,0,1,1,1,4,0.449,,,2018_Sep_17_1307,59.604050633,verb_norming_L1-swe_no_translation,001,810,
KLÅ,,,0,65,65,29,,,,,,,,,2018_Sep_17_1307,59.604050633,verb_norming_L1-swe_no_translation,001,810,
HAFFA,Arm,arm,0,66,66,21,0,0,0,0,7,2.357,,,2018_Sep_17_1307,59.604050633,verb_norming_L1-swe_no_translation,001,810,
HAFFA,Ben,ben,0,66,66,21,0,1,1,1,1,0.633,,,2018_Sep_17_1307,59.604050633,verb_norming_L1-swe_no_translation,001,810,
HAFFA,,,0,66,66,21,,,,,,,,,2018_Sep_17_1307,59.604050633,verb_norming_L1-swe_no_translation,001,810,
VADA,Arm,arm,0,67,67,165,0,0,0,0,1,2.979,,,2018_Sep_17_1307,59.604050633,verb_norming_L1-swe_no_translation,001,810,
VADA,Ben,ben,0,67,67,165,0,1,1,1,7,1.069,,,2018_Sep_17_1307,59.604050633,verb_norming_L1-swe_no_translation,001,810,
VADA,,,0,67,67,165,,,,,,,,,2018_Sep_17_1307,59.604050633,verb_norming_L1-swe_no_translation,001,810,
SMEKA,Arm,arm,0,68,68,85,0,0,0,0,5,4.737,,,2018_Sep_17_1307,59.604050633,verb_norming_L1-swe_no_translation,001,810,
SMEKA,Ben,ben,0,68,68,85,0,1,1,1,3,0.682,,,2018_Sep_17_1307,59.604050633,verb_norming_L1-swe_no_translation,001,810,
SMEKA,,,0,68,68,85,,,,,,,,,2018_Sep_17_1307,59.604050633,verb_norming_L1-swe_no_translation,001,810,
SPRINTA,Arm,arm,0,69,69,146,0,0,0,0,1,2.692,,,2018_Sep_17_1307,59.604050633,verb_norming_L1-swe_no_translation,001,810,
SPRINTA,Ben,ben,0,69,69,146,0,1,1,1,7,0.564,,,2018_Sep_17_1307,59.604050633,verb_norming_L1-swe_no_translation,001,810,
SPRINTA,,,0,69,69,146,,,,,,,,,2018_Sep_17_1307,59.604050633,verb_norming_L1-swe_no_translation,001,810,
SKJUTA,Arm,arm,0,70,70,72,0,0,0,0,7,3.563,,,2018_Sep_17_1307,59.604050633,verb_norming_L1-swe_no_translation,001,810,
SKJUTA,Ben,ben,0,70,70,72,0,1,1,1,1,1.335,,,2018_Sep_17_1307,59.604050633,verb_norming_L1-swe_no_translation,001,810,
SKJUTA,,,0,70,70,72,,,,,,,,,2018_Sep_17_1307,59.604050633,verb_norming_L1-swe_no_translation,001,810,
VIRA,Arm,arm,0,71,71,99,0,0,0,0,7,5.392,,,2018_Sep_17_1307,59.604050633,verb_norming_L1-swe_no_translation,001,810,
VIRA,Ben,ben,0,71,71,99,0,1,1,1,1,1.824,,,2018_Sep_17_1307,59.604050633,verb_norming_L1-swe_no_translation,001,810,
VIRA,,,0,71,71,99,,,,,,,,,2018_Sep_17_1307,59.604050633,verb_norming_L1-swe_no_translation,001,810,
VANDRA,Arm,arm,0,72,72,166,0,0,0,0,1,3.816,,,2018_Sep_17_1307,59.604050633,verb_norming_L1-swe_no_translation,001,810,
VANDRA,Ben,ben,0,72,72,166,0,1,1,1,7,0.615,,,2018_Sep_17_1307,59.604050633,verb_norming_L1-swe_no_translation,001,810,
VANDRA,,,0,72,72,166,,,,,,,,,2018_Sep_17_1307,59.604050633,verb_norming_L1-swe_no_translation,001,810,
HALKA,Arm,arm,0,73,73,109,0,0,0,0,1,3.129,,,2018_Sep_17_1307,59.604050633,verb_norming_L1-swe_no_translation,001,810,
HALKA,Ben,ben,0,73,73,109,0,1,1,1,7,0.549,,,2018_Sep_17_1307,59.604050633,verb_norming_L1-swe_no_translation,001,810,
HALKA,,,0,73,73,109,,,,,,,,,2018_Sep_17_1307,59.604050633,verb_norming_L1-swe_no_translation,001,810,
KNIVHUGGA,Arm,arm,0,74,74,38,0,0,0,0,7,3.662,,,2018_Sep_17_1307,59.604050633,verb_norming_L1-swe_no_translation,001,810,
KNIVHUGGA,Ben,ben,0,74,74,38,0,1,1,1,1,1.199,,,2018_Sep_17_1307,59.604050633,verb_norming_L1-swe_no_translation,001,810,
KNIVHUGGA,,,0,74,74,38,,,,,,,,,2018_Sep_17_1307,59.604050633,verb_norming_L1-swe_no_translation,001,810,
STAMPA,Arm,arm,0,75,75,148,0,0,0,0,1,2.573,,,2018_Sep_17_1307,59.604050633,verb_norming_L1-swe_no_translation,001,810,
STAMPA,Ben,ben,0,75,75,148,0,1,1,1,7,1.05,,,2018_Sep_17_1307,59.604050633,verb_norming_L1-swe_no_translation,001,810,
STAMPA,,,0,75,75,148,,,,,,,,,2018_Sep_17_1307,59.604050633,verb_norming_L1-swe_no_translation,001,810,
LINKA,Arm,arm,0,76,76,124,0,0,0,0,4,3.598,,,2018_Sep_17_1307,59.604050633,verb_norming_L1-swe_no_translation,001,810,
LINKA,Ben,ben,0,76,76,124,0,1,1,1,4,0.599,,,2018_Sep_17_1307,59.604050633,verb_norming_L1-swe_no_translation,001,810,
LINKA,,,0,76,76,124,,,,,,,,,2018_Sep_17_1307,59.604050633,verb_norming_L1-swe_no_translation,001,810,
GNUGGA,Arm,arm,0,77,77,15,0,0,0,0,7,3.311,,,2018_Sep_17_1307,59.604050633,verb_norming_L1-swe_no_translation,001,810,
GNUGGA,Ben,ben,0,77,77,15,0,1,1,1,3,1.838,,,2018_Sep_17_1307,59.604050633,verb_norming_L1-swe_no_translation,001,810,
GNUGGA,,,0,77,77,15,,,,,,,,,2018_Sep_17_1307,59.604050633,verb_norming_L1-swe_no_translation,001,810,
BULTA,Arm,arm,0,78,78,4,0,0,0,0,4,5.877,,,2018_Sep_17_1307,59.604050633,verb_norming_L1-swe_no_translation,001,810,
BULTA,Ben,ben,0,78,78,4,0,1,1,1,4,0.513,,,2018_Sep_17_1307,59.604050633,verb_norming_L1-swe_no_translation,001,810,
BULTA,,,0,78,78,4,,,,,,,,,2018_Sep_17_1307,59.604050633,verb_norming_L1-swe_no_translation,001,810,
VINGLA,Arm,arm,0,79,79,168,0,0,0,0,1,3.027,,,2018_Sep_17_1307,59.604050633,verb_norming_L1-swe_no_translation,001,810,
VINGLA,Ben,ben,0,79,79,168,0,1,1,1,7,0.582,,,2018_Sep_17_1307,59.604050633,verb_norming_L1-swe_no_translation,001,810,
VINGLA,,,0,79,79,168,,,,,,,,,2018_Sep_17_1307,59.604050633,verb_norming_L1-swe_no_translation,001,810,
BORSTA,Arm,arm,0,80,80,3,0,0,0,0,7,3.162,,,2018_Sep_17_1307,59.604050633,verb_norming_L1-swe_no_translation,001,810,
BORSTA,Ben,ben,0,80,80,3,0,1,1,1,1,0.649,,,2018_Sep_17_1307,59.604050633,verb_norming_L1-swe_no_translation,001,810,
BORSTA,,,0,80,80,3,,,,,,,,,2018_Sep_17_1307,59.604050633,verb_norming_L1-swe_no_translation,001,810,
SKOPA,Arm,arm,0,81,81,73,0,0,0,0,7,2.609,,,2018_Sep_17_1307,59.604050633,verb_norming_L1-swe_no_translation,001,810,
SKOPA,Ben,ben,0,81,81,73,0,1,1,1,1,0.683,,,2018_Sep_17_1307,59.604050633,verb_norming_L1-swe_no_translation,001,810,
SKOPA,,,0,81,81,73,,,,,,,,,2018_Sep_17_1307,59.604050633,verb_norming_L1-swe_no_translation,001,810,
HALTA,Arm,arm,0,82,82,110,0,0,0,0,1,2.491,,,2018_Sep_17_1307,59.604050633,verb_norming_L1-swe_no_translation,001,810,
HALTA,Ben,ben,0,82,82,110,0,1,1,1,7,0.482,,,2018_Sep_17_1307,59.604050633,verb_norming_L1-swe_no_translation,001,810,
HALTA,,,0,82,82,110,,,,,,,,,2018_Sep_17_1307,59.604050633,verb_norming_L1-swe_no_translation,001,810,
LÖPA,Arm,arm,0,83,83,125,0,0,0,0,1,2.807,,,2018_Sep_17_1307,59.604050633,verb_norming_L1-swe_no_translation,001,810,
LÖPA,Ben,ben,0,83,83,125,0,1,1,1,7,0.464,,,2018_Sep_17_1307,59.604050633,verb_norming_L1-swe_no_translation,001,810,
LÖPA,,,0,83,83,125,,,,,,,,,2018_Sep_17_1307,59.604050633,verb_norming_L1-swe_no_translation,001,810,
SLITA,Arm,arm,0,84,84,82,0,0,0,0,7,5.409,,,2018_Sep_17_1307,59.604050633,verb_norming_L1-swe_no_translation,001,810,
SLITA,Ben,ben,0,84,84,82,0,1,1,1,1,0.549,,,2018_Sep_17_1307,59.604050633,verb_norming_L1-swe_no_translation,001,810,
SLITA,,,0,84,84,82,,,,,,,,,2018_Sep_17_1307,59.604050633,verb_norming_L1-swe_no_translation,001,810,
BANKA,Arm,arm,0,85,85,1,0,0,0,0,7,2.491,,,2018_Sep_17_1307,59.604050633,verb_norming_L1-swe_no_translation,001,810,
BANKA,Ben,ben,0,85,85,1,0,1,1,1,2,0.884,,,2018_Sep_17_1307,59.604050633,verb_norming_L1-swe_no_translation,001,810,
BANKA,,,0,85,85,1,,,,,,,,,2018_Sep_17_1307,59.604050633,verb_norming_L1-swe_no_translation,001,810,
GRIPA,Arm,arm,0,86,86,19,0,0,0,0,7,2.29,,,2018_Sep_17_1307,59.604050633,verb_norming_L1-swe_no_translation,001,810,
GRIPA,Ben,ben,0,86,86,19,0,1,1,1,1,1.085,,,2018_Sep_17_1307,59.604050633,verb_norming_L1-swe_no_translation,001,810,
GRIPA,,,0,86,86,19,,,,,,,,,2018_Sep_17_1307,59.604050633,verb_norming_L1-swe_no_translation,001,810,
STÖVLA,Arm,arm,0,87,87,152,0,0,0,0,1,4.284,,,2018_Sep_17_1307,59.604050633,verb_norming_L1-swe_no_translation,001,810,
STÖVLA,Ben,ben,0,87,87,152,0,1,1,1,7,1.805,,,2018_Sep_17_1307,59.604050633,verb_norming_L1-swe_no_translation,001,810,
STÖVLA,,,0,87,87,152,,,,,,,,,2018_Sep_17_1307,59.604050633,verb_norming_L1-swe_no_translation,001,810,
KNACKA,Arm,arm,0,88,88,36,0,0,0,0,7,2.34,,,2018_Sep_17_1307,59.604050633,verb_norming_L1-swe_no_translation,001,810,
KNACKA,Ben,ben,0,88,88,36,0,1,1,1,1,1.001,,,2018_Sep_17_1307,59.604050633,verb_norming_L1-swe_no_translation,001,810,
KNACKA,,,0,88,88,36,,,,,,,,,2018_Sep_17_1307,59.604050633,verb_norming_L1-swe_no_translation,001,810,
PETA,Arm,arm,0,89,89,50,0,0,0,0,7,2.407,,,2018_Sep_17_1307,59.604050633,verb_norming_L1-swe_no_translation,001,810,
PETA,Ben,ben,0,89,89,50,0,1,1,1,1,1.117,,,2018_Sep_17_1307,59.604050633,verb_norming_L1-swe_no_translation,001,810,
PETA,,,0,89,89,50,,,,,,,,,2018_Sep_17_1307,59.604050633,verb_norming_L1-swe_no_translation,001,810,
KRAVLA,Arm,arm,0,90,90,122,0,0,0,0,5,5.459,,,2018_Sep_17_1307,59.604050633,verb_norming_L1-swe_no_translation,001,810,
KRAVLA,Ben,ben,0,90,90,122,0,1,1,1,3,1.035,,,2018_Sep_17_1307,59.604050633,verb_norming_L1-swe_no_translation,001,810,
KRAVLA,,,0,90,90,122,,,,,,,,,2018_Sep_17_1307,59.604050633,verb_norming_L1-swe_no_translation,001,810,
SKAKA,Arm,arm,0,91,91,69,0,0,0,0,6,2.827,,,2018_Sep_17_1307,59.604050633,verb_norming_L1-swe_no_translation,001,810,
SKAKA,Ben,ben,0,91,91,69,0,1,1,1,2,1.27,,,2018_Sep_17_1307,59.604050633,verb_norming_L1-swe_no_translation,001,810,
SKAKA,,,0,91,91,69,,,,,,,,,2018_Sep_17_1307,59.604050633,verb_norming_L1-swe_no_translation,001,810,
SKRUBBA,Arm,arm,0,92,92,75,0,0,0,0,7,3.998,,,2018_Sep_17_1307,59.604050633,verb_norming_L1-swe_no_translation,001,810,
SKRUBBA,Ben,ben,0,92,92,75,0,1,1,1,1,0.63,,,2018_Sep_17_1307,59.604050633,verb_norming_L1-swe_no_translation,001,810,
SKRUBBA,,,0,92,92,75,,,,,,,,,2018_Sep_17_1307,59.604050633,verb_norming_L1-swe_no_translation,001,810,
TORKA,Arm,arm,0,93,93,93,0,0,0,0,7,2.492,,,2018_Sep_17_1307,59.604050633,verb_norming_L1-swe_no_translation,001,810,
TORKA,Ben,ben,0,93,93,93,0,1,1,1,2,1.085,,,2018_Sep_17_1307,59.604050633,verb_norming_L1-swe_no_translation,001,810,
TORKA,,,0,93,93,93,,,,,,,,,2018_Sep_17_1307,59.604050633,verb_norming_L1-swe_no_translation,001,810,
SLINTA,Arm,arm,0,94,94,140,0,0,0,0,6,3.648,,,2018_Sep_17_1307,59.604050633,verb_norming_L1-swe_no_translation,001,810,
SLINTA,Ben,ben,0,94,94,140,0,1,1,1,3,0.884,,,2018_Sep_17_1307,59.604050633,verb_norming_L1-swe_no_translation,001,810,
SLINTA,,,0,94,94,140,,,,,,,,,2018_Sep_17_1307,59.604050633,verb_norming_L1-swe_no_translation,001,810,
SLÄNTRA,Arm,arm,0,95,95,139,0,0,0,0,4,3.363,,,2018_Sep_17_1307,59.604050633,verb_norming_L1-swe_no_translation,001,810,
SLÄNTRA,Ben,ben,0,95,95,139,0,1,1,1,4,0.933,,,2018_Sep_17_1307,59.604050633,verb_norming_L1-swe_no_translation,001,810,
SLÄNTRA,,,0,95,95,139,,,,,,,,,2018_Sep_17_1307,59.604050633,verb_norming_L1-swe_no_translation,001,810,
FÖSA,Arm,arm,0,96,96,12,0,0,0,0,6,4.234,,,2018_Sep_17_1307,59.604050633,verb_norming_L1-swe_no_translation,001,810,
FÖSA,Ben,ben,0,96,96,12,0,1,1,1,2,0.63,,,2018_Sep_17_1307,59.604050633,verb_norming_L1-swe_no_translation,001,810,
FÖSA,,,0,96,96,12,,,,,,,,,2018_Sep_17_1307,59.604050633,verb_norming_L1-swe_no_translation,001,810,
RYCKA,Arm,arm,0,97,97,67,0,0,0,0,7,2.491,,,2018_Sep_17_1307,59.604050633,verb_norming_L1-swe_no_translation,001,810,
RYCKA,Ben,ben,0,97,97,67,0,1,1,1,1,0.582,,,2018_Sep_17_1307,59.604050633,verb_norming_L1-swe_no_translation,001,810,
RYCKA,,,0,97,97,67,,,,,,,,,2018_Sep_17_1307,59.604050633,verb_norming_L1-swe_no_translation,001,810,
KNALLA,Arm,arm,0,98,98,119,0,0,0,0,1,6.096,,,2018_Sep_17_1307,59.604050633,verb_norming_L1-swe_no_translation,001,810,
KNALLA,Ben,ben,0,98,98,119,0,1,1,1,7,1.152,,,2018_Sep_17_1307,59.604050633,verb_norming_L1-swe_no_translation,001,810,
KNALLA,,,0,98,98,119,,,,,,,,,2018_Sep_17_1307,59.604050633,verb_norming_L1-swe_no_translation,001,810,
FATTA,Arm,arm,0,99,99,9,0,0,0,0,7,6.365,,,2018_Sep_17_1307,59.604050633,verb_norming_L1-swe_no_translation,001,810,
FATTA,Ben,ben,0,99,99,9,0,1,1,1,1,1.119,,,2018_Sep_17_1307,59.604050633,verb_norming_L1-swe_no_translation,001,810,
FATTA,,,0,99,99,9,,,,,,,,,2018_Sep_17_1307,59.604050633,verb_norming_L1-swe_no_translation,001,810,
BADDA,Arm,arm,0,100,100,0,0,0,0,0,7,3.162,,,2018_Sep_17_1307,59.604050633,verb_norming_L1-swe_no_translation,001,810,
BADDA,Ben,ben,0,100,100,0,0,1,1,1,1,0.8,,,2018_Sep_17_1307,59.604050633,verb_norming_L1-swe_no_translation,001,810,
BADDA,,,0,100,100,0,,,,,,,,,2018_Sep_17_1307,59.604050633,verb_norming_L1-swe_no_translation,001,810,
TRUMMA,Arm,arm,0,101,101,94,0,0,0,0,7,3.009,,,2018_Sep_17_1307,59.604050633,verb_norming_L1-swe_no_translation,001,810,
TRUMMA,Ben,ben,0,101,101,94,0,1,1,1,1,0.58,,,2018_Sep_17_1307,59.604050633,verb_norming_L1-swe_no_translation,001,810,
TRUMMA,,,0,101,101,94,,,,,,,,,2018_Sep_17_1307,59.604050633,verb_norming_L1-swe_no_translation,001,810,
GRÄVA,Arm,arm,0,102,102,17,0,0,0,0,7,2.038,,,2018_Sep_17_1307,59.604050633,verb_norming_L1-swe_no_translation,001,810,
GRÄVA,Ben,ben,0,102,102,17,0,1,1,1,1,0.599,,,2018_Sep_17_1307,59.604050633,verb_norming_L1-swe_no_translation,001,810,
GRÄVA,,,0,102,102,17,,,,,,,,,2018_Sep_17_1307,59.604050633,verb_norming_L1-swe_no_translation,001,810,
PROMENERA,Arm,arm,0,103,103,129,0,0,0,0,1,2.789,,,2018_Sep_17_1307,59.604050633,verb_norming_L1-swe_no_translation,001,810,
PROMENERA,Ben,ben,0,103,103,129,0,1,1,1,7,0.561,,,2018_Sep_17_1307,59.604050633,verb_norming_L1-swe_no_translation,001,810,
PROMENERA,,,0,103,103,129,,,,,,,,,2018_Sep_17_1307,59.604050633,verb_norming_L1-swe_no_translation,001,810,
HOPPA,Arm,arm,0,104,104,111,0,0,0,0,1,2.558,,,2018_Sep_17_1307,59.604050633,verb_norming_L1-swe_no_translation,001,810,
HOPPA,Ben,ben,0,104,104,111,0,1,1,1,7,0.599,,,2018_Sep_17_1307,59.604050633,verb_norming_L1-swe_no_translation,001,810,
HOPPA,,,0,104,104,111,,,,,,,,,2018_Sep_17_1307,59.604050633,verb_norming_L1-swe_no_translation,001,810,
POLERA,Arm,arm,0,105,105,54,0,0,0,0,7,3.647,,,2018_Sep_17_1307,59.604050633,verb_norming_L1-swe_no_translation,001,810,
POLERA,Ben,ben,0,105,105,54,0,1,1,1,1,0.68,,,2018_Sep_17_1307,59.604050633,verb_norming_L1-swe_no_translation,001,810,
POLERA,,,0,105,105,54,,,,,,,,,2018_Sep_17_1307,59.604050633,verb_norming_L1-swe_no_translation,001,810,
PISKA,Arm,arm,0,106,106,52,0,0,0,0,7,3.665,,,2018_Sep_17_1307,59.604050633,verb_norming_L1-swe_no_translation,001,810,
PISKA,Ben,ben,0,106,106,52,0,1,1,1,1,0.632,,,2018_Sep_17_1307,59.604050633,verb_norming_L1-swe_no_translation,001,810,
PISKA,,,0,106,106,52,,,,,,,,,2018_Sep_17_1307,59.604050633,verb_norming_L1-swe_no_translation,001,810,
SKRIDA,Arm,arm,0,107,107,136,0,0,0,0,1,2.726,,,2018_Sep_17_1307,59.604050633,verb_norming_L1-swe_no_translation,001,810,
SKRIDA,Ben,ben,0,107,107,136,0,1,1,1,7,0.464,,,2018_Sep_17_1307,59.604050633,verb_norming_L1-swe_no_translation,001,810,
SKRIDA,,,0,107,107,136,,,,,,,,,2018_Sep_17_1307,59.604050633,verb_norming_L1-swe_no_translation,001,810,
TVINNA,Arm,arm,0,108,108,97,0,0,0,0,7,2.525,,,2018_Sep_17_1307,59.604050633,verb_norming_L1-swe_no_translation,001,810,
TVINNA,Ben,ben,0,108,108,97,0,1,1,1,1,0.632,,,2018_Sep_17_1307,59.604050633,verb_norming_L1-swe_no_translation,001,810,
TVINNA,,,0,108,108,97,,,,,,,,,2018_Sep_17_1307,59.604050633,verb_norming_L1-swe_no_translation,001,810,
KLÖSA,Arm,arm,0,109,109,35,0,0,0,0,7,3.412,,,2018_Sep_17_1307,59.604050633,verb_norming_L1-swe_no_translation,001,810,
KLÖSA,Ben,ben,0,109,109,35,0,1,1,1,1,0.58,,,2018_Sep_17_1307,59.604050633,verb_norming_L1-swe_no_translation,001,810,
KLÖSA,,,0,109,109,35,,,,,,,,,2018_Sep_17_1307,59.604050633,verb_norming_L1-swe_no_translation,001,810,
NORPA,Arm,arm,0,110,110,46,0,0,0,0,7,2.341,,,2018_Sep_17_1307,59.604050633,verb_norming_L1-swe_no_translation,001,810,
NORPA,Ben,ben,0,110,110,46,0,1,1,1,1,0.599,,,2018_Sep_17_1307,59.604050633,verb_norming_L1-swe_no_translation,001,810,
NORPA,,,0,110,110,46,,,,,,,,,2018_Sep_17_1307,59.604050633,verb_norming_L1-swe_no_translation,001,810,
LINDA,Arm,arm,0,111,111,43,0,0,0,0,7,2.542,,,2018_Sep_17_1307,59.604050633,verb_norming_L1-swe_no_translation,001,810,
LINDA,Ben,ben,0,111,111,43,0,1,1,1,1,0.616,,,2018_Sep_17_1307,59.604050633,verb_norming_L1-swe_no_translation,001,810,
LINDA,,,0,111,111,43,,,,,,,,,2018_Sep_17_1307,59.604050633,verb_norming_L1-swe_no_translation,001,810,
RIVA,Arm,arm,0,112,112,63,0,0,0,0,7,2.207,,,2018_Sep_17_1307,59.604050633,verb_norming_L1-swe_no_translation,001,810,
RIVA,Ben,ben,0,112,112,63,0,1,1,1,1,0.582,,,2018_Sep_17_1307,59.604050633,verb_norming_L1-swe_no_translation,001,810,
RIVA,,,0,112,112,63,,,,,,,,,2018_Sep_17_1307,59.604050633,verb_norming_L1-swe_no_translation,001,810,
SKYNDA,Arm,arm,0,113,113,138,0,0,0,0,1,6.147,,,2018_Sep_17_1307,59.604050633,verb_norming_L1-swe_no_translation,001,810,
SKYNDA,Ben,ben,0,113,113,138,0,1,1,1,4,3.936,,,2018_Sep_17_1307,59.604050633,verb_norming_L1-swe_no_translation,001,810,
SKYNDA,,,0,113,113,138,,,,,,,,,2018_Sep_17_1307,59.604050633,verb_norming_L1-swe_no_translation,001,810,
STEGA,Arm,arm,0,114,114,150,0,0,0,0,1,3.596,,,2018_Sep_17_1307,59.604050633,verb_norming_L1-swe_no_translation,001,810,
STEGA,Ben,ben,0,114,114,150,0,1,1,1,6,2.743,,,2018_Sep_17_1307,59.604050633,verb_norming_L1-swe_no_translation,001,810,
STEGA,,,0,114,114,150,,,,,,,,,2018_Sep_17_1307,59.604050633,verb_norming_L1-swe_no_translation,001,810,
KNYCKA,Arm,arm,0,115,115,39,0,0,0,0,7,2.826,,,2018_Sep_17_1307,59.604050633,verb_norming_L1-swe_no_translation,001,810,
KNYCKA,Ben,ben,0,115,115,39,0,1,1,1,1,1.286,,,2018_Sep_17_1307,59.604050633,verb_norming_L1-swe_no_translation,001,810,
KNYCKA,,,0,115,115,39,,,,,,,,,2018_Sep_17_1307,59.604050633,verb_norming_L1-swe_no_translation,001,810,
TRAMPA,Arm,arm,0,116,116,161,0,0,0,0,1,2.758,,,2018_Sep_17_1307,59.604050633,verb_norming_L1-swe_no_translation,001,810,
TRAMPA,Ben,ben,0,116,116,161,0,1,1,1,7,0.513,,,2018_Sep_17_1307,59.604050633,verb_norming_L1-swe_no_translation,001,810,
TRAMPA,,,0,116,116,161,,,,,,,,,2018_Sep_17_1307,59.604050633,verb_norming_L1-swe_no_translation,001,810,
DASKA,Arm,arm,0,117,117,5,0,0,0,0,4,12.435,,,2018_Sep_17_1307,59.604050633,verb_norming_L1-swe_no_translation,001,810,
DASKA,Ben,ben,0,117,117,5,0,1,1,1,4,0.683,,,2018_Sep_17_1307,59.604050633,verb_norming_L1-swe_no_translation,001,810,
DASKA,,,0,117,117,5,,,,,,,,,2018_Sep_17_1307,59.604050633,verb_norming_L1-swe_no_translation,001,810,
TRIPPA,Arm,arm,0,118,118,163,0,0,0,0,1,4.369,,,2018_Sep_17_1307,59.604050633,verb_norming_L1-swe_no_translation,001,810,
TRIPPA,Ben,ben,0,118,118,163,0,1,1,1,6,2.343,,,2018_Sep_17_1307,59.604050633,verb_norming_L1-swe_no_translation,001,810,
TRIPPA,,,0,118,118,163,,,,,,,,,2018_Sep_17_1307,59.604050633,verb_norming_L1-swe_no_translation,001,810,
HACKA,Arm,arm,0,119,119,20,0,0,0,0,6,5.443,,,2018_Sep_17_1307,59.604050633,verb_norming_L1-swe_no_translation,001,810,
HACKA,Ben,ben,0,119,119,20,0,1,1,1,2,0.566,,,2018_Sep_17_1307,59.604050633,verb_norming_L1-swe_no_translation,001,810,
HACKA,,,0,119,119,20,,,,,,,,,2018_Sep_17_1307,59.604050633,verb_norming_L1-swe_no_translation,001,810,
STÅ,Arm,arm,0,120,120,147,0,0,0,0,1,3.331,,,2018_Sep_17_1307,59.604050633,verb_norming_L1-swe_no_translation,001,810,
STÅ,Ben,ben,0,120,120,147,0,1,1,1,7,0.634,,,2018_Sep_17_1307,59.604050633,verb_norming_L1-swe_no_translation,001,810,
STÅ,,,0,120,120,147,,,,,,,,,2018_Sep_17_1307,59.604050633,verb_norming_L1-swe_no_translation,001,810,
SVABBA,Arm,arm,0,121,121,90,0,0,0,0,7,5.794,,,2018_Sep_17_1307,59.604050633,verb_norming_L1-swe_no_translation,001,810,
SVABBA,Ben,ben,0,121,121,90,0,1,1,1,1,0.666,,,2018_Sep_17_1307,59.604050633,verb_norming_L1-swe_no_translation,001,810,
SVABBA,,,0,121,121,90,,,,,,,,,2018_Sep_17_1307,59.604050633,verb_norming_L1-swe_no_translation,001,810,
LUNKA,Arm,arm,0,122,122,126,0,0,0,0,1,2.876,,,2018_Sep_17_1307,59.604050633,verb_norming_L1-swe_no_translation,001,810,
LUNKA,Ben,ben,0,122,122,126,0,1,1,1,7,0.48,,,2018_Sep_17_1307,59.604050633,verb_norming_L1-swe_no_translation,001,810,
LUNKA,,,0,122,122,126,,,,,,,,,2018_Sep_17_1307,59.604050633,verb_norming_L1-swe_no_translation,001,810,
GRABBA,Arm,arm,0,123,123,16,0,0,0,0,7,2.273,,,2018_Sep_17_1307,59.604050633,verb_norming_L1-swe_no_translation,001,810,
GRABBA,Ben,ben,0,123,123,16,0,1,1,1,1,1.001,,,2018_Sep_17_1307,59.604050633,verb_norming_L1-swe_no_translation,001,810,
GRABBA,,,0,123,123,16,,,,,,,,,2018_Sep_17_1307,59.604050633,verb_norming_L1-swe_no_translation,001,810,
GÅ,Arm,arm,0,124,124,106,0,0,0,0,1,2.074,,,2018_Sep_17_1307,59.604050633,verb_norming_L1-swe_no_translation,001,810,
GÅ,Ben,ben,0,124,124,106,0,1,1,1,7,0.517,,,2018_Sep_17_1307,59.604050633,verb_norming_L1-swe_no_translation,001,810,
GÅ,,,0,124,124,106,,,,,,,,,2018_Sep_17_1307,59.604050633,verb_norming_L1-swe_no_translation,001,810,
SLUNGA,Arm,arm,0,125,125,83,0,0,0,0,7,2.489,,,2018_Sep_17_1307,59.604050633,verb_norming_L1-swe_no_translation,001,810,
SLUNGA,Ben,ben,0,125,125,83,0,1,1,1,1,0.647,,,2018_Sep_17_1307,59.604050633,verb_norming_L1-swe_no_translation,001,810,
SLUNGA,,,0,125,125,83,,,,,,,,,2018_Sep_17_1307,59.604050633,verb_norming_L1-swe_no_translation,001,810,
TRASKA,Arm,arm,0,126,126,162,0,0,0,0,1,2.676,,,2018_Sep_17_1307,59.604050633,verb_norming_L1-swe_no_translation,001,810,
TRASKA,Ben,ben,0,126,126,162,0,1,1,1,7,0.464,,,2018_Sep_17_1307,59.604050633,verb_norming_L1-swe_no_translation,001,810,
TRASKA,,,0,126,126,162,,,,,,,,,2018_Sep_17_1307,59.604050633,verb_norming_L1-swe_no_translation,001,810,
PRESSA,Arm,arm,0,127,127,55,0,0,0,0,6,5.441,,,2018_Sep_17_1307,59.604050633,verb_norming_L1-swe_no_translation,001,810,
PRESSA,Ben,ben,0,127,127,55,0,1,1,1,4,2.157,,,2018_Sep_17_1307,59.604050633,verb_norming_L1-swe_no_translation,001,810,
PRESSA,,,0,127,127,55,,,,,,,,,2018_Sep_17_1307,59.604050633,verb_norming_L1-swe_no_translation,001,810,
RÖRA,Arm,arm,0,128,128,65,0,0,0,0,7,3.612,,,2018_Sep_17_1307,59.604050633,verb_norming_L1-swe_no_translation,001,810,
RÖRA,Ben,ben,0,128,128,65,0,1,1,1,6,1.302,,,2018_Sep_17_1307,59.604050633,verb_norming_L1-swe_no_translation,001,810,
RÖRA,,,0,128,128,65,,,,,,,,,2018_Sep_17_1307,59.604050633,verb_norming_L1-swe_no_translation,001,810,
VIKA,Arm,arm,0,129,129,98,0,0,0,0,7,2.358,,,2018_Sep_17_1307,59.604050633,verb_norming_L1-swe_no_translation,001,810,
VIKA,Ben,ben,0,129,129,98,0,1,1,1,1,1.137,,,2018_Sep_17_1307,59.604050633,verb_norming_L1-swe_no_translation,001,810,
VIKA,,,0,129,129,98,,,,,,,,,2018_Sep_17_1307,59.604050633,verb_norming_L1-swe_no_translation,001,810,
KNIPA,Arm,arm,0,130,130,37,0,0,0,0,4,7.774,,,2018_Sep_17_1307,59.604050633,verb_norming_L1-swe_no_translation,001,810,
KNIPA,Ben,ben,0,130,130,37,0,1,1,1,4,0.448,,,2018_Sep_17_1307,59.604050633,verb_norming_L1-swe_no_translation,001,810,
KNIPA,,,0,130,130,37,,,,,,,,,2018_Sep_17_1307,59.604050633,verb_norming_L1-swe_no_translation,001,810,
STIGA,Arm,arm,0,131,131,151,0,0,0,0,4,4.906,,,2018_Sep_17_1307,59.604050633,verb_norming_L1-swe_no_translation,001,810,
STIGA,Ben,ben,0,131,131,151,0,1,1,1,4,0.465,,,2018_Sep_17_1307,59.604050633,verb_norming_L1-swe_no_translation,001,810,
STIGA,,,0,131,131,151,,,,,,,,,2018_Sep_17_1307,59.604050633,verb_norming_L1-swe_no_translation,001,810,
SKUTTA,Arm,arm,0,132,132,137,0,0,0,0,1,2.321,,,2018_Sep_17_1307,59.604050633,verb_norming_L1-swe_no_translation,001,810,
SKUTTA,Ben,ben,0,132,132,137,0,1,1,1,7,0.446,,,2018_Sep_17_1307,59.604050633,verb_norming_L1-swe_no_translation,001,810,
SKUTTA,,,0,132,132,137,,,,,,,,,2018_Sep_17_1307,59.604050633,verb_norming_L1-swe_no_translation,001,810,
KLIPPA,Arm,arm,0,133,133,34,0,0,0,0,7,2.574,,,2018_Sep_17_1307,59.604050633,verb_norming_L1-swe_no_translation,001,810,
KLIPPA,Ben,ben,0,133,133,34,0,1,1,1,1,0.834,,,2018_Sep_17_1307,59.604050633,verb_norming_L1-swe_no_translation,001,810,
KLIPPA,,,0,133,133,34,,,,,,,,,2018_Sep_17_1307,59.604050633,verb_norming_L1-swe_no_translation,001,810,
SVEPA,Arm,arm,0,134,134,91,0,0,0,0,6,3.528,,,2018_Sep_17_1307,59.604050633,verb_norming_L1-swe_no_translation,001,810,
SVEPA,Ben,ben,0,134,134,91,0,1,1,1,2,0.564,,,2018_Sep_17_1307,59.604050633,verb_norming_L1-swe_no_translation,001,810,
SVEPA,,,0,134,134,91,,,,,,,,,2018_Sep_17_1307,59.604050633,verb_norming_L1-swe_no_translation,001,810,
LYFTA,Arm,arm,0,135,135,44,0,0,0,0,7,2.122,,,2018_Sep_17_1307,59.604050633,verb_norming_L1-swe_no_translation,001,810,
LYFTA,Ben,ben,0,135,135,44,0,1,1,1,2,0.884,,,2018_Sep_17_1307,59.604050633,verb_norming_L1-swe_no_translation,001,810,
LYFTA,,,0,135,135,44,,,,,,,,,2018_Sep_17_1307,59.604050633,verb_norming_L1-swe_no_translation,001,810,
KLÄMMA,Arm,arm,0,136,136,30,0,0,0,0,6,4.686,,,2018_Sep_17_1307,59.604050633,verb_norming_L1-swe_no_translation,001,810,
KLÄMMA,Ben,ben,0,136,136,30,0,1,1,1,4,1.872,,,2018_Sep_17_1307,59.604050633,verb_norming_L1-swe_no_translation,001,810,
KLÄMMA,,,0,136,136,30,,,,,,,,,2018_Sep_17_1307,59.604050633,verb_norming_L1-swe_no_translation,001,810,
SKEJTA,Arm,arm,0,137,137,135,0,0,0,0,1,2.64,,,2018_Sep_17_1307,59.604050633,verb_norming_L1-swe_no_translation,001,810,
SKEJTA,Ben,ben,0,137,137,135,0,1,1,1,7,0.563,,,2018_Sep_17_1307,59.604050633,verb_norming_L1-swe_no_translation,001,810,
SKEJTA,,,0,137,137,135,,,,,,,,,2018_Sep_17_1307,59.604050633,verb_norming_L1-swe_no_translation,001,810,
PUTSA,Arm,arm,0,138,138,56,0,0,0,0,7,2.272,,,2018_Sep_17_1307,59.604050633,verb_norming_L1-swe_no_translation,001,810,
PUTSA,Ben,ben,0,138,138,56,0,1,1,1,1,1.469,,,2018_Sep_17_1307,59.604050633,verb_norming_L1-swe_no_translation,001,810,
PUTSA,,,0,138,138,56,,,,,,,,,2018_Sep_17_1307,59.604050633,verb_norming_L1-swe_no_translation,001,810,
RULLA,Arm,arm,0,139,139,132,0,0,0,0,1,3.159,,,2018_Sep_17_1307,59.604050633,verb_norming_L1-swe_no_translation,001,810,
RULLA,Ben,ben,0,139,139,132,0,1,1,1,4,2.677,,,2018_Sep_17_1307,59.604050633,verb_norming_L1-swe_no_translation,001,810,
RULLA,,,0,139,139,132,,,,,,,,,2018_Sep_17_1307,59.604050633,verb_norming_L1-swe_no_translation,001,810,
RAKA,Arm,arm,0,140,140,59,0,0,0,0,7,2.626,,,2018_Sep_17_1307,59.604050633,verb_norming_L1-swe_no_translation,001,810,
RAKA,Ben,ben,0,140,140,59,0,1,1,1,1,2.814,,,2018_Sep_17_1307,59.604050633,verb_norming_L1-swe_no_translation,001,810,
RAKA,,,0,140,140,59,,,,,,,,,2018_Sep_17_1307,59.604050633,verb_norming_L1-swe_no_translation,001,810,
RASPA,Arm,arm,0,141,141,60,0,0,0,0,7,2.374,,,2018_Sep_17_1307,59.604050633,verb_norming_L1-swe_no_translation,001,810,
RASPA,Ben,ben,0,141,141,60,0,1,1,1,1,0.666,,,2018_Sep_17_1307,59.604050633,verb_norming_L1-swe_no_translation,001,810,
RASPA,,,0,141,141,60,,,,,,,,,2018_Sep_17_1307,59.604050633,verb_norming_L1-swe_no_translation,001,810,
TVÄTTA,Arm,arm,0,142,142,96,0,0,0,0,7,3.078,,,2018_Sep_17_1307,59.604050633,verb_norming_L1-swe_no_translation,001,810,
TVÄTTA,Ben,ben,0,142,142,96,0,1,1,1,1,0.917,,,2018_Sep_17_1307,59.604050633,verb_norming_L1-swe_no_translation,001,810,
TVÄTTA,,,0,142,142,96,,,,,,,,,2018_Sep_17_1307,59.604050633,verb_norming_L1-swe_no_translation,001,810,
REPA,Arm,arm,0,143,143,61,0,0,0,0,7,3.126,,,2018_Sep_17_1307,59.604050633,verb_norming_L1-swe_no_translation,001,810,
REPA,Ben,ben,0,143,143,61,0,1,1,1,1,0.95,,,2018_Sep_17_1307,59.604050633,verb_norming_L1-swe_no_translation,001,810,
REPA,,,0,143,143,61,,,,,,,,,2018_Sep_17_1307,59.604050633,verb_norming_L1-swe_no_translation,001,810,
SNAVA,Arm,arm,0,144,144,142,0,0,0,0,1,2.86,,,2018_Sep_17_1307,59.604050633,verb_norming_L1-swe_no_translation,001,810,
SNAVA,Ben,ben,0,144,144,142,0,1,1,1,6,0.616,,,2018_Sep_17_1307,59.604050633,verb_norming_L1-swe_no_translation,001,810,
SNAVA,,,0,144,144,142,,,,,,,,,2018_Sep_17_1307,59.604050633,verb_norming_L1-swe_no_translation,001,810,
CYKLA,Arm,arm,0,145,145,101,0,0,0,0,1,2.357,,,2018_Sep_17_1307,59.604050633,verb_norming_L1-swe_no_translation,001,810,
CYKLA,Ben,ben,0,145,145,101,0,1,1,1,7,0.499,,,2018_Sep_17_1307,59.604050633,verb_norming_L1-swe_no_translation,001,810,
CYKLA,,,0,145,145,101,,,,,,,,,2018_Sep_17_1307,59.604050633,verb_norming_L1-swe_no_translation,001,810,
RULTA,Arm,arm,0,146,146,133,0,0,0,0,4,2.64,,,2018_Sep_17_1307,59.604050633,verb_norming_L1-swe_no_translation,001,810,
RULTA,Ben,ben,0,146,146,133,0,1,1,1,4,0.463,,,2018_Sep_17_1307,59.604050633,verb_norming_L1-swe_no_translation,001,810,
RULTA,,,0,146,146,133,,,,,,,,,2018_Sep_17_1307,59.604050633,verb_norming_L1-swe_no_translation,001,810,
SMÄLLA,Arm,arm,0,147,147,84,0,0,0,0,7,3.328,,,2018_Sep_17_1307,59.604050633,verb_norming_L1-swe_no_translation,001,810,
SMÄLLA,Ben,ben,0,147,147,84,0,1,1,1,1,0.932,,,2018_Sep_17_1307,59.604050633,verb_norming_L1-swe_no_translation,001,810,
SMÄLLA,,,0,147,147,84,,,,,,,,,2018_Sep_17_1307,59.604050633,verb_norming_L1-swe_no_translation,001,810,
RISTA,Arm,arm,0,148,148,62,0,0,0,0,7,2.139,,,2018_Sep_17_1307,59.604050633,verb_norming_L1-swe_no_translation,001,810,
RISTA,Ben,ben,0,148,148,62,0,1,1,1,1,1.018,,,2018_Sep_17_1307,59.604050633,verb_norming_L1-swe_no_translation,001,810,
RISTA,,,0,148,148,62,,,,,,,,,2018_Sep_17_1307,59.604050633,verb_norming_L1-swe_no_translation,001,810,
HIVA,Arm,arm,0,149,149,24,0,0,0,0,7,1.905,,,2018_Sep_17_1307,59.604050633,verb_norming_L1-swe_no_translation,001,810,
HIVA,Ben,ben,0,149,149,24,0,1,1,1,1,0.649,,,2018_Sep_17_1307,59.604050633,verb_norming_L1-swe_no_translation,001,810,
HIVA,,,0,149,149,24,,,,,,,,,2018_Sep_17_1307,59.604050633,verb_norming_L1-swe_no_translation,001,810,
FÅNGA,Arm,arm,0,150,150,8,0,0,0,0,7,3.649,,,2018_Sep_17_1307,59.604050633,verb_norming_L1-swe_no_translation,001,810,
FÅNGA,Ben,ben,0,150,150,8,0,1,1,1,2,0.665,,,2018_Sep_17_1307,59.604050633,verb_norming_L1-swe_no_translation,001,810,
FÅNGA,,,0,150,150,8,,,,,,,,,2018_Sep_17_1307,59.604050633,verb_norming_L1-swe_no_translation,001,810,
SLIPA,Arm,arm,0,151,151,81,0,0,0,0,7,2.257,,,2018_Sep_17_1307,59.604050633,verb_norming_L1-swe_no_translation,001,810,
SLIPA,Ben,ben,0,151,151,81,0,1,1,1,1,0.666,,,2018_Sep_17_1307,59.604050633,verb_norming_L1-swe_no_translation,001,810,
SLIPA,,,0,151,151,81,,,,,,,,,2018_Sep_17_1307,59.604050633,verb_norming_L1-swe_no_translation,001,810,
SVASSA,Arm,arm,0,152,152,157,0,0,0,0,4,2.692,,,2018_Sep_17_1307,59.604050633,verb_norming_L1-swe_no_translation,001,810,
SVASSA,Ben,ben,0,152,152,157,0,1,1,1,4,1.286,,,2018_Sep_17_1307,59.604050633,verb_norming_L1-swe_no_translation,001,810,
SVASSA,,,0,152,152,157,,,,,,,,,2018_Sep_17_1307,59.604050633,verb_norming_L1-swe_no_translation,001,810,
KNÄA,Arm,arm,0,153,153,118,0,0,0,0,1,2.978,,,2018_Sep_17_1307,59.604050633,verb_norming_L1-swe_no_translation,001,810,
KNÄA,Ben,ben,0,153,153,118,0,1,1,1,7,0.566,,,2018_Sep_17_1307,59.604050633,verb_norming_L1-swe_no_translation,001,810,
KNÄA,,,0,153,153,118,,,,,,,,,2018_Sep_17_1307,59.604050633,verb_norming_L1-swe_no_translation,001,810,
GESTIKULERA,Arm,arm,0,154,154,13,0,0,0,0,6,7.03,,,2018_Sep_17_1307,59.604050633,verb_norming_L1-swe_no_translation,001,810,
GESTIKULERA,Ben,ben,0,154,154,13,0,1,1,1,1,1.281,,,2018_Sep_17_1307,59.604050633,verb_norming_L1-swe_no_translation,001,810,
GESTIKULERA,,,0,154,154,13,,,,,,,,,2018_Sep_17_1307,59.604050633,verb_norming_L1-swe_no_translation,001,810,
ÖSA,Arm,arm,0,155,155,48,0,0,0,0,7,2.491,,,2018_Sep_17_1307,59.604050633,verb_norming_L1-swe_no_translation,001,810,
ÖSA,Ben,ben,0,155,155,48,0,1,1,1,1,0.951,,,2018_Sep_17_1307,59.604050633,verb_norming_L1-swe_no_translation,001,810,
ÖSA,,,0,155,155,48,,,,,,,,,2018_Sep_17_1307,59.604050633,verb_norming_L1-swe_no_translation,001,810,
KNOGA,Arm,arm,0,156,156,121,0,0,0,0,7,1.821,,,2018_Sep_17_1307,59.604050633,verb_norming_L1-swe_no_translation,001,810,
KNOGA,Ben,ben,0,156,156,121,0,1,1,1,1,0.599,,,2018_Sep_17_1307,59.604050633,verb_norming_L1-swe_no_translation,001,810,
KNOGA,,,0,156,156,121,,,,,,,,,2018_Sep_17_1307,59.604050633,verb_norming_L1-swe_no_translation,001,810,
KOPPLA,Arm,arm,0,157,157,40,0,0,0,0,4,4.168,,,2018_Sep_17_1307,59.604050633,verb_norming_L1-swe_no_translation,001,810,
KOPPLA,Ben,ben,0,157,157,40,0,1,1,1,2,1.152,,,2018_Sep_17_1307,59.604050633,verb_norming_L1-swe_no_translation,001,810,
KOPPLA,,,0,157,157,40,,,,,,,,,2018_Sep_17_1307,59.604050633,verb_norming_L1-swe_no_translation,001,810,
SKÄRA,Arm,arm,0,158,158,71,0,0,0,0,7,2.156,,,2018_Sep_17_1307,59.604050633,verb_norming_L1-swe_no_translation,001,810,
SKÄRA,Ben,ben,0,158,158,71,0,1,1,1,1,2.125,,,2018_Sep_17_1307,59.604050633,verb_norming_L1-swe_no_translation,001,810,
SKÄRA,,,0,158,158,71,,,,,,,,,2018_Sep_17_1307,59.604050633,verb_norming_L1-swe_no_translation,001,810,
KLIA,Arm,arm,0,159,159,32,0,0,0,0,7,3.9,,,2018_Sep_17_1307,59.604050633,verb_norming_L1-swe_no_translation,001,810,
KLIA,Ben,ben,0,159,159,32,0,1,1,1,3,0.801,,,2018_Sep_17_1307,59.604050633,verb_norming_L1-swe_no_translation,001,810,
KLIA,,,0,159,159,32,,,,,,,,,2018_Sep_17_1307,59.604050633,verb_norming_L1-swe_no_translation,001,810,
SKUMMA,Arm,arm,0,160,160,76,0,0,0,0,4,6.229,,,2018_Sep_17_1307,59.604050633,verb_norming_L1-swe_no_translation,001,810,
SKUMMA,Ben,ben,0,160,160,76,0,1,1,1,4,0.513,,,2018_Sep_17_1307,59.604050633,verb_norming_L1-swe_no_translation,001,810,
SKUMMA,,,0,160,160,76,,,,,,,,,2018_Sep_17_1307,59.604050633,verb_norming_L1-swe_no_translation,001,810,
KLAPPA,Arm,arm,0,161,161,31,0,0,0,0,7,9.149,,,2018_Sep_17_1307,59.604050633,verb_norming_L1-swe_no_translation,001,810,
KLAPPA,Ben,ben,0,161,161,31,0,1,1,1,1,1.035,,,2018_Sep_17_1307,59.604050633,verb_norming_L1-swe_no_translation,001,810,
KLAPPA,,,0,161,161,31,,,,,,,,,2018_Sep_17_1307,59.604050633,verb_norming_L1-swe_no_translation,001,810,
HÅVA,Arm,arm,0,162,162,22,0,0,0,0,7,3.113,,,2018_Sep_17_1307,59.604050633,verb_norming_L1-swe_no_translation,001,810,
HÅVA,Ben,ben,0,162,162,22,0,1,1,1,1,1.874,,,2018_Sep_17_1307,59.604050633,verb_norming_L1-swe_no_translation,001,810,
HÅVA,,,0,162,162,22,,,,,,,,,2018_Sep_17_1307,59.604050633,verb_norming_L1-swe_no_translation,001,810,
SMYGA,Arm,arm,0,163,163,141,0,0,0,0,1,3.413,,,2018_Sep_17_1307,59.604050633,verb_norming_L1-swe_no_translation,001,810,
SMYGA,Ben,ben,0,163,163,141,0,1,1,1,7,1.402,,,2018_Sep_17_1307,59.604050633,verb_norming_L1-swe_no_translation,001,810,
SMYGA,,,0,163,163,141,,,,,,,,,2018_Sep_17_1307,59.604050633,verb_norming_L1-swe_no_translation,001,810,
KILA,Arm,arm,0,164,164,115,0,0,0,0,1,2.66,,,2018_Sep_17_1307,59.604050633,verb_norming_L1-swe_no_translation,001,810,
KILA,Ben,ben,0,164,164,115,0,1,1,1,7,0.533,,,2018_Sep_17_1307,59.604050633,verb_norming_L1-swe_no_translation,001,810,
KILA,,,0,164,164,115,,,,,,,,,2018_Sep_17_1307,59.604050633,verb_norming_L1-swe_no_translation,001,810,
STÄDA,Arm,arm,0,165,165,88,0,0,0,0,7,2.743,,,2018_Sep_17_1307,59.604050633,verb_norming_L1-swe_no_translation,001,810,
STÄDA,Ben,ben,0,165,165,88,0,1,1,1,1,0.901,,,2018_Sep_17_1307,59.604050633,verb_norming_L1-swe_no_translation,001,810,
STÄDA,,,0,165,165,88,,,,,,,,,2018_Sep_17_1307,59.604050633,verb_norming_L1-swe_no_translation,001,810,
PLOCKA,Arm,arm,0,166,166,53,0,0,0,0,7,1.837,,,2018_Sep_17_1307,59.604050633,verb_norming_L1-swe_no_translation,001,810,
PLOCKA,Ben,ben,0,166,166,53,0,1,1,1,1,0.598,,,2018_Sep_17_1307,59.604050633,verb_norming_L1-swe_no_translation,001,810,
PLOCKA,,,0,166,166,53,,,,,,,,,2018_Sep_17_1307,59.604050633,verb_norming_L1-swe_no_translation,001,810,
PINNA,Arm,arm,0,167,167,128,0,0,0,0,4,2.642,,,2018_Sep_17_1307,59.604050633,verb_norming_L1-swe_no_translation,001,810,
PINNA,Ben,ben,0,167,167,128,0,1,1,1,4,0.482,,,2018_Sep_17_1307,59.604050633,verb_norming_L1-swe_no_translation,001,810,
PINNA,,,0,167,167,128,,,,,,,,,2018_Sep_17_1307,59.604050633,verb_norming_L1-swe_no_translation,001,810,
NYPA,Arm,arm,0,168,168,47,0,0,0,0,7,5.108,,,2018_Sep_17_1307,59.604050633,verb_norming_L1-swe_no_translation,001,810,
NYPA,Ben,ben,0,168,168,47,0,1,1,1,1,0.583,,,2018_Sep_17_1307,59.604050633,verb_norming_L1-swe_no_translation,001,810,
NYPA,,,0,168,168,47,,,,,,,,,2018_Sep_17_1307,59.604050633,verb_norming_L1-swe_no_translation,001,810,
,,,,,,,,,,,,,space,7.81566668787,2018_Sep_17_1307,59.604050633,verb_norming_L1-swe_no_translation,001,810,
