word,category,category_lowercase,trials.thisRepN,trials.thisTrialN,trials.thisN,trials.thisIndex,armleg_loop.thisRepN,armleg_loop.thisTrialN,armleg_loop.thisN,armleg_loop.thisIndex,rating.response,rating.rt,key_resp_8.keys,key_resp_8.rt,date,frameRate,expName,session,participant,
TASSA,Ben/fötter,ben/fötter,0,0,0,159,0,0,0,0,7,7.213,,,2018_Sep_18_1301,59.5767413723,verb_norming_L1-swe_no_translation,001,811,
TASSA,Armar/händer,armar/händer,0,0,0,159,0,1,1,1,7,7.196,,,2018_Sep_18_1301,59.5767413723,verb_norming_L1-swe_no_translation,001,811,
TASSA,,,0,0,0,159,,,,,,,,,2018_Sep_18_1301,59.5767413723,verb_norming_L1-swe_no_translation,001,811,
KLIA,Ben/fötter,ben/fötter,0,1,1,32,0,0,0,0,1,8.972,,,2018_Sep_18_1301,59.5767413723,verb_norming_L1-swe_no_translation,001,811,
KLIA,Armar/händer,armar/händer,0,1,1,32,0,1,1,1,7,4.312,,,2018_Sep_18_1301,59.5767413723,verb_norming_L1-swe_no_translation,001,811,
KLIA,,,0,1,1,32,,,,,,,,,2018_Sep_18_1301,59.5767413723,verb_norming_L1-swe_no_translation,001,811,
STÖTA,Ben/fötter,ben/fötter,0,2,2,89,0,0,0,0,3,18.48,,,2018_Sep_18_1301,59.5767413723,verb_norming_L1-swe_no_translation,001,811,
STÖTA,Armar/händer,armar/händer,0,2,2,89,0,1,1,1,6,3.69,,,2018_Sep_18_1301,59.5767413723,verb_norming_L1-swe_no_translation,001,811,
STÖTA,,,0,2,2,89,,,,,,,,,2018_Sep_18_1301,59.5767413723,verb_norming_L1-swe_no_translation,001,811,
KLÄMMA,Ben/fötter,ben/fötter,0,3,3,30,0,0,0,0,2,7.412,,,2018_Sep_18_1301,59.5767413723,verb_norming_L1-swe_no_translation,001,811,
KLÄMMA,Armar/händer,armar/händer,0,3,3,30,0,1,1,1,6,3.154,,,2018_Sep_18_1301,59.5767413723,verb_norming_L1-swe_no_translation,001,811,
KLÄMMA,,,0,3,3,30,,,,,,,,,2018_Sep_18_1301,59.5767413723,verb_norming_L1-swe_no_translation,001,811,
BINDA,Ben/fötter,ben/fötter,0,4,4,2,0,0,0,0,5,11.355,,,2018_Sep_18_1301,59.5767413723,verb_norming_L1-swe_no_translation,001,811,
BINDA,Armar/händer,armar/händer,0,4,4,2,0,1,1,1,7,2.316,,,2018_Sep_18_1301,59.5767413723,verb_norming_L1-swe_no_translation,001,811,
BINDA,,,0,4,4,2,,,,,,,,,2018_Sep_18_1301,59.5767413723,verb_norming_L1-swe_no_translation,001,811,
SKRAPA,Ben/fötter,ben/fötter,0,5,5,74,0,0,0,0,7,11.018,,,2018_Sep_18_1301,59.5767413723,verb_norming_L1-swe_no_translation,001,811,
SKRAPA,Armar/händer,armar/händer,0,5,5,74,0,1,1,1,5,2.718,,,2018_Sep_18_1301,59.5767413723,verb_norming_L1-swe_no_translation,001,811,
SKRAPA,,,0,5,5,74,,,,,,,,,2018_Sep_18_1301,59.5767413723,verb_norming_L1-swe_no_translation,001,811,
ÅLA,Ben/fötter,ben/fötter,0,6,6,100,0,0,0,0,3,7.228,,,2018_Sep_18_1301,59.5767413723,verb_norming_L1-swe_no_translation,001,811,
ÅLA,Armar/händer,armar/händer,0,6,6,100,0,1,1,1,6,6.475,,,2018_Sep_18_1301,59.5767413723,verb_norming_L1-swe_no_translation,001,811,
ÅLA,,,0,6,6,100,,,,,,,,,2018_Sep_18_1301,59.5767413723,verb_norming_L1-swe_no_translation,001,811,
RÖRA,Ben/fötter,ben/fötter,0,7,7,65,0,0,0,0,7,5.351,,,2018_Sep_18_1301,59.5767413723,verb_norming_L1-swe_no_translation,001,811,
RÖRA,Armar/händer,armar/händer,0,7,7,65,0,1,1,1,7,1.258,,,2018_Sep_18_1301,59.5767413723,verb_norming_L1-swe_no_translation,001,811,
RÖRA,,,0,7,7,65,,,,,,,,,2018_Sep_18_1301,59.5767413723,verb_norming_L1-swe_no_translation,001,811,
NORPA,Ben/fötter,ben/fötter,0,8,8,46,0,0,0,0,1,3.791,,,2018_Sep_18_1301,59.5767413723,verb_norming_L1-swe_no_translation,001,811,
NORPA,Armar/händer,armar/händer,0,8,8,46,0,1,1,1,7,8.654,,,2018_Sep_18_1301,59.5767413723,verb_norming_L1-swe_no_translation,001,811,
NORPA,,,0,8,8,46,,,,,,,,,2018_Sep_18_1301,59.5767413723,verb_norming_L1-swe_no_translation,001,811,
SVAJA,Ben/fötter,ben/fötter,0,9,9,156,0,0,0,0,4,6.641,,,2018_Sep_18_1301,59.5767413723,verb_norming_L1-swe_no_translation,001,811,
SVAJA,Armar/händer,armar/händer,0,9,9,156,0,1,1,1,5,3.154,,,2018_Sep_18_1301,59.5767413723,verb_norming_L1-swe_no_translation,001,811,
SVAJA,,,0,9,9,156,,,,,,,,,2018_Sep_18_1301,59.5767413723,verb_norming_L1-swe_no_translation,001,811,
SKUMMA,Ben/fötter,ben/fötter,0,10,10,76,0,0,0,0,1,3.906,,,2018_Sep_18_1301,59.5767413723,verb_norming_L1-swe_no_translation,001,811,
SKUMMA,Armar/händer,armar/händer,0,10,10,76,0,1,1,1,1,3.724,,,2018_Sep_18_1301,59.5767413723,verb_norming_L1-swe_no_translation,001,811,
SKUMMA,,,0,10,10,76,,,,,,,,,2018_Sep_18_1301,59.5767413723,verb_norming_L1-swe_no_translation,001,811,
SVEPA,Ben/fötter,ben/fötter,0,11,11,91,0,0,0,0,1,4.675,,,2018_Sep_18_1301,59.5767413723,verb_norming_L1-swe_no_translation,001,811,
SVEPA,Armar/händer,armar/händer,0,11,11,91,0,1,1,1,6,4.662,,,2018_Sep_18_1301,59.5767413723,verb_norming_L1-swe_no_translation,001,811,
SVEPA,,,0,11,11,91,,,,,,,,,2018_Sep_18_1301,59.5767413723,verb_norming_L1-swe_no_translation,001,811,
STIGA,Ben/fötter,ben/fötter,0,12,12,151,0,0,0,0,7,4.257,,,2018_Sep_18_1301,59.5767413723,verb_norming_L1-swe_no_translation,001,811,
STIGA,Armar/händer,armar/händer,0,12,12,151,0,1,1,1,1,4.242,,,2018_Sep_18_1301,59.5767413723,verb_norming_L1-swe_no_translation,001,811,
STIGA,,,0,12,12,151,,,,,,,,,2018_Sep_18_1301,59.5767413723,verb_norming_L1-swe_no_translation,001,811,
HÖJA,Ben/fötter,ben/fötter,0,13,13,25,0,0,0,0,1,6.039,,,2018_Sep_18_1301,59.5767413723,verb_norming_L1-swe_no_translation,001,811,
HÖJA,Armar/händer,armar/händer,0,13,13,25,0,1,1,1,6,2.685,,,2018_Sep_18_1301,59.5767413723,verb_norming_L1-swe_no_translation,001,811,
HÖJA,,,0,13,13,25,,,,,,,,,2018_Sep_18_1301,59.5767413723,verb_norming_L1-swe_no_translation,001,811,
RAKA,Ben/fötter,ben/fötter,0,14,14,59,0,0,0,0,6,6.944,,,2018_Sep_18_1301,59.5767413723,verb_norming_L1-swe_no_translation,001,811,
RAKA,Armar/händer,armar/händer,0,14,14,59,0,1,1,1,2,3.977,,,2018_Sep_18_1301,59.5767413723,verb_norming_L1-swe_no_translation,001,811,
RAKA,,,0,14,14,59,,,,,,,,,2018_Sep_18_1301,59.5767413723,verb_norming_L1-swe_no_translation,001,811,
HALKA,Ben/fötter,ben/fötter,0,15,15,109,0,0,0,0,7,5.988,,,2018_Sep_18_1301,59.5767413723,verb_norming_L1-swe_no_translation,001,811,
HALKA,Armar/händer,armar/händer,0,15,15,109,0,1,1,1,1,3.271,,,2018_Sep_18_1301,59.5767413723,verb_norming_L1-swe_no_translation,001,811,
HALKA,,,0,15,15,109,,,,,,,,,2018_Sep_18_1301,59.5767413723,verb_norming_L1-swe_no_translation,001,811,
SMYGA,Ben/fötter,ben/fötter,0,16,16,141,0,0,0,0,6,5.833,,,2018_Sep_18_1301,59.5767413723,verb_norming_L1-swe_no_translation,001,811,
SMYGA,Armar/händer,armar/händer,0,16,16,141,0,1,1,1,1,2.934,,,2018_Sep_18_1301,59.5767413723,verb_norming_L1-swe_no_translation,001,811,
SMYGA,,,0,16,16,141,,,,,,,,,2018_Sep_18_1301,59.5767413723,verb_norming_L1-swe_no_translation,001,811,
RIVA,Ben/fötter,ben/fötter,0,17,17,63,0,0,0,0,5,5.704,,,2018_Sep_18_1301,59.5767413723,verb_norming_L1-swe_no_translation,001,811,
RIVA,Armar/händer,armar/händer,0,17,17,63,0,1,1,1,7,2.333,,,2018_Sep_18_1301,59.5767413723,verb_norming_L1-swe_no_translation,001,811,
RIVA,,,0,17,17,63,,,,,,,,,2018_Sep_18_1301,59.5767413723,verb_norming_L1-swe_no_translation,001,811,
GÅ,Ben/fötter,ben/fötter,0,18,18,106,0,0,0,0,7,2.936,,,2018_Sep_18_1301,59.5767413723,verb_norming_L1-swe_no_translation,001,811,
GÅ,Armar/händer,armar/händer,0,18,18,106,0,1,1,1,2,4.48,,,2018_Sep_18_1301,59.5767413723,verb_norming_L1-swe_no_translation,001,811,
GÅ,,,0,18,18,106,,,,,,,,,2018_Sep_18_1301,59.5767413723,verb_norming_L1-swe_no_translation,001,811,
KLÅ,Ben/fötter,ben/fötter,0,19,19,29,0,0,0,0,3,6.76,,,2018_Sep_18_1301,59.5767413723,verb_norming_L1-swe_no_translation,001,811,
KLÅ,Armar/händer,armar/händer,0,19,19,29,0,1,1,1,7,5.486,,,2018_Sep_18_1301,59.5767413723,verb_norming_L1-swe_no_translation,001,811,
KLÅ,,,0,19,19,29,,,,,,,,,2018_Sep_18_1301,59.5767413723,verb_norming_L1-swe_no_translation,001,811,
HALTA,Ben/fötter,ben/fötter,0,20,20,110,0,0,0,0,7,3.489,,,2018_Sep_18_1301,59.5767413723,verb_norming_L1-swe_no_translation,001,811,
HALTA,Armar/händer,armar/händer,0,20,20,110,0,1,1,1,1,3.406,,,2018_Sep_18_1301,59.5767413723,verb_norming_L1-swe_no_translation,001,811,
HALTA,,,0,20,20,110,,,,,,,,,2018_Sep_18_1301,59.5767413723,verb_norming_L1-swe_no_translation,001,811,
PADDLA,Ben/fötter,ben/fötter,0,21,21,49,0,0,0,0,2,6.054,,,2018_Sep_18_1301,59.5767413723,verb_norming_L1-swe_no_translation,001,811,
PADDLA,Armar/händer,armar/händer,0,21,21,49,0,1,1,1,7,3.842,,,2018_Sep_18_1301,59.5767413723,verb_norming_L1-swe_no_translation,001,811,
PADDLA,,,0,21,21,49,,,,,,,,,2018_Sep_18_1301,59.5767413723,verb_norming_L1-swe_no_translation,001,811,
IRRA,Ben/fötter,ben/fötter,0,22,22,113,0,0,0,0,2,7.347,,,2018_Sep_18_1301,59.5767413723,verb_norming_L1-swe_no_translation,001,811,
IRRA,Armar/händer,armar/händer,0,22,22,113,0,1,1,1,2,1.779,,,2018_Sep_18_1301,59.5767413723,verb_norming_L1-swe_no_translation,001,811,
IRRA,,,0,22,22,113,,,,,,,,,2018_Sep_18_1301,59.5767413723,verb_norming_L1-swe_no_translation,001,811,
HOPPA,Ben/fötter,ben/fötter,0,23,23,111,0,0,0,0,7,7.246,,,2018_Sep_18_1301,59.5767413723,verb_norming_L1-swe_no_translation,001,811,
HOPPA,Armar/händer,armar/händer,0,23,23,111,0,1,1,1,6,1.846,,,2018_Sep_18_1301,59.5767413723,verb_norming_L1-swe_no_translation,001,811,
HOPPA,,,0,23,23,111,,,,,,,,,2018_Sep_18_1301,59.5767413723,verb_norming_L1-swe_no_translation,001,811,
SNÄRTA,Ben/fötter,ben/fötter,0,24,24,86,0,0,0,0,1,4.058,,,2018_Sep_18_1301,59.5767413723,verb_norming_L1-swe_no_translation,001,811,
SNÄRTA,Armar/händer,armar/händer,0,24,24,86,0,1,1,1,4,6.844,,,2018_Sep_18_1301,59.5767413723,verb_norming_L1-swe_no_translation,001,811,
SNÄRTA,,,0,24,24,86,,,,,,,,,2018_Sep_18_1301,59.5767413723,verb_norming_L1-swe_no_translation,001,811,
KRATSA,Ben/fötter,ben/fötter,0,25,25,42,0,0,0,0,1,4.226,,,2018_Sep_18_1301,59.5767413723,verb_norming_L1-swe_no_translation,001,811,
KRATSA,Armar/händer,armar/händer,0,25,25,42,0,1,1,1,6,3.674,,,2018_Sep_18_1301,59.5767413723,verb_norming_L1-swe_no_translation,001,811,
KRATSA,,,0,25,25,42,,,,,,,,,2018_Sep_18_1301,59.5767413723,verb_norming_L1-swe_no_translation,001,811,
HIVA,Ben/fötter,ben/fötter,0,26,26,24,0,0,0,0,1,4.764,,,2018_Sep_18_1301,59.5767413723,verb_norming_L1-swe_no_translation,001,811,
HIVA,Armar/händer,armar/händer,0,26,26,24,0,1,1,1,7,2.702,,,2018_Sep_18_1301,59.5767413723,verb_norming_L1-swe_no_translation,001,811,
HIVA,,,0,26,26,24,,,,,,,,,2018_Sep_18_1301,59.5767413723,verb_norming_L1-swe_no_translation,001,811,
VANKA,Ben/fötter,ben/fötter,0,27,27,167,0,0,0,0,7,3.455,,,2018_Sep_18_1301,59.5767413723,verb_norming_L1-swe_no_translation,001,811,
VANKA,Armar/händer,armar/händer,0,27,27,167,0,1,1,1,2,3.037,,,2018_Sep_18_1301,59.5767413723,verb_norming_L1-swe_no_translation,001,811,
VANKA,,,0,27,27,167,,,,,,,,,2018_Sep_18_1301,59.5767413723,verb_norming_L1-swe_no_translation,001,811,
KASTA,Ben/fötter,ben/fötter,0,28,28,27,0,0,0,0,2,4.63,,,2018_Sep_18_1301,59.5767413723,verb_norming_L1-swe_no_translation,001,811,
KASTA,Armar/händer,armar/händer,0,28,28,27,0,1,1,1,7,2.383,,,2018_Sep_18_1301,59.5767413723,verb_norming_L1-swe_no_translation,001,811,
KASTA,,,0,28,28,27,,,,,,,,,2018_Sep_18_1301,59.5767413723,verb_norming_L1-swe_no_translation,001,811,
SPARKA,Ben/fötter,ben/fötter,0,29,29,144,0,0,0,0,7,2.85,,,2018_Sep_18_1301,59.5767413723,verb_norming_L1-swe_no_translation,001,811,
SPARKA,Armar/händer,armar/händer,0,29,29,144,0,1,1,1,2,2.953,,,2018_Sep_18_1301,59.5767413723,verb_norming_L1-swe_no_translation,001,811,
SPARKA,,,0,29,29,144,,,,,,,,,2018_Sep_18_1301,59.5767413723,verb_norming_L1-swe_no_translation,001,811,
DUNKA,Ben/fötter,ben/fötter,0,30,30,7,0,0,0,0,3,3.671,,,2018_Sep_18_1301,59.5767413723,verb_norming_L1-swe_no_translation,001,811,
DUNKA,Armar/händer,armar/händer,0,30,30,7,0,1,1,1,6,3.154,,,2018_Sep_18_1301,59.5767413723,verb_norming_L1-swe_no_translation,001,811,
DUNKA,,,0,30,30,7,,,,,,,,,2018_Sep_18_1301,59.5767413723,verb_norming_L1-swe_no_translation,001,811,
NAPPA,Ben/fötter,ben/fötter,0,31,31,45,0,0,0,0,1,3.825,,,2018_Sep_18_1301,59.5767413723,verb_norming_L1-swe_no_translation,001,811,
NAPPA,Armar/händer,armar/händer,0,31,31,45,0,1,1,1,7,4.161,,,2018_Sep_18_1301,59.5767413723,verb_norming_L1-swe_no_translation,001,811,
NAPPA,,,0,31,31,45,,,,,,,,,2018_Sep_18_1301,59.5767413723,verb_norming_L1-swe_no_translation,001,811,
SKÄRA,Ben/fötter,ben/fötter,0,32,32,71,0,0,0,0,1,5.988,,,2018_Sep_18_1301,59.5767413723,verb_norming_L1-swe_no_translation,001,811,
SKÄRA,Armar/händer,armar/händer,0,32,32,71,0,1,1,1,7,2.919,,,2018_Sep_18_1301,59.5767413723,verb_norming_L1-swe_no_translation,001,811,
SKÄRA,,,0,32,32,71,,,,,,,,,2018_Sep_18_1301,59.5767413723,verb_norming_L1-swe_no_translation,001,811,
TVÄTTA,Ben/fötter,ben/fötter,0,33,33,96,0,0,0,0,3,6.558,,,2018_Sep_18_1301,59.5767413723,verb_norming_L1-swe_no_translation,001,811,
TVÄTTA,Armar/händer,armar/händer,0,33,33,96,0,1,1,1,7,3.22,,,2018_Sep_18_1301,59.5767413723,verb_norming_L1-swe_no_translation,001,811,
TVÄTTA,,,0,33,33,96,,,,,,,,,2018_Sep_18_1301,59.5767413723,verb_norming_L1-swe_no_translation,001,811,
STEGA,Ben/fötter,ben/fötter,0,34,34,150,0,0,0,0,7,3.688,,,2018_Sep_18_1301,59.5767413723,verb_norming_L1-swe_no_translation,001,811,
STEGA,Armar/händer,armar/händer,0,34,34,150,0,1,1,1,2,1.91,,,2018_Sep_18_1301,59.5767413723,verb_norming_L1-swe_no_translation,001,811,
STEGA,,,0,34,34,150,,,,,,,,,2018_Sep_18_1301,59.5767413723,verb_norming_L1-swe_no_translation,001,811,
PLOCKA,Ben/fötter,ben/fötter,0,35,35,53,0,0,0,0,1,7.761,,,2018_Sep_18_1301,59.5767413723,verb_norming_L1-swe_no_translation,001,811,
PLOCKA,Armar/händer,armar/händer,0,35,35,53,0,1,1,1,7,2.129,,,2018_Sep_18_1301,59.5767413723,verb_norming_L1-swe_no_translation,001,811,
PLOCKA,,,0,35,35,53,,,,,,,,,2018_Sep_18_1301,59.5767413723,verb_norming_L1-swe_no_translation,001,811,
SKURA,Ben/fötter,ben/fötter,0,36,36,77,0,0,0,0,1,3.656,,,2018_Sep_18_1301,59.5767413723,verb_norming_L1-swe_no_translation,001,811,
SKURA,Armar/händer,armar/händer,0,36,36,77,0,1,1,1,7,2.818,,,2018_Sep_18_1301,59.5767413723,verb_norming_L1-swe_no_translation,001,811,
SKURA,,,0,36,36,77,,,,,,,,,2018_Sep_18_1301,59.5767413723,verb_norming_L1-swe_no_translation,001,811,
SPRINGA,Ben/fötter,ben/fötter,0,37,37,145,0,0,0,0,7,4.023,,,2018_Sep_18_1301,59.5767413723,verb_norming_L1-swe_no_translation,001,811,
SPRINGA,Armar/händer,armar/händer,0,37,37,145,0,1,1,1,2,2.833,,,2018_Sep_18_1301,59.5767413723,verb_norming_L1-swe_no_translation,001,811,
SPRINGA,,,0,37,37,145,,,,,,,,,2018_Sep_18_1301,59.5767413723,verb_norming_L1-swe_no_translation,001,811,
SKEJTA,Ben/fötter,ben/fötter,0,38,38,135,0,0,0,0,7,3.554,,,2018_Sep_18_1301,59.5767413723,verb_norming_L1-swe_no_translation,001,811,
SKEJTA,Armar/händer,armar/händer,0,38,38,135,0,1,1,1,3,3.839,,,2018_Sep_18_1301,59.5767413723,verb_norming_L1-swe_no_translation,001,811,
SKEJTA,,,0,38,38,135,,,,,,,,,2018_Sep_18_1301,59.5767413723,verb_norming_L1-swe_no_translation,001,811,
DRA,Ben/fötter,ben/fötter,0,39,39,6,0,0,0,0,5,7.113,,,2018_Sep_18_1301,59.5767413723,verb_norming_L1-swe_no_translation,001,811,
DRA,Armar/händer,armar/händer,0,39,39,6,0,1,1,1,6,3.424,,,2018_Sep_18_1301,59.5767413723,verb_norming_L1-swe_no_translation,001,811,
DRA,,,0,39,39,6,,,,,,,,,2018_Sep_18_1301,59.5767413723,verb_norming_L1-swe_no_translation,001,811,
GRÄVA,Ben/fötter,ben/fötter,0,40,40,17,0,0,0,0,1,4.209,,,2018_Sep_18_1301,59.5767413723,verb_norming_L1-swe_no_translation,001,811,
GRÄVA,Armar/händer,armar/händer,0,40,40,17,0,1,1,1,7,2.147,,,2018_Sep_18_1301,59.5767413723,verb_norming_L1-swe_no_translation,001,811,
GRÄVA,,,0,40,40,17,,,,,,,,,2018_Sep_18_1301,59.5767413723,verb_norming_L1-swe_no_translation,001,811,
FLÄTA,Ben/fötter,ben/fötter,0,41,41,11,0,0,0,0,1,3.673,,,2018_Sep_18_1301,59.5767413723,verb_norming_L1-swe_no_translation,001,811,
FLÄTA,Armar/händer,armar/händer,0,41,41,11,0,1,1,1,7,6.827,,,2018_Sep_18_1301,59.5767413723,verb_norming_L1-swe_no_translation,001,811,
FLÄTA,,,0,41,41,11,,,,,,,,,2018_Sep_18_1301,59.5767413723,verb_norming_L1-swe_no_translation,001,811,
STÅ,Ben/fötter,ben/fötter,0,42,42,147,0,0,0,0,7,3.993,,,2018_Sep_18_1301,59.5767413723,verb_norming_L1-swe_no_translation,001,811,
STÅ,Armar/händer,armar/händer,0,42,42,147,0,1,1,1,3,4.06,,,2018_Sep_18_1301,59.5767413723,verb_norming_L1-swe_no_translation,001,811,
STÅ,,,0,42,42,147,,,,,,,,,2018_Sep_18_1301,59.5767413723,verb_norming_L1-swe_no_translation,001,811,
KELA,Ben/fötter,ben/fötter,0,43,43,28,0,0,0,0,1,6.875,,,2018_Sep_18_1301,59.5767413723,verb_norming_L1-swe_no_translation,001,811,
KELA,Armar/händer,armar/händer,0,43,43,28,0,1,1,1,6,5.752,,,2018_Sep_18_1301,59.5767413723,verb_norming_L1-swe_no_translation,001,811,
KELA,,,0,43,43,28,,,,,,,,,2018_Sep_18_1301,59.5767413723,verb_norming_L1-swe_no_translation,001,811,
RO,Ben/fötter,ben/fötter,0,44,44,64,0,0,0,0,2,6.14,,,2018_Sep_18_1301,59.5767413723,verb_norming_L1-swe_no_translation,001,811,
RO,Armar/händer,armar/händer,0,44,44,64,0,1,1,1,7,3.541,,,2018_Sep_18_1301,59.5767413723,verb_norming_L1-swe_no_translation,001,811,
RO,,,0,44,44,64,,,,,,,,,2018_Sep_18_1301,59.5767413723,verb_norming_L1-swe_no_translation,001,811,
SLUNGA,Ben/fötter,ben/fötter,0,45,45,83,0,0,0,0,1,6.202,,,2018_Sep_18_1301,59.5767413723,verb_norming_L1-swe_no_translation,001,811,
SLUNGA,Armar/händer,armar/händer,0,45,45,83,0,1,1,1,7,2.347,,,2018_Sep_18_1301,59.5767413723,verb_norming_L1-swe_no_translation,001,811,
SLUNGA,,,0,45,45,83,,,,,,,,,2018_Sep_18_1301,59.5767413723,verb_norming_L1-swe_no_translation,001,811,
SLÄNTRA,Ben/fötter,ben/fötter,0,46,46,139,0,0,0,0,7,6.373,,,2018_Sep_18_1301,59.5767413723,verb_norming_L1-swe_no_translation,001,811,
SLÄNTRA,Armar/händer,armar/händer,0,46,46,139,0,1,1,1,1,2.096,,,2018_Sep_18_1301,59.5767413723,verb_norming_L1-swe_no_translation,001,811,
SLÄNTRA,,,0,46,46,139,,,,,,,,,2018_Sep_18_1301,59.5767413723,verb_norming_L1-swe_no_translation,001,811,
SKRIDA,Ben/fötter,ben/fötter,0,47,47,136,0,0,0,0,7,3.891,,,2018_Sep_18_1301,59.5767413723,verb_norming_L1-swe_no_translation,001,811,
SKRIDA,Armar/händer,armar/händer,0,47,47,136,0,1,1,1,1,2.634,,,2018_Sep_18_1301,59.5767413723,verb_norming_L1-swe_no_translation,001,811,
SKRIDA,,,0,47,47,136,,,,,,,,,2018_Sep_18_1301,59.5767413723,verb_norming_L1-swe_no_translation,001,811,
KNACKA,Ben/fötter,ben/fötter,0,48,48,36,0,0,0,0,1,4.125,,,2018_Sep_18_1301,59.5767413723,verb_norming_L1-swe_no_translation,001,811,
KNACKA,Armar/händer,armar/händer,0,48,48,36,0,1,1,1,7,2.749,,,2018_Sep_18_1301,59.5767413723,verb_norming_L1-swe_no_translation,001,811,
KNACKA,,,0,48,48,36,,,,,,,,,2018_Sep_18_1301,59.5767413723,verb_norming_L1-swe_no_translation,001,811,
RULTA,Ben/fötter,ben/fötter,0,49,49,133,0,0,0,0,5,5.77,,,2018_Sep_18_1301,59.5767413723,verb_norming_L1-swe_no_translation,001,811,
RULTA,Armar/händer,armar/händer,0,49,49,133,0,1,1,1,1,2.467,,,2018_Sep_18_1301,59.5767413723,verb_norming_L1-swe_no_translation,001,811,
RULTA,,,0,49,49,133,,,,,,,,,2018_Sep_18_1301,59.5767413723,verb_norming_L1-swe_no_translation,001,811,
ÖSA,Ben/fötter,ben/fötter,0,50,50,48,0,0,0,0,1,4.195,,,2018_Sep_18_1301,59.5767413723,verb_norming_L1-swe_no_translation,001,811,
ÖSA,Armar/händer,armar/händer,0,50,50,48,0,1,1,1,7,1.947,,,2018_Sep_18_1301,59.5767413723,verb_norming_L1-swe_no_translation,001,811,
ÖSA,,,0,50,50,48,,,,,,,,,2018_Sep_18_1301,59.5767413723,verb_norming_L1-swe_no_translation,001,811,
BADDA,Ben/fötter,ben/fötter,0,51,51,0,0,0,0,0,2,6.071,,,2018_Sep_18_1301,59.5767413723,verb_norming_L1-swe_no_translation,001,811,
BADDA,Armar/händer,armar/händer,0,51,51,0,0,1,1,1,7,2.483,,,2018_Sep_18_1301,59.5767413723,verb_norming_L1-swe_no_translation,001,811,
BADDA,,,0,51,51,0,,,,,,,,,2018_Sep_18_1301,59.5767413723,verb_norming_L1-swe_no_translation,001,811,
TRUMMA,Ben/fötter,ben/fötter,0,52,52,94,0,0,0,0,4,5.903,,,2018_Sep_18_1301,59.5767413723,verb_norming_L1-swe_no_translation,001,811,
TRUMMA,Armar/händer,armar/händer,0,52,52,94,0,1,1,1,7,1.678,,,2018_Sep_18_1301,59.5767413723,verb_norming_L1-swe_no_translation,001,811,
TRUMMA,,,0,52,52,94,,,,,,,,,2018_Sep_18_1301,59.5767413723,verb_norming_L1-swe_no_translation,001,811,
POLERA,Ben/fötter,ben/fötter,0,53,53,54,0,0,0,0,2,4.627,,,2018_Sep_18_1301,59.5767413723,verb_norming_L1-swe_no_translation,001,811,
POLERA,Armar/händer,armar/händer,0,53,53,54,0,1,1,1,7,1.978,,,2018_Sep_18_1301,59.5767413723,verb_norming_L1-swe_no_translation,001,811,
POLERA,,,0,53,53,54,,,,,,,,,2018_Sep_18_1301,59.5767413723,verb_norming_L1-swe_no_translation,001,811,
SKUTTA,Ben/fötter,ben/fötter,0,54,54,137,0,0,0,0,7,2.817,,,2018_Sep_18_1301,59.5767413723,verb_norming_L1-swe_no_translation,001,811,
SKUTTA,Armar/händer,armar/händer,0,54,54,137,0,1,1,1,3,1.895,,,2018_Sep_18_1301,59.5767413723,verb_norming_L1-swe_no_translation,001,811,
SKUTTA,,,0,54,54,137,,,,,,,,,2018_Sep_18_1301,59.5767413723,verb_norming_L1-swe_no_translation,001,811,
KNIVHUGGA,Ben/fötter,ben/fötter,0,55,55,38,0,0,0,0,1,8.097,,,2018_Sep_18_1301,59.5767413723,verb_norming_L1-swe_no_translation,001,811,
KNIVHUGGA,Armar/händer,armar/händer,0,55,55,38,0,1,1,1,7,2.027,,,2018_Sep_18_1301,59.5767413723,verb_norming_L1-swe_no_translation,001,811,
KNIVHUGGA,,,0,55,55,38,,,,,,,,,2018_Sep_18_1301,59.5767413723,verb_norming_L1-swe_no_translation,001,811,
HISSA,Ben/fötter,ben/fötter,0,56,56,23,0,0,0,0,2,9.04,,,2018_Sep_18_1301,59.5767413723,verb_norming_L1-swe_no_translation,001,811,
HISSA,Armar/händer,armar/händer,0,56,56,23,0,1,1,1,7,4.982,,,2018_Sep_18_1301,59.5767413723,verb_norming_L1-swe_no_translation,001,811,
HISSA,,,0,56,56,23,,,,,,,,,2018_Sep_18_1301,59.5767413723,verb_norming_L1-swe_no_translation,001,811,
SLÅ,Ben/fötter,ben/fötter,0,57,57,79,0,0,0,0,3,4.865,,,2018_Sep_18_1301,59.5767413723,verb_norming_L1-swe_no_translation,001,811,
SLÅ,Armar/händer,armar/händer,0,57,57,79,0,1,1,1,7,2.451,,,2018_Sep_18_1301,59.5767413723,verb_norming_L1-swe_no_translation,001,811,
SLÅ,,,0,57,57,79,,,,,,,,,2018_Sep_18_1301,59.5767413723,verb_norming_L1-swe_no_translation,001,811,
BULTA,Ben/fötter,ben/fötter,0,58,58,4,0,0,0,0,2,5.77,,,2018_Sep_18_1301,59.5767413723,verb_norming_L1-swe_no_translation,001,811,
BULTA,Armar/händer,armar/händer,0,58,58,4,0,1,1,1,7,1.913,,,2018_Sep_18_1301,59.5767413723,verb_norming_L1-swe_no_translation,001,811,
BULTA,,,0,58,58,4,,,,,,,,,2018_Sep_18_1301,59.5767413723,verb_norming_L1-swe_no_translation,001,811,
PINNA,Ben/fötter,ben/fötter,0,59,59,128,0,0,0,0,7,5.066,,,2018_Sep_18_1301,59.5767413723,verb_norming_L1-swe_no_translation,001,811,
PINNA,Armar/händer,armar/händer,0,59,59,128,0,1,1,1,1,2.299,,,2018_Sep_18_1301,59.5767413723,verb_norming_L1-swe_no_translation,001,811,
PINNA,,,0,59,59,128,,,,,,,,,2018_Sep_18_1301,59.5767413723,verb_norming_L1-swe_no_translation,001,811,
FLY,Ben/fötter,ben/fötter,0,60,60,105,0,0,0,0,6,3.655,,,2018_Sep_18_1301,59.5767413723,verb_norming_L1-swe_no_translation,001,811,
FLY,Armar/händer,armar/händer,0,60,60,105,0,1,1,1,2,3.858,,,2018_Sep_18_1301,59.5767413723,verb_norming_L1-swe_no_translation,001,811,
FLY,,,0,60,60,105,,,,,,,,,2018_Sep_18_1301,59.5767413723,verb_norming_L1-swe_no_translation,001,811,
KLIVA,Ben/fötter,ben/fötter,0,61,61,117,0,0,0,0,7,2.869,,,2018_Sep_18_1301,59.5767413723,verb_norming_L1-swe_no_translation,001,811,
KLIVA,Armar/händer,armar/händer,0,61,61,117,0,1,1,1,1,7.296,,,2018_Sep_18_1301,59.5767413723,verb_norming_L1-swe_no_translation,001,811,
KLIVA,,,0,61,61,117,,,,,,,,,2018_Sep_18_1301,59.5767413723,verb_norming_L1-swe_no_translation,001,811,
HÅVA,Ben/fötter,ben/fötter,0,62,62,22,0,0,0,0,1,3.406,,,2018_Sep_18_1301,59.5767413723,verb_norming_L1-swe_no_translation,001,811,
HÅVA,Armar/händer,armar/händer,0,62,62,22,0,1,1,1,7,2.283,,,2018_Sep_18_1301,59.5767413723,verb_norming_L1-swe_no_translation,001,811,
HÅVA,,,0,62,62,22,,,,,,,,,2018_Sep_18_1301,59.5767413723,verb_norming_L1-swe_no_translation,001,811,
SKYNDA,Ben/fötter,ben/fötter,0,63,63,138,0,0,0,0,7,8.82,,,2018_Sep_18_1301,59.5767413723,verb_norming_L1-swe_no_translation,001,811,
SKYNDA,Armar/händer,armar/händer,0,63,63,138,0,1,1,1,2,2.078,,,2018_Sep_18_1301,59.5767413723,verb_norming_L1-swe_no_translation,001,811,
SKYNDA,,,0,63,63,138,,,,,,,,,2018_Sep_18_1301,59.5767413723,verb_norming_L1-swe_no_translation,001,811,
ILA,Ben/fötter,ben/fötter,0,64,64,112,0,0,0,0,7,3.205,,,2018_Sep_18_1301,59.5767413723,verb_norming_L1-swe_no_translation,001,811,
ILA,Armar/händer,armar/händer,0,64,64,112,0,1,1,1,1,1.813,,,2018_Sep_18_1301,59.5767413723,verb_norming_L1-swe_no_translation,001,811,
ILA,,,0,64,64,112,,,,,,,,,2018_Sep_18_1301,59.5767413723,verb_norming_L1-swe_no_translation,001,811,
LINKA,Ben/fötter,ben/fötter,0,65,65,124,0,0,0,0,7,2.969,,,2018_Sep_18_1301,59.5767413723,verb_norming_L1-swe_no_translation,001,811,
LINKA,Armar/händer,armar/händer,0,65,65,124,0,1,1,1,1,2.92,,,2018_Sep_18_1301,59.5767413723,verb_norming_L1-swe_no_translation,001,811,
LINKA,,,0,65,65,124,,,,,,,,,2018_Sep_18_1301,59.5767413723,verb_norming_L1-swe_no_translation,001,811,
TA,Ben/fötter,ben/fötter,0,66,66,92,0,0,0,0,7,5.318,,,2018_Sep_18_1301,59.5767413723,verb_norming_L1-swe_no_translation,001,811,
TA,Armar/händer,armar/händer,0,66,66,92,0,1,1,1,7,10.335,,,2018_Sep_18_1301,59.5767413723,verb_norming_L1-swe_no_translation,001,811,
TA,,,0,66,66,92,,,,,,,,,2018_Sep_18_1301,59.5767413723,verb_norming_L1-swe_no_translation,001,811,
SVASSA,Ben/fötter,ben/fötter,0,67,67,157,0,0,0,0,4,6.96,,,2018_Sep_18_1301,59.5767413723,verb_norming_L1-swe_no_translation,001,811,
SVASSA,Armar/händer,armar/händer,0,67,67,157,0,1,1,1,3,2.835,,,2018_Sep_18_1301,59.5767413723,verb_norming_L1-swe_no_translation,001,811,
SVASSA,,,0,67,67,157,,,,,,,,,2018_Sep_18_1301,59.5767413723,verb_norming_L1-swe_no_translation,001,811,
FLACKA,Ben/fötter,ben/fötter,0,68,68,103,0,0,0,0,1,3.721,,,2018_Sep_18_1301,59.5767413723,verb_norming_L1-swe_no_translation,001,811,
FLACKA,Armar/händer,armar/händer,0,68,68,103,0,1,1,1,1,2.514,,,2018_Sep_18_1301,59.5767413723,verb_norming_L1-swe_no_translation,001,811,
FLACKA,,,0,68,68,103,,,,,,,,,2018_Sep_18_1301,59.5767413723,verb_norming_L1-swe_no_translation,001,811,
SKYFFLA,Ben/fötter,ben/fötter,0,69,69,78,0,0,0,0,1,4.006,,,2018_Sep_18_1301,59.5767413723,verb_norming_L1-swe_no_translation,001,811,
SKYFFLA,Armar/händer,armar/händer,0,69,69,78,0,1,1,1,7,2.279,,,2018_Sep_18_1301,59.5767413723,verb_norming_L1-swe_no_translation,001,811,
SKYFFLA,,,0,69,69,78,,,,,,,,,2018_Sep_18_1301,59.5767413723,verb_norming_L1-swe_no_translation,001,811,
PILLA,Ben/fötter,ben/fötter,0,70,70,51,0,0,0,0,2,4.026,,,2018_Sep_18_1301,59.5767413723,verb_norming_L1-swe_no_translation,001,811,
PILLA,Armar/händer,armar/händer,0,70,70,51,0,1,1,1,7,5.048,,,2018_Sep_18_1301,59.5767413723,verb_norming_L1-swe_no_translation,001,811,
PILLA,,,0,70,70,51,,,,,,,,,2018_Sep_18_1301,59.5767413723,verb_norming_L1-swe_no_translation,001,811,
GRABBA,Ben/fötter,ben/fötter,0,71,71,16,0,0,0,0,2,5.013,,,2018_Sep_18_1301,59.5767413723,verb_norming_L1-swe_no_translation,001,811,
GRABBA,Armar/händer,armar/händer,0,71,71,16,0,1,1,1,7,1.626,,,2018_Sep_18_1301,59.5767413723,verb_norming_L1-swe_no_translation,001,811,
GRABBA,,,0,71,71,16,,,,,,,,,2018_Sep_18_1301,59.5767413723,verb_norming_L1-swe_no_translation,001,811,
SNO,Ben/fötter,ben/fötter,0,72,72,87,0,0,0,0,1,7.23,,,2018_Sep_18_1301,59.5767413723,verb_norming_L1-swe_no_translation,001,811,
SNO,Armar/händer,armar/händer,0,72,72,87,0,1,1,1,7,2.953,,,2018_Sep_18_1301,59.5767413723,verb_norming_L1-swe_no_translation,001,811,
SNO,,,0,72,72,87,,,,,,,,,2018_Sep_18_1301,59.5767413723,verb_norming_L1-swe_no_translation,001,811,
SVABBA,Ben/fötter,ben/fötter,0,73,73,90,0,0,0,0,1,3.774,,,2018_Sep_18_1301,59.5767413723,verb_norming_L1-swe_no_translation,001,811,
SVABBA,Armar/händer,armar/händer,0,73,73,90,0,1,1,1,7,2.449,,,2018_Sep_18_1301,59.5767413723,verb_norming_L1-swe_no_translation,001,811,
SVABBA,,,0,73,73,90,,,,,,,,,2018_Sep_18_1301,59.5767413723,verb_norming_L1-swe_no_translation,001,811,
SIGNERA,Ben/fötter,ben/fötter,0,74,74,68,0,0,0,0,1,4.24,,,2018_Sep_18_1301,59.5767413723,verb_norming_L1-swe_no_translation,001,811,
SIGNERA,Armar/händer,armar/händer,0,74,74,68,0,1,1,1,7,3.184,,,2018_Sep_18_1301,59.5767413723,verb_norming_L1-swe_no_translation,001,811,
SIGNERA,,,0,74,74,68,,,,,,,,,2018_Sep_18_1301,59.5767413723,verb_norming_L1-swe_no_translation,001,811,
GNIDA,Ben/fötter,ben/fötter,0,75,75,14,0,0,0,0,4,4.393,,,2018_Sep_18_1301,59.5767413723,verb_norming_L1-swe_no_translation,001,811,
GNIDA,Armar/händer,armar/händer,0,75,75,14,0,1,1,1,6,7.161,,,2018_Sep_18_1301,59.5767413723,verb_norming_L1-swe_no_translation,001,811,
GNIDA,,,0,75,75,14,,,,,,,,,2018_Sep_18_1301,59.5767413723,verb_norming_L1-swe_no_translation,001,811,
SMEKA,Ben/fötter,ben/fötter,0,76,76,85,0,0,0,0,2,3.1,,,2018_Sep_18_1301,59.5767413723,verb_norming_L1-swe_no_translation,001,811,
SMEKA,Armar/händer,armar/händer,0,76,76,85,0,1,1,1,7,2.8,,,2018_Sep_18_1301,59.5767413723,verb_norming_L1-swe_no_translation,001,811,
SMEKA,,,0,76,76,85,,,,,,,,,2018_Sep_18_1301,59.5767413723,verb_norming_L1-swe_no_translation,001,811,
SKOPA,Ben/fötter,ben/fötter,0,77,77,73,0,0,0,0,1,4.21,,,2018_Sep_18_1301,59.5767413723,verb_norming_L1-swe_no_translation,001,811,
SKOPA,Armar/händer,armar/händer,0,77,77,73,0,1,1,1,7,2.567,,,2018_Sep_18_1301,59.5767413723,verb_norming_L1-swe_no_translation,001,811,
SKOPA,,,0,77,77,73,,,,,,,,,2018_Sep_18_1301,59.5767413723,verb_norming_L1-swe_no_translation,001,811,
TORKA,Ben/fötter,ben/fötter,0,78,78,93,0,0,0,0,3,6.34,,,2018_Sep_18_1301,59.5767413723,verb_norming_L1-swe_no_translation,001,811,
TORKA,Armar/händer,armar/händer,0,78,78,93,0,1,1,1,7,2.098,,,2018_Sep_18_1301,59.5767413723,verb_norming_L1-swe_no_translation,001,811,
TORKA,,,0,78,78,93,,,,,,,,,2018_Sep_18_1301,59.5767413723,verb_norming_L1-swe_no_translation,001,811,
TRASKA,Ben/fötter,ben/fötter,0,79,79,162,0,0,0,0,7,2.315,,,2018_Sep_18_1301,59.5767413723,verb_norming_L1-swe_no_translation,001,811,
TRASKA,Armar/händer,armar/händer,0,79,79,162,0,1,1,1,1,2.75,,,2018_Sep_18_1301,59.5767413723,verb_norming_L1-swe_no_translation,001,811,
TRASKA,,,0,79,79,162,,,,,,,,,2018_Sep_18_1301,59.5767413723,verb_norming_L1-swe_no_translation,001,811,
MARSCHERA,Ben/fötter,ben/fötter,0,80,80,127,0,0,0,0,7,4.155,,,2018_Sep_18_1301,59.5767413723,verb_norming_L1-swe_no_translation,001,811,
MARSCHERA,Armar/händer,armar/händer,0,80,80,127,0,1,1,1,6,6.37,,,2018_Sep_18_1301,59.5767413723,verb_norming_L1-swe_no_translation,001,811,
MARSCHERA,,,0,80,80,127,,,,,,,,,2018_Sep_18_1301,59.5767413723,verb_norming_L1-swe_no_translation,001,811,
VACKLA,Ben/fötter,ben/fötter,0,81,81,164,0,0,0,0,7,4.593,,,2018_Sep_18_1301,59.5767413723,verb_norming_L1-swe_no_translation,001,811,
VACKLA,Armar/händer,armar/händer,0,81,81,164,0,1,1,1,3,1.861,,,2018_Sep_18_1301,59.5767413723,verb_norming_L1-swe_no_translation,001,811,
VACKLA,,,0,81,81,164,,,,,,,,,2018_Sep_18_1301,59.5767413723,verb_norming_L1-swe_no_translation,001,811,
KLIPPA,Ben/fötter,ben/fötter,0,82,82,34,0,0,0,0,2,6.792,,,2018_Sep_18_1301,59.5767413723,verb_norming_L1-swe_no_translation,001,811,
KLIPPA,Armar/händer,armar/händer,0,82,82,34,0,1,1,1,7,5.333,,,2018_Sep_18_1301,59.5767413723,verb_norming_L1-swe_no_translation,001,811,
KLIPPA,,,0,82,82,34,,,,,,,,,2018_Sep_18_1301,59.5767413723,verb_norming_L1-swe_no_translation,001,811,
STÖVLA,Ben/fötter,ben/fötter,0,83,83,152,0,0,0,0,7,3.052,,,2018_Sep_18_1301,59.5767413723,verb_norming_L1-swe_no_translation,001,811,
STÖVLA,Armar/händer,armar/händer,0,83,83,152,0,1,1,1,1,2.785,,,2018_Sep_18_1301,59.5767413723,verb_norming_L1-swe_no_translation,001,811,
STÖVLA,,,0,83,83,152,,,,,,,,,2018_Sep_18_1301,59.5767413723,verb_norming_L1-swe_no_translation,001,811,
SMÄLLA,Ben/fötter,ben/fötter,0,84,84,84,0,0,0,0,1,3.22,,,2018_Sep_18_1301,59.5767413723,verb_norming_L1-swe_no_translation,001,811,
SMÄLLA,Armar/händer,armar/händer,0,84,84,84,0,1,1,1,5,1.877,,,2018_Sep_18_1301,59.5767413723,verb_norming_L1-swe_no_translation,001,811,
SMÄLLA,,,0,84,84,84,,,,,,,,,2018_Sep_18_1301,59.5767413723,verb_norming_L1-swe_no_translation,001,811,
VIKA,Ben/fötter,ben/fötter,0,85,85,98,0,0,0,0,1,8.907,,,2018_Sep_18_1301,59.5767413723,verb_norming_L1-swe_no_translation,001,811,
VIKA,Armar/händer,armar/händer,0,85,85,98,0,1,1,1,7,2.484,,,2018_Sep_18_1301,59.5767413723,verb_norming_L1-swe_no_translation,001,811,
VIKA,,,0,85,85,98,,,,,,,,,2018_Sep_18_1301,59.5767413723,verb_norming_L1-swe_no_translation,001,811,
DANSA,Ben/fötter,ben/fötter,0,86,86,102,0,0,0,0,7,2.986,,,2018_Sep_18_1301,59.5767413723,verb_norming_L1-swe_no_translation,001,811,
DANSA,Armar/händer,armar/händer,0,86,86,102,0,1,1,1,7,3.02,,,2018_Sep_18_1301,59.5767413723,verb_norming_L1-swe_no_translation,001,811,
DANSA,,,0,86,86,102,,,,,,,,,2018_Sep_18_1301,59.5767413723,verb_norming_L1-swe_no_translation,001,811,
KLÖSA,Ben/fötter,ben/fötter,0,87,87,35,0,0,0,0,2,6.692,,,2018_Sep_18_1301,59.5767413723,verb_norming_L1-swe_no_translation,001,811,
KLÖSA,Armar/händer,armar/händer,0,87,87,35,0,1,1,1,7,2.735,,,2018_Sep_18_1301,59.5767413723,verb_norming_L1-swe_no_translation,001,811,
KLÖSA,,,0,87,87,35,,,,,,,,,2018_Sep_18_1301,59.5767413723,verb_norming_L1-swe_no_translation,001,811,
VADA,Ben/fötter,ben/fötter,0,88,88,165,0,0,0,0,7,3.892,,,2018_Sep_18_1301,59.5767413723,verb_norming_L1-swe_no_translation,001,811,
VADA,Armar/händer,armar/händer,0,88,88,165,0,1,1,1,2,1.796,,,2018_Sep_18_1301,59.5767413723,verb_norming_L1-swe_no_translation,001,811,
VADA,,,0,88,88,165,,,,,,,,,2018_Sep_18_1301,59.5767413723,verb_norming_L1-swe_no_translation,001,811,
SNUBBLA,Ben/fötter,ben/fötter,0,89,89,143,0,0,0,0,7,2.565,,,2018_Sep_18_1301,59.5767413723,verb_norming_L1-swe_no_translation,001,811,
SNUBBLA,Armar/händer,armar/händer,0,89,89,143,0,1,1,1,2,3.388,,,2018_Sep_18_1301,59.5767413723,verb_norming_L1-swe_no_translation,001,811,
SNUBBLA,,,0,89,89,143,,,,,,,,,2018_Sep_18_1301,59.5767413723,verb_norming_L1-swe_no_translation,001,811,
KNIPA,Ben/fötter,ben/fötter,0,90,90,37,0,0,0,0,1,3.069,,,2018_Sep_18_1301,59.5767413723,verb_norming_L1-swe_no_translation,001,811,
KNIPA,Armar/händer,armar/händer,0,90,90,37,0,1,1,1,3,1.944,,,2018_Sep_18_1301,59.5767413723,verb_norming_L1-swe_no_translation,001,811,
KNIPA,,,0,90,90,37,,,,,,,,,2018_Sep_18_1301,59.5767413723,verb_norming_L1-swe_no_translation,001,811,
KNÄA,Ben/fötter,ben/fötter,0,91,91,118,0,0,0,0,7,3.875,,,2018_Sep_18_1301,59.5767413723,verb_norming_L1-swe_no_translation,001,811,
KNÄA,Armar/händer,armar/händer,0,91,91,118,0,1,1,1,1,2.567,,,2018_Sep_18_1301,59.5767413723,verb_norming_L1-swe_no_translation,001,811,
KNÄA,,,0,91,91,118,,,,,,,,,2018_Sep_18_1301,59.5767413723,verb_norming_L1-swe_no_translation,001,811,
RISTA,Ben/fötter,ben/fötter,0,92,92,62,0,0,0,0,1,3.858,,,2018_Sep_18_1301,59.5767413723,verb_norming_L1-swe_no_translation,001,811,
RISTA,Armar/händer,armar/händer,0,92,92,62,0,1,1,1,7,2.836,,,2018_Sep_18_1301,59.5767413723,verb_norming_L1-swe_no_translation,001,811,
RISTA,,,0,92,92,62,,,,,,,,,2018_Sep_18_1301,59.5767413723,verb_norming_L1-swe_no_translation,001,811,
GREPPA,Ben/fötter,ben/fötter,0,93,93,18,0,0,0,0,2,4.173,,,2018_Sep_18_1301,59.5767413723,verb_norming_L1-swe_no_translation,001,811,
GREPPA,Armar/händer,armar/händer,0,93,93,18,0,1,1,1,7,2.212,,,2018_Sep_18_1301,59.5767413723,verb_norming_L1-swe_no_translation,001,811,
GREPPA,,,0,93,93,18,,,,,,,,,2018_Sep_18_1301,59.5767413723,verb_norming_L1-swe_no_translation,001,811,
KRAVLA,Ben/fötter,ben/fötter,0,94,94,122,0,0,0,0,2,5.836,,,2018_Sep_18_1301,59.5767413723,verb_norming_L1-swe_no_translation,001,811,
KRAVLA,Armar/händer,armar/händer,0,94,94,122,0,1,1,1,7,1.795,,,2018_Sep_18_1301,59.5767413723,verb_norming_L1-swe_no_translation,001,811,
KRAVLA,,,0,94,94,122,,,,,,,,,2018_Sep_18_1301,59.5767413723,verb_norming_L1-swe_no_translation,001,811,
VIRA,Ben/fötter,ben/fötter,0,95,95,99,0,0,0,0,1,4.244,,,2018_Sep_18_1301,59.5767413723,verb_norming_L1-swe_no_translation,001,811,
VIRA,Armar/händer,armar/händer,0,95,95,99,0,1,1,1,5,3.524,,,2018_Sep_18_1301,59.5767413723,verb_norming_L1-swe_no_translation,001,811,
VIRA,,,0,95,95,99,,,,,,,,,2018_Sep_18_1301,59.5767413723,verb_norming_L1-swe_no_translation,001,811,
NYPA,Ben/fötter,ben/fötter,0,96,96,47,0,0,0,0,2,6.222,,,2018_Sep_18_1301,59.5767413723,verb_norming_L1-swe_no_translation,001,811,
NYPA,Armar/händer,armar/händer,0,96,96,47,0,1,1,1,7,2.868,,,2018_Sep_18_1301,59.5767413723,verb_norming_L1-swe_no_translation,001,811,
NYPA,,,0,96,96,47,,,,,,,,,2018_Sep_18_1301,59.5767413723,verb_norming_L1-swe_no_translation,001,811,
KOPPLA,Ben/fötter,ben/fötter,0,97,97,40,0,0,0,0,1,4.862,,,2018_Sep_18_1301,59.5767413723,verb_norming_L1-swe_no_translation,001,811,
KOPPLA,Armar/händer,armar/händer,0,97,97,40,0,1,1,1,5,2.265,,,2018_Sep_18_1301,59.5767413723,verb_norming_L1-swe_no_translation,001,811,
KOPPLA,,,0,97,97,40,,,,,,,,,2018_Sep_18_1301,59.5767413723,verb_norming_L1-swe_no_translation,001,811,
SLINTA,Ben/fötter,ben/fötter,0,98,98,140,0,0,0,0,7,4.897,,,2018_Sep_18_1301,59.5767413723,verb_norming_L1-swe_no_translation,001,811,
SLINTA,Armar/händer,armar/händer,0,98,98,140,0,1,1,1,2,2.165,,,2018_Sep_18_1301,59.5767413723,verb_norming_L1-swe_no_translation,001,811,
SLINTA,,,0,98,98,140,,,,,,,,,2018_Sep_18_1301,59.5767413723,verb_norming_L1-swe_no_translation,001,811,
VANDRA,Ben/fötter,ben/fötter,0,99,99,166,0,0,0,0,7,2.918,,,2018_Sep_18_1301,59.5767413723,verb_norming_L1-swe_no_translation,001,811,
VANDRA,Armar/händer,armar/händer,0,99,99,166,0,1,1,1,1,2.919,,,2018_Sep_18_1301,59.5767413723,verb_norming_L1-swe_no_translation,001,811,
VANDRA,,,0,99,99,166,,,,,,,,,2018_Sep_18_1301,59.5767413723,verb_norming_L1-swe_no_translation,001,811,
FATTA,Ben/fötter,ben/fötter,0,100,100,9,0,0,0,0,1,6.206,,,2018_Sep_18_1301,59.5767413723,verb_norming_L1-swe_no_translation,001,811,
FATTA,Armar/händer,armar/händer,0,100,100,9,0,1,1,1,7,4.144,,,2018_Sep_18_1301,59.5767413723,verb_norming_L1-swe_no_translation,001,811,
FATTA,,,0,100,100,9,,,,,,,,,2018_Sep_18_1301,59.5767413723,verb_norming_L1-swe_no_translation,001,811,
PRESSA,Ben/fötter,ben/fötter,0,101,101,55,0,0,0,0,4,4.007,,,2018_Sep_18_1301,59.5767413723,verb_norming_L1-swe_no_translation,001,811,
PRESSA,Armar/händer,armar/händer,0,101,101,55,0,1,1,1,5,3.504,,,2018_Sep_18_1301,59.5767413723,verb_norming_L1-swe_no_translation,001,811,
PRESSA,,,0,101,101,55,,,,,,,,,2018_Sep_18_1301,59.5767413723,verb_norming_L1-swe_no_translation,001,811,
VINGLA,Ben/fötter,ben/fötter,0,102,102,168,0,0,0,0,5,4.108,,,2018_Sep_18_1301,59.5767413723,verb_norming_L1-swe_no_translation,001,811,
VINGLA,Armar/händer,armar/händer,0,102,102,168,0,1,1,1,4,2.028,,,2018_Sep_18_1301,59.5767413723,verb_norming_L1-swe_no_translation,001,811,
VINGLA,,,0,102,102,168,,,,,,,,,2018_Sep_18_1301,59.5767413723,verb_norming_L1-swe_no_translation,001,811,
SLEVA,Ben/fötter,ben/fötter,0,103,103,80,0,0,0,0,1,3.638,,,2018_Sep_18_1301,59.5767413723,verb_norming_L1-swe_no_translation,001,811,
SLEVA,Armar/händer,armar/händer,0,103,103,80,0,1,1,1,7,2.33,,,2018_Sep_18_1301,59.5767413723,verb_norming_L1-swe_no_translation,001,811,
SLEVA,,,0,103,103,80,,,,,,,,,2018_Sep_18_1301,59.5767413723,verb_norming_L1-swe_no_translation,001,811,
CYKLA,Ben/fötter,ben/fötter,0,104,104,101,0,0,0,0,7,4.175,,,2018_Sep_18_1301,59.5767413723,verb_norming_L1-swe_no_translation,001,811,
CYKLA,Armar/händer,armar/händer,0,104,104,101,0,1,1,1,3,1.861,,,2018_Sep_18_1301,59.5767413723,verb_norming_L1-swe_no_translation,001,811,
CYKLA,,,0,104,104,101,,,,,,,,,2018_Sep_18_1301,59.5767413723,verb_norming_L1-swe_no_translation,001,811,
HAFFA,Ben/fötter,ben/fötter,0,105,105,21,0,0,0,0,1,3.959,,,2018_Sep_18_1301,59.5767413723,verb_norming_L1-swe_no_translation,001,811,
HAFFA,Armar/händer,armar/händer,0,105,105,21,0,1,1,1,7,2.164,,,2018_Sep_18_1301,59.5767413723,verb_norming_L1-swe_no_translation,001,811,
HAFFA,,,0,105,105,21,,,,,,,,,2018_Sep_18_1301,59.5767413723,verb_norming_L1-swe_no_translation,001,811,
RYCKA,Ben/fötter,ben/fötter,0,106,106,67,0,0,0,0,2,3.27,,,2018_Sep_18_1301,59.5767413723,verb_norming_L1-swe_no_translation,001,811,
RYCKA,Armar/händer,armar/händer,0,106,106,67,0,1,1,1,7,2.447,,,2018_Sep_18_1301,59.5767413723,verb_norming_L1-swe_no_translation,001,811,
RYCKA,,,0,106,106,67,,,,,,,,,2018_Sep_18_1301,59.5767413723,verb_norming_L1-swe_no_translation,001,811,
FLANERA,Ben/fötter,ben/fötter,0,107,107,104,0,0,0,0,7,3.286,,,2018_Sep_18_1301,59.5767413723,verb_norming_L1-swe_no_translation,001,811,
FLANERA,Armar/händer,armar/händer,0,107,107,104,0,1,1,1,2,2.531,,,2018_Sep_18_1301,59.5767413723,verb_norming_L1-swe_no_translation,001,811,
FLANERA,,,0,107,107,104,,,,,,,,,2018_Sep_18_1301,59.5767413723,verb_norming_L1-swe_no_translation,001,811,
TVINNA,Ben/fötter,ben/fötter,0,108,108,97,0,0,0,0,1,3.824,,,2018_Sep_18_1301,59.5767413723,verb_norming_L1-swe_no_translation,001,811,
TVINNA,Armar/händer,armar/händer,0,108,108,97,0,1,1,1,6,2.869,,,2018_Sep_18_1301,59.5767413723,verb_norming_L1-swe_no_translation,001,811,
TVINNA,,,0,108,108,97,,,,,,,,,2018_Sep_18_1301,59.5767413723,verb_norming_L1-swe_no_translation,001,811,
SNAVA,Ben/fötter,ben/fötter,0,109,109,142,0,0,0,0,7,3.857,,,2018_Sep_18_1301,59.5767413723,verb_norming_L1-swe_no_translation,001,811,
SNAVA,Armar/händer,armar/händer,0,109,109,142,0,1,1,1,1,2.769,,,2018_Sep_18_1301,59.5767413723,verb_norming_L1-swe_no_translation,001,811,
SNAVA,,,0,109,109,142,,,,,,,,,2018_Sep_18_1301,59.5767413723,verb_norming_L1-swe_no_translation,001,811,
KLICKA,Ben/fötter,ben/fötter,0,110,110,33,0,0,0,0,1,4.509,,,2018_Sep_18_1301,59.5767413723,verb_norming_L1-swe_no_translation,001,811,
KLICKA,Armar/händer,armar/händer,0,110,110,33,0,1,1,1,6,4.577,,,2018_Sep_18_1301,59.5767413723,verb_norming_L1-swe_no_translation,001,811,
KLICKA,,,0,110,110,33,,,,,,,,,2018_Sep_18_1301,59.5767413723,verb_norming_L1-swe_no_translation,001,811,
ROTA,Ben/fötter,ben/fötter,0,111,111,66,0,0,0,0,1,3.456,,,2018_Sep_18_1301,59.5767413723,verb_norming_L1-swe_no_translation,001,811,
ROTA,Armar/händer,armar/händer,0,111,111,66,0,1,1,1,7,1.964,,,2018_Sep_18_1301,59.5767413723,verb_norming_L1-swe_no_translation,001,811,
ROTA,,,0,111,111,66,,,,,,,,,2018_Sep_18_1301,59.5767413723,verb_norming_L1-swe_no_translation,001,811,
KILA,Ben/fötter,ben/fötter,0,112,112,115,0,0,0,0,7,3.054,,,2018_Sep_18_1301,59.5767413723,verb_norming_L1-swe_no_translation,001,811,
KILA,Armar/händer,armar/händer,0,112,112,115,0,1,1,1,1,3.138,,,2018_Sep_18_1301,59.5767413723,verb_norming_L1-swe_no_translation,001,811,
KILA,,,0,112,112,115,,,,,,,,,2018_Sep_18_1301,59.5767413723,verb_norming_L1-swe_no_translation,001,811,
DASKA,Ben/fötter,ben/fötter,0,113,113,5,0,0,0,0,1,2.5,,,2018_Sep_18_1301,59.5767413723,verb_norming_L1-swe_no_translation,001,811,
DASKA,Armar/händer,armar/händer,0,113,113,5,0,1,1,1,7,2.114,,,2018_Sep_18_1301,59.5767413723,verb_norming_L1-swe_no_translation,001,811,
DASKA,,,0,113,113,5,,,,,,,,,2018_Sep_18_1301,59.5767413723,verb_norming_L1-swe_no_translation,001,811,
STAPPLA,Ben/fötter,ben/fötter,0,114,114,149,0,0,0,0,6,3.27,,,2018_Sep_18_1301,59.5767413723,verb_norming_L1-swe_no_translation,001,811,
STAPPLA,Armar/händer,armar/händer,0,114,114,149,0,1,1,1,1,4.058,,,2018_Sep_18_1301,59.5767413723,verb_norming_L1-swe_no_translation,001,811,
STAPPLA,,,0,114,114,149,,,,,,,,,2018_Sep_18_1301,59.5767413723,verb_norming_L1-swe_no_translation,001,811,
STÄDA,Ben/fötter,ben/fötter,0,115,115,88,0,0,0,0,2,6.356,,,2018_Sep_18_1301,59.5767413723,verb_norming_L1-swe_no_translation,001,811,
STÄDA,Armar/händer,armar/händer,0,115,115,88,0,1,1,1,7,5.67,,,2018_Sep_18_1301,59.5767413723,verb_norming_L1-swe_no_translation,001,811,
STÄDA,,,0,115,115,88,,,,,,,,,2018_Sep_18_1301,59.5767413723,verb_norming_L1-swe_no_translation,001,811,
TÅGA,Ben/fötter,ben/fötter,0,116,116,158,0,0,0,0,6,7.009,,,2018_Sep_18_1301,59.5767413723,verb_norming_L1-swe_no_translation,001,811,
TÅGA,Armar/händer,armar/händer,0,116,116,158,0,1,1,1,1,2.667,,,2018_Sep_18_1301,59.5767413723,verb_norming_L1-swe_no_translation,001,811,
TÅGA,,,0,116,116,158,,,,,,,,,2018_Sep_18_1301,59.5767413723,verb_norming_L1-swe_no_translation,001,811,
FÖSA,Ben/fötter,ben/fötter,0,117,117,12,0,0,0,0,1,6.559,,,2018_Sep_18_1301,59.5767413723,verb_norming_L1-swe_no_translation,001,811,
FÖSA,Armar/händer,armar/händer,0,117,117,12,0,1,1,1,7,2.381,,,2018_Sep_18_1301,59.5767413723,verb_norming_L1-swe_no_translation,001,811,
FÖSA,,,0,117,117,12,,,,,,,,,2018_Sep_18_1301,59.5767413723,verb_norming_L1-swe_no_translation,001,811,
TRIPPA,Ben/fötter,ben/fötter,0,118,118,163,0,0,0,0,7,3.773,,,2018_Sep_18_1301,59.5767413723,verb_norming_L1-swe_no_translation,001,811,
TRIPPA,Armar/händer,armar/händer,0,118,118,163,0,1,1,1,1,2.416,,,2018_Sep_18_1301,59.5767413723,verb_norming_L1-swe_no_translation,001,811,
TRIPPA,,,0,118,118,163,,,,,,,,,2018_Sep_18_1301,59.5767413723,verb_norming_L1-swe_no_translation,001,811,
KNALLA,Ben/fötter,ben/fötter,0,119,119,119,0,0,0,0,7,2.935,,,2018_Sep_18_1301,59.5767413723,verb_norming_L1-swe_no_translation,001,811,
KNALLA,Armar/händer,armar/händer,0,119,119,119,0,1,1,1,1,3.757,,,2018_Sep_18_1301,59.5767413723,verb_norming_L1-swe_no_translation,001,811,
KNALLA,,,0,119,119,119,,,,,,,,,2018_Sep_18_1301,59.5767413723,verb_norming_L1-swe_no_translation,001,811,
KRAMA,Ben/fötter,ben/fötter,0,120,120,41,0,0,0,0,3,5.787,,,2018_Sep_18_1301,59.5767413723,verb_norming_L1-swe_no_translation,001,811,
KRAMA,Armar/händer,armar/händer,0,120,120,41,0,1,1,1,7,1.728,,,2018_Sep_18_1301,59.5767413723,verb_norming_L1-swe_no_translation,001,811,
KRAMA,,,0,120,120,41,,,,,,,,,2018_Sep_18_1301,59.5767413723,verb_norming_L1-swe_no_translation,001,811,
REPA,Ben/fötter,ben/fötter,0,121,121,61,0,0,0,0,1,4.678,,,2018_Sep_18_1301,59.5767413723,verb_norming_L1-swe_no_translation,001,811,
REPA,Armar/händer,armar/händer,0,121,121,61,0,1,1,1,5,2.18,,,2018_Sep_18_1301,59.5767413723,verb_norming_L1-swe_no_translation,001,811,
REPA,,,0,121,121,61,,,,,,,,,2018_Sep_18_1301,59.5767413723,verb_norming_L1-swe_no_translation,001,811,
LÖPA,Ben/fötter,ben/fötter,0,122,122,125,0,0,0,0,7,2.986,,,2018_Sep_18_1301,59.5767413723,verb_norming_L1-swe_no_translation,001,811,
LÖPA,Armar/händer,armar/händer,0,122,122,125,0,1,1,1,1,2.383,,,2018_Sep_18_1301,59.5767413723,verb_norming_L1-swe_no_translation,001,811,
LÖPA,,,0,122,122,125,,,,,,,,,2018_Sep_18_1301,59.5767413723,verb_norming_L1-swe_no_translation,001,811,
STAMPA,Ben/fötter,ben/fötter,0,123,123,148,0,0,0,0,7,2.985,,,2018_Sep_18_1301,59.5767413723,verb_norming_L1-swe_no_translation,001,811,
STAMPA,Armar/händer,armar/händer,0,123,123,148,0,1,1,1,1,3.288,,,2018_Sep_18_1301,59.5767413723,verb_norming_L1-swe_no_translation,001,811,
STAMPA,,,0,123,123,148,,,,,,,,,2018_Sep_18_1301,59.5767413723,verb_norming_L1-swe_no_translation,001,811,
SLIPA,Ben/fötter,ben/fötter,0,124,124,81,0,0,0,0,4,7.011,,,2018_Sep_18_1301,59.5767413723,verb_norming_L1-swe_no_translation,001,811,
SLIPA,Armar/händer,armar/händer,0,124,124,81,0,1,1,1,7,2.501,,,2018_Sep_18_1301,59.5767413723,verb_norming_L1-swe_no_translation,001,811,
SLIPA,,,0,124,124,81,,,,,,,,,2018_Sep_18_1301,59.5767413723,verb_norming_L1-swe_no_translation,001,811,
STRÖVA,Ben/fötter,ben/fötter,0,125,125,153,0,0,0,0,7,4.948,,,2018_Sep_18_1301,59.5767413723,verb_norming_L1-swe_no_translation,001,811,
STRÖVA,Armar/händer,armar/händer,0,125,125,153,0,1,1,1,1,2.113,,,2018_Sep_18_1301,59.5767413723,verb_norming_L1-swe_no_translation,001,811,
STRÖVA,,,0,125,125,153,,,,,,,,,2018_Sep_18_1301,59.5767413723,verb_norming_L1-swe_no_translation,001,811,
RAGLA,Ben/fötter,ben/fötter,0,126,126,130,0,0,0,0,6,2.917,,,2018_Sep_18_1301,59.5767413723,verb_norming_L1-swe_no_translation,001,811,
RAGLA,Armar/händer,armar/händer,0,126,126,130,0,1,1,1,2,2.414,,,2018_Sep_18_1301,59.5767413723,verb_norming_L1-swe_no_translation,001,811,
RAGLA,,,0,126,126,130,,,,,,,,,2018_Sep_18_1301,59.5767413723,verb_norming_L1-swe_no_translation,001,811,
PUTSA,Ben/fötter,ben/fötter,0,127,127,56,0,0,0,0,1,6.273,,,2018_Sep_18_1301,59.5767413723,verb_norming_L1-swe_no_translation,001,811,
PUTSA,Armar/händer,armar/händer,0,127,127,56,0,1,1,1,7,2.836,,,2018_Sep_18_1301,59.5767413723,verb_norming_L1-swe_no_translation,001,811,
PUTSA,,,0,127,127,56,,,,,,,,,2018_Sep_18_1301,59.5767413723,verb_norming_L1-swe_no_translation,001,811,
SKJUTA,Ben/fötter,ben/fötter,0,128,128,72,0,0,0,0,2,3.889,,,2018_Sep_18_1301,59.5767413723,verb_norming_L1-swe_no_translation,001,811,
SKJUTA,Armar/händer,armar/händer,0,128,128,72,0,1,1,1,7,1.76,,,2018_Sep_18_1301,59.5767413723,verb_norming_L1-swe_no_translation,001,811,
SKJUTA,,,0,128,128,72,,,,,,,,,2018_Sep_18_1301,59.5767413723,verb_norming_L1-swe_no_translation,001,811,
KNYCKA,Ben/fötter,ben/fötter,0,129,129,39,0,0,0,0,1,4.644,,,2018_Sep_18_1301,59.5767413723,verb_norming_L1-swe_no_translation,001,811,
KNYCKA,Armar/händer,armar/händer,0,129,129,39,0,1,1,1,6,2.414,,,2018_Sep_18_1301,59.5767413723,verb_norming_L1-swe_no_translation,001,811,
KNYCKA,,,0,129,129,39,,,,,,,,,2018_Sep_18_1301,59.5767413723,verb_norming_L1-swe_no_translation,001,811,
RAFSA,Ben/fötter,ben/fötter,0,130,130,58,0,0,0,0,1,3.405,,,2018_Sep_18_1301,59.5767413723,verb_norming_L1-swe_no_translation,001,811,
RAFSA,Armar/händer,armar/händer,0,130,130,58,0,1,1,1,7,2.4,,,2018_Sep_18_1301,59.5767413723,verb_norming_L1-swe_no_translation,001,811,
RAFSA,,,0,130,130,58,,,,,,,,,2018_Sep_18_1301,59.5767413723,verb_norming_L1-swe_no_translation,001,811,
JOGGA,Ben/fötter,ben/fötter,0,131,131,114,0,0,0,0,7,2.297,,,2018_Sep_18_1301,59.5767413723,verb_norming_L1-swe_no_translation,001,811,
JOGGA,Armar/händer,armar/händer,0,131,131,114,0,1,1,1,1,3.051,,,2018_Sep_18_1301,59.5767413723,verb_norming_L1-swe_no_translation,001,811,
JOGGA,,,0,131,131,114,,,,,,,,,2018_Sep_18_1301,59.5767413723,verb_norming_L1-swe_no_translation,001,811,
PISKA,Ben/fötter,ben/fötter,0,132,132,52,0,0,0,0,1,2.483,,,2018_Sep_18_1301,59.5767413723,verb_norming_L1-swe_no_translation,001,811,
PISKA,Armar/händer,armar/händer,0,132,132,52,0,1,1,1,7,2.382,,,2018_Sep_18_1301,59.5767413723,verb_norming_L1-swe_no_translation,001,811,
PISKA,,,0,132,132,52,,,,,,,,,2018_Sep_18_1301,59.5767413723,verb_norming_L1-swe_no_translation,001,811,
SKAKA,Ben/fötter,ben/fötter,0,133,133,69,0,0,0,0,6,5.552,,,2018_Sep_18_1301,59.5767413723,verb_norming_L1-swe_no_translation,001,811,
SKAKA,Armar/händer,armar/händer,0,133,133,69,0,1,1,1,7,2.852,,,2018_Sep_18_1301,59.5767413723,verb_norming_L1-swe_no_translation,001,811,
SKAKA,,,0,133,133,69,,,,,,,,,2018_Sep_18_1301,59.5767413723,verb_norming_L1-swe_no_translation,001,811,
SKALA,Ben/fötter,ben/fötter,0,134,134,70,0,0,0,0,1,5.15,,,2018_Sep_18_1301,59.5767413723,verb_norming_L1-swe_no_translation,001,811,
SKALA,Armar/händer,armar/händer,0,134,134,70,0,1,1,1,7,2.534,,,2018_Sep_18_1301,59.5767413723,verb_norming_L1-swe_no_translation,001,811,
SKALA,,,0,134,134,70,,,,,,,,,2018_Sep_18_1301,59.5767413723,verb_norming_L1-swe_no_translation,001,811,
SPRINTA,Ben/fötter,ben/fötter,0,135,135,146,0,0,0,0,7,5.064,,,2018_Sep_18_1301,59.5767413723,verb_norming_L1-swe_no_translation,001,811,
SPRINTA,Armar/händer,armar/händer,0,135,135,146,0,1,1,1,1,1.979,,,2018_Sep_18_1301,59.5767413723,verb_norming_L1-swe_no_translation,001,811,
SPRINTA,,,0,135,135,146,,,,,,,,,2018_Sep_18_1301,59.5767413723,verb_norming_L1-swe_no_translation,001,811,
KLAPPA,Ben/fötter,ben/fötter,0,136,136,31,0,0,0,0,4,5.635,,,2018_Sep_18_1301,59.5767413723,verb_norming_L1-swe_no_translation,001,811,
KLAPPA,Armar/händer,armar/händer,0,136,136,31,0,1,1,1,7,2.902,,,2018_Sep_18_1301,59.5767413723,verb_norming_L1-swe_no_translation,001,811,
KLAPPA,,,0,136,136,31,,,,,,,,,2018_Sep_18_1301,59.5767413723,verb_norming_L1-swe_no_translation,001,811,
SLITA,Ben/fötter,ben/fötter,0,137,137,82,0,0,0,0,1,6.524,,,2018_Sep_18_1301,59.5767413723,verb_norming_L1-swe_no_translation,001,811,
SLITA,Armar/händer,armar/händer,0,137,137,82,0,1,1,1,7,2.013,,,2018_Sep_18_1301,59.5767413723,verb_norming_L1-swe_no_translation,001,811,
SLITA,,,0,137,137,82,,,,,,,,,2018_Sep_18_1301,59.5767413723,verb_norming_L1-swe_no_translation,001,811,
GLIDA,Ben/fötter,ben/fötter,0,138,138,107,0,0,0,0,6,8.25,,,2018_Sep_18_1301,59.5767413723,verb_norming_L1-swe_no_translation,001,811,
GLIDA,Armar/händer,armar/händer,0,138,138,107,0,1,1,1,2,5.432,,,2018_Sep_18_1301,59.5767413723,verb_norming_L1-swe_no_translation,001,811,
GLIDA,,,0,138,138,107,,,,,,,,,2018_Sep_18_1301,59.5767413723,verb_norming_L1-swe_no_translation,001,811,
RÄNNA,Ben/fötter,ben/fötter,0,139,139,131,0,0,0,0,6,4.68,,,2018_Sep_18_1301,59.5767413723,verb_norming_L1-swe_no_translation,001,811,
RÄNNA,Armar/händer,armar/händer,0,139,139,131,0,1,1,1,1,3.54,,,2018_Sep_18_1301,59.5767413723,verb_norming_L1-swe_no_translation,001,811,
RÄNNA,,,0,139,139,131,,,,,,,,,2018_Sep_18_1301,59.5767413723,verb_norming_L1-swe_no_translation,001,811,
GUPPA,Ben/fötter,ben/fötter,0,140,140,108,0,0,0,0,1,4.057,,,2018_Sep_18_1301,59.5767413723,verb_norming_L1-swe_no_translation,001,811,
GUPPA,Armar/händer,armar/händer,0,140,140,108,0,1,1,1,1,5.567,,,2018_Sep_18_1301,59.5767413723,verb_norming_L1-swe_no_translation,001,811,
GUPPA,,,0,140,140,108,,,,,,,,,2018_Sep_18_1301,59.5767413723,verb_norming_L1-swe_no_translation,001,811,
TRYCKA,Ben/fötter,ben/fötter,0,141,141,95,0,0,0,0,2,3.252,,,2018_Sep_18_1301,59.5767413723,verb_norming_L1-swe_no_translation,001,811,
TRYCKA,Armar/händer,armar/händer,0,141,141,95,0,1,1,1,7,2.38,,,2018_Sep_18_1301,59.5767413723,verb_norming_L1-swe_no_translation,001,811,
TRYCKA,,,0,141,141,95,,,,,,,,,2018_Sep_18_1301,59.5767413723,verb_norming_L1-swe_no_translation,001,811,
KLÄTTRA,Ben/fötter,ben/fötter,0,142,142,116,0,0,0,0,6,3.47,,,2018_Sep_18_1301,59.5767413723,verb_norming_L1-swe_no_translation,001,811,
KLÄTTRA,Armar/händer,armar/händer,0,142,142,116,0,1,1,1,7,2.298,,,2018_Sep_18_1301,59.5767413723,verb_norming_L1-swe_no_translation,001,811,
KLÄTTRA,,,0,142,142,116,,,,,,,,,2018_Sep_18_1301,59.5767413723,verb_norming_L1-swe_no_translation,001,811,
RULLA,Ben/fötter,ben/fötter,0,143,143,132,0,0,0,0,2,5.401,,,2018_Sep_18_1301,59.5767413723,verb_norming_L1-swe_no_translation,001,811,
RULLA,Armar/händer,armar/händer,0,143,143,132,0,1,1,1,6,3.623,,,2018_Sep_18_1301,59.5767413723,verb_norming_L1-swe_no_translation,001,811,
RULLA,,,0,143,143,132,,,,,,,,,2018_Sep_18_1301,59.5767413723,verb_norming_L1-swe_no_translation,001,811,
GNUGGA,Ben/fötter,ben/fötter,0,144,144,15,0,0,0,0,2,3.738,,,2018_Sep_18_1301,59.5767413723,verb_norming_L1-swe_no_translation,001,811,
GNUGGA,Armar/händer,armar/händer,0,144,144,15,0,1,1,1,6,3.168,,,2018_Sep_18_1301,59.5767413723,verb_norming_L1-swe_no_translation,001,811,
GNUGGA,,,0,144,144,15,,,,,,,,,2018_Sep_18_1301,59.5767413723,verb_norming_L1-swe_no_translation,001,811,
KARVA,Ben/fötter,ben/fötter,0,145,145,26,0,0,0,0,1,7.263,,,2018_Sep_18_1301,59.5767413723,verb_norming_L1-swe_no_translation,001,811,
KARVA,Armar/händer,armar/händer,0,145,145,26,0,1,1,1,7,2.215,,,2018_Sep_18_1301,59.5767413723,verb_norming_L1-swe_no_translation,001,811,
KARVA,,,0,145,145,26,,,,,,,,,2018_Sep_18_1301,59.5767413723,verb_norming_L1-swe_no_translation,001,811,
TRÄDA,Ben/fötter,ben/fötter,0,146,146,160,0,0,0,0,5,4.512,,,2018_Sep_18_1301,59.5767413723,verb_norming_L1-swe_no_translation,001,811,
TRÄDA,Armar/händer,armar/händer,0,146,146,160,0,1,1,1,1,2.349,,,2018_Sep_18_1301,59.5767413723,verb_norming_L1-swe_no_translation,001,811,
TRÄDA,,,0,146,146,160,,,,,,,,,2018_Sep_18_1301,59.5767413723,verb_norming_L1-swe_no_translation,001,811,
KRYPA,Ben/fötter,ben/fötter,0,147,147,123,0,0,0,0,6,5.936,,,2018_Sep_18_1301,59.5767413723,verb_norming_L1-swe_no_translation,001,811,
KRYPA,Armar/händer,armar/händer,0,147,147,123,0,1,1,1,6,1.876,,,2018_Sep_18_1301,59.5767413723,verb_norming_L1-swe_no_translation,001,811,
KRYPA,,,0,147,147,123,,,,,,,,,2018_Sep_18_1301,59.5767413723,verb_norming_L1-swe_no_translation,001,811,
SKRUBBA,Ben/fötter,ben/fötter,0,148,148,75,0,0,0,0,1,5.752,,,2018_Sep_18_1301,59.5767413723,verb_norming_L1-swe_no_translation,001,811,
SKRUBBA,Armar/händer,armar/händer,0,148,148,75,0,1,1,1,7,2.147,,,2018_Sep_18_1301,59.5767413723,verb_norming_L1-swe_no_translation,001,811,
SKRUBBA,,,0,148,148,75,,,,,,,,,2018_Sep_18_1301,59.5767413723,verb_norming_L1-swe_no_translation,001,811,
RUSA,Ben/fötter,ben/fötter,0,149,149,134,0,0,0,0,7,3.054,,,2018_Sep_18_1301,59.5767413723,verb_norming_L1-swe_no_translation,001,811,
RUSA,Armar/händer,armar/händer,0,149,149,134,0,1,1,1,2,5.233,,,2018_Sep_18_1301,59.5767413723,verb_norming_L1-swe_no_translation,001,811,
RUSA,,,0,149,149,134,,,,,,,,,2018_Sep_18_1301,59.5767413723,verb_norming_L1-swe_no_translation,001,811,
KNOGA,Ben/fötter,ben/fötter,0,150,150,121,0,0,0,0,4,5.348,,,2018_Sep_18_1301,59.5767413723,verb_norming_L1-swe_no_translation,001,811,
KNOGA,Armar/händer,armar/händer,0,150,150,121,0,1,1,1,6,3.085,,,2018_Sep_18_1301,59.5767413723,verb_norming_L1-swe_no_translation,001,811,
KNOGA,,,0,150,150,121,,,,,,,,,2018_Sep_18_1301,59.5767413723,verb_norming_L1-swe_no_translation,001,811,
GRIPA,Ben/fötter,ben/fötter,0,151,151,19,0,0,0,0,2,3.873,,,2018_Sep_18_1301,59.5767413723,verb_norming_L1-swe_no_translation,001,811,
GRIPA,Armar/händer,armar/händer,0,151,151,19,0,1,1,1,7,2.247,,,2018_Sep_18_1301,59.5767413723,verb_norming_L1-swe_no_translation,001,811,
GRIPA,,,0,151,151,19,,,,,,,,,2018_Sep_18_1301,59.5767413723,verb_norming_L1-swe_no_translation,001,811,
KNATA,Ben/fötter,ben/fötter,0,152,152,120,0,0,0,0,7,3.221,,,2018_Sep_18_1301,59.5767413723,verb_norming_L1-swe_no_translation,001,811,
KNATA,Armar/händer,armar/händer,0,152,152,120,0,1,1,1,1,3.019,,,2018_Sep_18_1301,59.5767413723,verb_norming_L1-swe_no_translation,001,811,
KNATA,,,0,152,152,120,,,,,,,,,2018_Sep_18_1301,59.5767413723,verb_norming_L1-swe_no_translation,001,811,
PUTTA,Ben/fötter,ben/fötter,0,153,153,57,0,0,0,0,1,5.015,,,2018_Sep_18_1301,59.5767413723,verb_norming_L1-swe_no_translation,001,811,
PUTTA,Armar/händer,armar/händer,0,153,153,57,0,1,1,1,7,3.171,,,2018_Sep_18_1301,59.5767413723,verb_norming_L1-swe_no_translation,001,811,
PUTTA,,,0,153,153,57,,,,,,,,,2018_Sep_18_1301,59.5767413723,verb_norming_L1-swe_no_translation,001,811,
PETA,Ben/fötter,ben/fötter,0,154,154,50,0,0,0,0,2,5.869,,,2018_Sep_18_1301,59.5767413723,verb_norming_L1-swe_no_translation,001,811,
PETA,Armar/händer,armar/händer,0,154,154,50,0,1,1,1,7,2.783,,,2018_Sep_18_1301,59.5767413723,verb_norming_L1-swe_no_translation,001,811,
PETA,,,0,154,154,50,,,,,,,,,2018_Sep_18_1301,59.5767413723,verb_norming_L1-swe_no_translation,001,811,
BANKA,Ben/fötter,ben/fötter,0,155,155,1,0,0,0,0,1,5.754,,,2018_Sep_18_1301,59.5767413723,verb_norming_L1-swe_no_translation,001,811,
BANKA,Armar/händer,armar/händer,0,155,155,1,0,1,1,1,7,2.316,,,2018_Sep_18_1301,59.5767413723,verb_norming_L1-swe_no_translation,001,811,
BANKA,,,0,155,155,1,,,,,,,,,2018_Sep_18_1301,59.5767413723,verb_norming_L1-swe_no_translation,001,811,
LUNKA,Ben/fötter,ben/fötter,0,156,156,126,0,0,0,0,7,6.021,,,2018_Sep_18_1301,59.5767413723,verb_norming_L1-swe_no_translation,001,811,
LUNKA,Armar/händer,armar/händer,0,156,156,126,0,1,1,1,2,4.731,,,2018_Sep_18_1301,59.5767413723,verb_norming_L1-swe_no_translation,001,811,
LUNKA,,,0,156,156,126,,,,,,,,,2018_Sep_18_1301,59.5767413723,verb_norming_L1-swe_no_translation,001,811,
BORSTA,Ben/fötter,ben/fötter,0,157,157,3,0,0,0,0,1,4.914,,,2018_Sep_18_1301,59.5767413723,verb_norming_L1-swe_no_translation,001,811,
BORSTA,Armar/händer,armar/händer,0,157,157,3,0,1,1,1,7,2.08,,,2018_Sep_18_1301,59.5767413723,verb_norming_L1-swe_no_translation,001,811,
BORSTA,,,0,157,157,3,,,,,,,,,2018_Sep_18_1301,59.5767413723,verb_norming_L1-swe_no_translation,001,811,
STUDSA,Ben/fötter,ben/fötter,0,158,158,155,0,0,0,0,7,3.186,,,2018_Sep_18_1301,59.5767413723,verb_norming_L1-swe_no_translation,001,811,
STUDSA,Armar/händer,armar/händer,0,158,158,155,0,1,1,1,1,2.884,,,2018_Sep_18_1301,59.5767413723,verb_norming_L1-swe_no_translation,001,811,
STUDSA,,,0,158,158,155,,,,,,,,,2018_Sep_18_1301,59.5767413723,verb_norming_L1-swe_no_translation,001,811,
FÅNGA,Ben/fötter,ben/fötter,0,159,159,8,0,0,0,0,2,5.064,,,2018_Sep_18_1301,59.5767413723,verb_norming_L1-swe_no_translation,001,811,
FÅNGA,Armar/händer,armar/händer,0,159,159,8,0,1,1,1,7,1.911,,,2018_Sep_18_1301,59.5767413723,verb_norming_L1-swe_no_translation,001,811,
FÅNGA,,,0,159,159,8,,,,,,,,,2018_Sep_18_1301,59.5767413723,verb_norming_L1-swe_no_translation,001,811,
GESTIKULERA,Ben/fötter,ben/fötter,0,160,160,13,0,0,0,0,1,3.215,,,2018_Sep_18_1301,59.5767413723,verb_norming_L1-swe_no_translation,001,811,
GESTIKULERA,Armar/händer,armar/händer,0,160,160,13,0,1,1,1,7,1.773,,,2018_Sep_18_1301,59.5767413723,verb_norming_L1-swe_no_translation,001,811,
GESTIKULERA,,,0,160,160,13,,,,,,,,,2018_Sep_18_1301,59.5767413723,verb_norming_L1-swe_no_translation,001,811,
LINDA,Ben/fötter,ben/fötter,0,161,161,43,0,0,0,0,3,6.742,,,2018_Sep_18_1301,59.5767413723,verb_norming_L1-swe_no_translation,001,811,
LINDA,Armar/händer,armar/händer,0,161,161,43,0,1,1,1,7,1.779,,,2018_Sep_18_1301,59.5767413723,verb_norming_L1-swe_no_translation,001,811,
LINDA,,,0,161,161,43,,,,,,,,,2018_Sep_18_1301,59.5767413723,verb_norming_L1-swe_no_translation,001,811,
LYFTA,Ben/fötter,ben/fötter,0,162,162,44,0,0,0,0,7,3.671,,,2018_Sep_18_1301,59.5767413723,verb_norming_L1-swe_no_translation,001,811,
LYFTA,Armar/händer,armar/händer,0,162,162,44,0,1,1,1,7,1.274,,,2018_Sep_18_1301,59.5767413723,verb_norming_L1-swe_no_translation,001,811,
LYFTA,,,0,162,162,44,,,,,,,,,2018_Sep_18_1301,59.5767413723,verb_norming_L1-swe_no_translation,001,811,
FILA,Ben/fötter,ben/fötter,0,163,163,10,0,0,0,0,7,5.367,,,2018_Sep_18_1301,59.5767413723,verb_norming_L1-swe_no_translation,001,811,
FILA,Armar/händer,armar/händer,0,163,163,10,0,1,1,1,7,1.662,,,2018_Sep_18_1301,59.5767413723,verb_norming_L1-swe_no_translation,001,811,
FILA,,,0,163,163,10,,,,,,,,,2018_Sep_18_1301,59.5767413723,verb_norming_L1-swe_no_translation,001,811,
STRUTTA,Ben/fötter,ben/fötter,0,164,164,154,0,0,0,0,5,5.618,,,2018_Sep_18_1301,59.5767413723,verb_norming_L1-swe_no_translation,001,811,
STRUTTA,Armar/händer,armar/händer,0,164,164,154,0,1,1,1,3,1.711,,,2018_Sep_18_1301,59.5767413723,verb_norming_L1-swe_no_translation,001,811,
STRUTTA,,,0,164,164,154,,,,,,,,,2018_Sep_18_1301,59.5767413723,verb_norming_L1-swe_no_translation,001,811,
PROMENERA,Ben/fötter,ben/fötter,0,165,165,129,0,0,0,0,7,2.981,,,2018_Sep_18_1301,59.5767413723,verb_norming_L1-swe_no_translation,001,811,
PROMENERA,Armar/händer,armar/händer,0,165,165,129,0,1,1,1,1,6.151,,,2018_Sep_18_1301,59.5767413723,verb_norming_L1-swe_no_translation,001,811,
PROMENERA,,,0,165,165,129,,,,,,,,,2018_Sep_18_1301,59.5767413723,verb_norming_L1-swe_no_translation,001,811,
RASPA,Ben/fötter,ben/fötter,0,166,166,60,0,0,0,0,1,2.415,,,2018_Sep_18_1301,59.5767413723,verb_norming_L1-swe_no_translation,001,811,
RASPA,Armar/händer,armar/händer,0,166,166,60,0,1,1,1,7,2.383,,,2018_Sep_18_1301,59.5767413723,verb_norming_L1-swe_no_translation,001,811,
RASPA,,,0,166,166,60,,,,,,,,,2018_Sep_18_1301,59.5767413723,verb_norming_L1-swe_no_translation,001,811,
HACKA,Ben/fötter,ben/fötter,0,167,167,20,0,0,0,0,7,5.465,,,2018_Sep_18_1301,59.5767413723,verb_norming_L1-swe_no_translation,001,811,
HACKA,Armar/händer,armar/händer,0,167,167,20,0,1,1,1,7,8.687,,,2018_Sep_18_1301,59.5767413723,verb_norming_L1-swe_no_translation,001,811,
HACKA,,,0,167,167,20,,,,,,,,,2018_Sep_18_1301,59.5767413723,verb_norming_L1-swe_no_translation,001,811,
TRAMPA,Ben/fötter,ben/fötter,0,168,168,161,0,0,0,0,7,2.482,,,2018_Sep_18_1301,59.5767413723,verb_norming_L1-swe_no_translation,001,811,
TRAMPA,Armar/händer,armar/händer,0,168,168,161,0,1,1,1,1,3.974,,,2018_Sep_18_1301,59.5767413723,verb_norming_L1-swe_no_translation,001,811,
TRAMPA,,,0,168,168,161,,,,,,,,,2018_Sep_18_1301,59.5767413723,verb_norming_L1-swe_no_translation,001,811,
,,,,,,,,,,,,,space,17.358207192,2018_Sep_18_1301,59.5767413723,verb_norming_L1-swe_no_translation,001,811,
