word,category,category_lowercase,trials.thisRepN,trials.thisTrialN,trials.thisN,trials.thisIndex,armleg_loop.thisRepN,armleg_loop.thisTrialN,armleg_loop.thisN,armleg_loop.thisIndex,rating.response,rating.rt,key_resp_7.keys,key_resp_7.rt,date,frameRate,expName,session,participant,
STAND,Leg,leg,0,0,0,102,0,0,0,0,7,9.25,,,2018_Sep_18_1329,59.6670517231,verb_norming_L2-eng_oral_translation,001,811,
STAND,Arm,arm,0,0,0,102,0,1,1,1,2,5.73,,,2018_Sep_18_1329,59.6670517231,verb_norming_L2-eng_oral_translation,001,811,
STAND,,,0,0,0,102,,,,,,,return,4.54518982345,2018_Sep_18_1329,59.6670517231,verb_norming_L2-eng_oral_translation,001,811,
FILE,Leg,leg,0,1,1,15,0,0,0,0,3,28.234,,,2018_Sep_18_1329,59.6670517231,verb_norming_L2-eng_oral_translation,001,811,
FILE,Arm,arm,0,1,1,15,0,1,1,1,7,5.781,,,2018_Sep_18_1329,59.6670517231,verb_norming_L2-eng_oral_translation,001,811,
FILE,,,0,1,1,15,,,,,,,return,2.63350345344,2018_Sep_18_1329,59.6670517231,verb_norming_L2-eng_oral_translation,001,811,
STOMP,Leg,leg,0,2,2,104,0,0,0,0,7,7.234,,,2018_Sep_18_1329,59.6670517231,verb_norming_L2-eng_oral_translation,001,811,
STOMP,Arm,arm,0,2,2,104,0,1,1,1,3,5.11,,,2018_Sep_18_1329,59.6670517231,verb_norming_L2-eng_oral_translation,001,811,
STOMP,,,0,2,2,104,,,,,,,return,2.88505059549,2018_Sep_18_1329,59.6670517231,verb_norming_L2-eng_oral_translation,001,811,
HIKE,Leg,leg,0,3,3,69,0,0,0,0,3,9.853,,,2018_Sep_18_1329,59.6670517231,verb_norming_L2-eng_oral_translation,001,811,
HIKE,Arm,arm,0,3,3,69,0,1,1,1,3,18.191,,,2018_Sep_18_1329,59.6670517231,verb_norming_L2-eng_oral_translation,001,811,
HIKE,,,0,3,3,69,,,,,,,return,4.44474165306,2018_Sep_18_1329,59.6670517231,verb_norming_L2-eng_oral_translation,001,811,
GRASP,Leg,leg,0,4,4,19,0,0,0,0,1,7.014,,,2018_Sep_18_1329,59.6670517231,verb_norming_L2-eng_oral_translation,001,811,
GRASP,Arm,arm,0,4,4,19,0,1,1,1,7,8.933,,,2018_Sep_18_1329,59.6670517231,verb_norming_L2-eng_oral_translation,001,811,
GRASP,,,0,4,4,19,,,,,,,return,2.7341404852,2018_Sep_18_1329,59.6670517231,verb_norming_L2-eng_oral_translation,001,811,
POKE,Leg,leg,0,5,5,31,0,0,0,0,1,17.232,,,2018_Sep_18_1329,59.6670517231,verb_norming_L2-eng_oral_translation,001,811,
POKE,Arm,arm,0,5,5,31,0,1,1,1,7,6.284,,,2018_Sep_18_1329,59.6670517231,verb_norming_L2-eng_oral_translation,001,811,
POKE,,,0,5,5,31,,,,,,,return,2.48251866784,2018_Sep_18_1329,59.6670517231,verb_norming_L2-eng_oral_translation,001,811,
TRAIPSE,Leg,leg,0,6,6,115,0,0,0,0,5,16.341,,,2018_Sep_18_1329,59.6670517231,verb_norming_L2-eng_oral_translation,001,811,
TRAIPSE,Arm,arm,0,6,6,115,0,1,1,1,1,4.27,,,2018_Sep_18_1329,59.6670517231,verb_norming_L2-eng_oral_translation,001,811,
TRAIPSE,,,0,6,6,115,,,,,,,return,4.59567507469,2018_Sep_18_1329,59.6670517231,verb_norming_L2-eng_oral_translation,001,811,
FLEE,Leg,leg,0,7,7,66,0,0,0,0,7,7.455,,,2018_Sep_18_1329,59.6670517231,verb_norming_L2-eng_oral_translation,001,811,
FLEE,Arm,arm,0,7,7,66,0,1,1,1,1,2.141,,,2018_Sep_18_1329,59.6670517231,verb_norming_L2-eng_oral_translation,001,811,
FLEE,,,0,7,7,66,,,,,,,return,2.39861443715,2018_Sep_18_1329,59.6670517231,verb_norming_L2-eng_oral_translation,001,811,
SKATE,Leg,leg,0,8,8,92,0,0,0,0,7,15.555,,,2018_Sep_18_1329,59.6670517231,verb_norming_L2-eng_oral_translation,001,811,
SKATE,Arm,arm,0,8,8,92,0,1,1,1,2,9.034,,,2018_Sep_18_1329,59.6670517231,verb_norming_L2-eng_oral_translation,001,811,
SKATE,,,0,8,8,92,,,,,,,return,5.04830425803,2018_Sep_18_1329,59.6670517231,verb_norming_L2-eng_oral_translation,001,811,
CATCH,Leg,leg,0,9,9,5,0,0,0,0,2,5.911,,,2018_Sep_18_1329,59.6670517231,verb_norming_L2-eng_oral_translation,001,811,
CATCH,Arm,arm,0,9,9,5,0,1,1,1,7,2.845,,,2018_Sep_18_1329,59.6670517231,verb_norming_L2-eng_oral_translation,001,811,
CATCH,,,0,9,9,5,,,,,,,return,2.012949252,2018_Sep_18_1329,59.6670517231,verb_norming_L2-eng_oral_translation,001,811,
GLIDE,Leg,leg,0,10,10,67,0,0,0,0,7,4.938,,,2018_Sep_18_1329,59.6670517231,verb_norming_L2-eng_oral_translation,001,811,
GLIDE,Arm,arm,0,10,10,67,0,1,1,1,1,2.861,,,2018_Sep_18_1329,59.6670517231,verb_norming_L2-eng_oral_translation,001,811,
GLIDE,,,0,10,10,67,,,,,,,return,2.38189704527,2018_Sep_18_1329,59.6670517231,verb_norming_L2-eng_oral_translation,001,811,
DANCE,Leg,leg,0,11,11,64,0,0,0,0,7,4.721,,,2018_Sep_18_1329,59.6670517231,verb_norming_L2-eng_oral_translation,001,811,
DANCE,Arm,arm,0,11,11,64,0,1,1,1,6,3.818,,,2018_Sep_18_1329,59.6670517231,verb_norming_L2-eng_oral_translation,001,811,
DANCE,,,0,11,11,64,,,,,,,return,1.71088841098,2018_Sep_18_1329,59.6670517231,verb_norming_L2-eng_oral_translation,001,811,
PLOD,Leg,leg,0,12,12,84,0,0,0,0,1,9.182,,,2018_Sep_18_1329,59.6670517231,verb_norming_L2-eng_oral_translation,001,811,
PLOD,Arm,arm,0,12,12,84,0,1,1,1,3,4.439,,,2018_Sep_18_1329,59.6670517231,verb_norming_L2-eng_oral_translation,001,811,
PLOD,,,0,12,12,84,,,,,,,return,3.2875596069,2018_Sep_18_1329,59.6670517231,verb_norming_L2-eng_oral_translation,001,811,
CLAP,Leg,leg,0,13,13,7,0,0,0,0,2,8.31,,,2018_Sep_18_1329,59.6670517231,verb_norming_L2-eng_oral_translation,001,811,
CLAP,Arm,arm,0,13,13,7,0,1,1,1,7,1.789,,,2018_Sep_18_1329,59.6670517231,verb_norming_L2-eng_oral_translation,001,811,
CLAP,,,0,13,13,7,,,,,,,return,2.5500626838,2018_Sep_18_1329,59.6670517231,verb_norming_L2-eng_oral_translation,001,811,
BASH,Leg,leg,0,14,14,0,0,0,0,0,1,13.544,,,2018_Sep_18_1329,59.6670517231,verb_norming_L2-eng_oral_translation,001,811,
BASH,Arm,arm,0,14,14,0,0,1,1,1,5,8.279,,,2018_Sep_18_1329,59.6670517231,verb_norming_L2-eng_oral_translation,001,811,
BASH,,,0,14,14,0,,,,,,,return,3.60606877161,2018_Sep_18_1329,59.6670517231,verb_norming_L2-eng_oral_translation,001,811,
TWINE,Leg,leg,0,15,15,55,0,0,0,0,1,6.313,,,2018_Sep_18_1329,59.6670517231,verb_norming_L2-eng_oral_translation,001,811,
TWINE,Arm,arm,0,15,15,55,0,1,1,1,7,3.718,,,2018_Sep_18_1329,59.6670517231,verb_norming_L2-eng_oral_translation,001,811,
TWINE,,,0,15,15,55,,,,,,,return,2.48254039875,2018_Sep_18_1329,59.6670517231,verb_norming_L2-eng_oral_translation,001,811,
CROUCH,Leg,leg,0,16,16,62,0,0,0,0,7,20.836,,,2018_Sep_18_1329,59.6670517231,verb_norming_L2-eng_oral_translation,001,811,
CROUCH,Arm,arm,0,16,16,62,0,1,1,1,1,5.394,,,2018_Sep_18_1329,59.6670517231,verb_norming_L2-eng_oral_translation,001,811,
CROUCH,,,0,16,16,62,,,,,,,return,2.81793290048,2018_Sep_18_1329,59.6670517231,verb_norming_L2-eng_oral_translation,001,811,
GRAB,Leg,leg,0,17,17,18,0,0,0,0,1,6.867,,,2018_Sep_18_1329,59.6670517231,verb_norming_L2-eng_oral_translation,001,811,
GRAB,Arm,arm,0,17,17,18,0,1,1,1,7,3.381,,,2018_Sep_18_1329,59.6670517231,verb_norming_L2-eng_oral_translation,001,811,
GRAB,,,0,17,17,18,,,,,,,return,2.65023467408,2018_Sep_18_1329,59.6670517231,verb_norming_L2-eng_oral_translation,001,811,
SKIP,Leg,leg,0,18,18,93,0,0,0,0,5,14.465,,,2018_Sep_18_1329,59.6670517231,verb_norming_L2-eng_oral_translation,001,811,
SKIP,Arm,arm,0,18,18,93,0,1,1,1,1,10.158,,,2018_Sep_18_1329,59.6670517231,verb_norming_L2-eng_oral_translation,001,811,
SKIP,,,0,18,18,93,,,,,,,return,3.6900520238,2018_Sep_18_1329,59.6670517231,verb_norming_L2-eng_oral_translation,001,811,
GRATE,Leg,leg,0,19,19,20,0,0,0,0,1,6.413,,,2018_Sep_18_1329,59.6670517231,verb_norming_L2-eng_oral_translation,001,811,
GRATE,Arm,arm,0,19,19,20,0,1,1,1,4,2.827,,,2018_Sep_18_1329,59.6670517231,verb_norming_L2-eng_oral_translation,001,811,
GRATE,,,0,19,19,20,,,,,,,return,3.77390726117,2018_Sep_18_1329,59.6670517231,verb_norming_L2-eng_oral_translation,001,811,
SKIM,Leg,leg,0,20,20,45,0,0,0,0,1,15.706,,,2018_Sep_18_1329,59.6670517231,verb_norming_L2-eng_oral_translation,001,811,
SKIM,Arm,arm,0,20,20,45,0,1,1,1,7,8.128,,,2018_Sep_18_1329,59.6670517231,verb_norming_L2-eng_oral_translation,001,811,
SKIM,,,0,20,20,45,,,,,,,return,4.20996800815,2018_Sep_18_1329,59.6670517231,verb_norming_L2-eng_oral_translation,001,811,
SWAY,Leg,leg,0,21,21,111,0,0,0,0,5,6.013,,,2018_Sep_18_1329,59.6670517231,verb_norming_L2-eng_oral_translation,001,811,
SWAY,Arm,arm,0,21,21,111,0,1,1,1,5,4.12,,,2018_Sep_18_1329,59.6670517231,verb_norming_L2-eng_oral_translation,001,811,
SWAY,,,0,21,21,111,,,,,,,return,2.0129543884,2018_Sep_18_1329,59.6670517231,verb_norming_L2-eng_oral_translation,001,811,
HOP,Leg,leg,0,22,22,71,0,0,0,0,7,3.196,,,2018_Sep_18_1329,59.6670517231,verb_norming_L2-eng_oral_translation,001,811,
HOP,Arm,arm,0,22,22,71,0,1,1,1,2,5.329,,,2018_Sep_18_1329,59.6670517231,verb_norming_L2-eng_oral_translation,001,811,
HOP,,,0,22,22,71,,,,,,,return,1.92909638528,2018_Sep_18_1329,59.6670517231,verb_norming_L2-eng_oral_translation,001,811,
GESTURE,Leg,leg,0,23,23,17,0,0,0,0,1,8.039,,,2018_Sep_18_1329,59.6670517231,verb_norming_L2-eng_oral_translation,001,811,
GESTURE,Arm,arm,0,23,23,17,0,1,1,1,7,3.044,,,2018_Sep_18_1329,59.6670517231,verb_norming_L2-eng_oral_translation,001,811,
GESTURE,,,0,23,23,17,,,,,,,return,2.39842320514,2018_Sep_18_1329,59.6670517231,verb_norming_L2-eng_oral_translation,001,811,
KICK,Leg,leg,0,24,24,75,0,0,0,0,7,4.082,,,2018_Sep_18_1329,59.6670517231,verb_norming_L2-eng_oral_translation,001,811,
KICK,Arm,arm,0,24,24,75,0,1,1,1,1,5.11,,,2018_Sep_18_1329,59.6670517231,verb_norming_L2-eng_oral_translation,001,811,
KICK,,,0,24,24,75,,,,,,,return,2.36495760299,2018_Sep_18_1329,59.6670517231,verb_norming_L2-eng_oral_translation,001,811,
RUB,Leg,leg,0,25,25,37,0,0,0,0,2,16.093,,,2018_Sep_18_1329,59.6670517231,verb_norming_L2-eng_oral_translation,001,811,
RUB,Arm,arm,0,25,25,37,0,1,1,1,7,2.444,,,2018_Sep_18_1329,59.6670517231,verb_norming_L2-eng_oral_translation,001,811,
RUB,,,0,25,25,37,,,,,,,return,3.62283160085,2018_Sep_18_1329,59.6670517231,verb_norming_L2-eng_oral_translation,001,811,
CUT,Leg,leg,0,26,26,12,0,0,0,0,1,4.487,,,2018_Sep_18_1329,59.6670517231,verb_norming_L2-eng_oral_translation,001,811,
CUT,Arm,arm,0,26,26,12,0,1,1,1,7,4.708,,,2018_Sep_18_1329,59.6670517231,verb_norming_L2-eng_oral_translation,001,811,
CUT,,,0,26,26,12,,,,,,,return,2.63335805389,2018_Sep_18_1329,59.6670517231,verb_norming_L2-eng_oral_translation,001,811,
MOUNT,Leg,leg,0,27,27,81,0,0,0,0,1,9.215,,,2018_Sep_18_1329,59.6670517231,verb_norming_L2-eng_oral_translation,001,811,
MOUNT,Arm,arm,0,27,27,81,0,1,1,1,4,1.806,,,2018_Sep_18_1329,59.6670517231,verb_norming_L2-eng_oral_translation,001,811,
MOUNT,,,0,27,27,81,,,,,,,return,2.73404289366,2018_Sep_18_1329,59.6670517231,verb_norming_L2-eng_oral_translation,001,811,
TREAD,Leg,leg,0,28,28,118,0,0,0,0,1,5.306,,,2018_Sep_18_1329,59.6670517231,verb_norming_L2-eng_oral_translation,001,811,
TREAD,Arm,arm,0,28,28,118,0,1,1,1,7,4.89,,,2018_Sep_18_1329,59.6670517231,verb_norming_L2-eng_oral_translation,001,811,
TREAD,,,0,28,28,118,,,,,,,return,2.95210902437,2018_Sep_18_1329,59.6670517231,verb_norming_L2-eng_oral_translation,001,811,
PEDAL,Leg,leg,0,29,29,83,0,0,0,0,7,12.419,,,2018_Sep_18_1329,59.6670517231,verb_norming_L2-eng_oral_translation,001,811,
PEDAL,Arm,arm,0,29,29,83,0,1,1,1,1,2.208,,,2018_Sep_18_1329,59.6670517231,verb_norming_L2-eng_oral_translation,001,811,
PEDAL,,,0,29,29,83,,,,,,,return,3.1699373004,2018_Sep_18_1329,59.6670517231,verb_norming_L2-eng_oral_translation,001,811,
BOUNCE,Leg,leg,0,30,30,60,0,0,0,0,7,4.183,,,2018_Sep_18_1329,59.6670517231,verb_norming_L2-eng_oral_translation,001,811,
BOUNCE,Arm,arm,0,30,30,60,0,1,1,1,2,3.515,,,2018_Sep_18_1329,59.6670517231,verb_norming_L2-eng_oral_translation,001,811,
BOUNCE,,,0,30,30,60,,,,,,,return,3.33774892264,2018_Sep_18_1329,59.6670517231,verb_norming_L2-eng_oral_translation,001,811,
JUMP,Leg,leg,0,31,31,74,0,0,0,0,7,3.645,,,2018_Sep_18_1329,59.6670517231,verb_norming_L2-eng_oral_translation,001,811,
JUMP,Arm,arm,0,31,31,74,0,1,1,1,2,2.055,,,2018_Sep_18_1329,59.6670517231,verb_norming_L2-eng_oral_translation,001,811,
JUMP,,,0,31,31,74,,,,,,,return,2.02970180845,2018_Sep_18_1329,59.6670517231,verb_norming_L2-eng_oral_translation,001,811,
TRUDGE,Leg,leg,0,32,32,122,0,0,0,0,3,10.79,,,2018_Sep_18_1329,59.6670517231,verb_norming_L2-eng_oral_translation,001,811,
TRUDGE,Arm,arm,0,32,32,122,0,1,1,1,1,2.39,,,2018_Sep_18_1329,59.6670517231,verb_norming_L2-eng_oral_translation,001,811,
TRUDGE,,,0,32,32,122,,,,,,,return,1.7949155201,2018_Sep_18_1329,59.6670517231,verb_norming_L2-eng_oral_translation,001,811,
SAUNTER,Leg,leg,0,33,33,90,0,0,0,0,1,7.319,,,2018_Sep_18_1329,59.6670517231,verb_norming_L2-eng_oral_translation,001,811,
SAUNTER,Arm,arm,0,33,33,90,0,1,1,1,4,2.609,,,2018_Sep_18_1329,59.6670517231,verb_norming_L2-eng_oral_translation,001,811,
SAUNTER,,,0,33,33,90,,,,,,,return,1.94596233757,2018_Sep_18_1329,59.6670517231,verb_norming_L2-eng_oral_translation,001,811,
SLAP,Leg,leg,0,34,34,46,0,0,0,0,2,8.83,,,2018_Sep_18_1329,59.6670517231,verb_norming_L2-eng_oral_translation,001,811,
SLAP,Arm,arm,0,34,34,46,0,1,1,1,7,3.248,,,2018_Sep_18_1329,59.6670517231,verb_norming_L2-eng_oral_translation,001,811,
SLAP,,,0,34,34,46,,,,,,,return,2.54962292919,2018_Sep_18_1329,59.6670517231,verb_norming_L2-eng_oral_translation,001,811,
BRAID,Leg,leg,0,35,35,2,0,0,0,0,1,7.018,,,2018_Sep_18_1329,59.6670517231,verb_norming_L2-eng_oral_translation,001,811,
BRAID,Arm,arm,0,35,35,2,0,1,1,1,1,3.751,,,2018_Sep_18_1329,59.6670517231,verb_norming_L2-eng_oral_translation,001,811,
BRAID,,,0,35,35,2,,,,,,,return,3.00235009919,2018_Sep_18_1329,59.6670517231,verb_norming_L2-eng_oral_translation,001,811,
ROAM,Leg,leg,0,36,36,87,0,0,0,0,1,19.212,,,2018_Sep_18_1329,59.6670517231,verb_norming_L2-eng_oral_translation,001,811,
ROAM,Arm,arm,0,36,36,87,0,1,1,1,4,1.974,,,2018_Sep_18_1329,59.6670517231,verb_norming_L2-eng_oral_translation,001,811,
ROAM,,,0,36,36,87,,,,,,,return,7.01069121285,2018_Sep_18_1329,59.6670517231,verb_norming_L2-eng_oral_translation,001,811,
BIND,Leg,leg,0,37,37,1,0,0,0,0,3,3.799,,,2018_Sep_18_1329,59.6670517231,verb_norming_L2-eng_oral_translation,001,811,
BIND,Arm,arm,0,37,37,1,0,1,1,1,7,1.571,,,2018_Sep_18_1329,59.6670517231,verb_norming_L2-eng_oral_translation,001,811,
BIND,,,0,37,37,1,,,,,,,return,1.89555768826,2018_Sep_18_1329,59.6670517231,verb_norming_L2-eng_oral_translation,001,811,
MARCH,Leg,leg,0,38,38,80,0,0,0,0,7,3.329,,,2018_Sep_18_1329,59.6670517231,verb_norming_L2-eng_oral_translation,001,811,
MARCH,Arm,arm,0,38,38,80,0,1,1,1,6,3.114,,,2018_Sep_18_1329,59.6670517231,verb_norming_L2-eng_oral_translation,001,811,
MARCH,,,0,38,38,80,,,,,,,return,3.00208261144,2018_Sep_18_1329,59.6670517231,verb_norming_L2-eng_oral_translation,001,811,
INCH,Leg,leg,0,39,39,72,0,0,0,0,3,14.717,,,2018_Sep_18_1329,59.6670517231,verb_norming_L2-eng_oral_translation,001,811,
INCH,Arm,arm,0,39,39,72,0,1,1,1,4,1.789,,,2018_Sep_18_1329,59.6670517231,verb_norming_L2-eng_oral_translation,001,811,
INCH,,,0,39,39,72,,,,,,,return,3.52220326145,2018_Sep_18_1329,59.6670517231,verb_norming_L2-eng_oral_translation,001,811,
STRUT,Leg,leg,0,40,40,109,0,0,0,0,7,8.83,,,2018_Sep_18_1329,59.6670517231,verb_norming_L2-eng_oral_translation,001,811,
STRUT,Arm,arm,0,40,40,109,0,1,1,1,1,2.242,,,2018_Sep_18_1329,59.6670517231,verb_norming_L2-eng_oral_translation,001,811,
STRUT,,,0,40,40,109,,,,,,,return,4.2937695109,2018_Sep_18_1329,59.6670517231,verb_norming_L2-eng_oral_translation,001,811,
NIP,Leg,leg,0,41,41,26,0,0,0,0,1,9.4,,,2018_Sep_18_1329,59.6670517231,verb_norming_L2-eng_oral_translation,001,811,
NIP,Arm,arm,0,41,41,26,0,1,1,1,7,8.481,,,2018_Sep_18_1329,59.6670517231,verb_norming_L2-eng_oral_translation,001,811,
NIP,,,0,41,41,26,,,,,,,return,5.33353115047,2018_Sep_18_1329,59.6670517231,verb_norming_L2-eng_oral_translation,001,811,
TREK,Leg,leg,0,42,42,119,0,0,0,0,7,26.088,,,2018_Sep_18_1329,59.6670517231,verb_norming_L2-eng_oral_translation,001,811,
TREK,Arm,arm,0,42,42,119,0,1,1,1,1,2.678,,,2018_Sep_18_1329,59.6670517231,verb_norming_L2-eng_oral_translation,001,811,
TREK,,,0,42,42,119,,,,,,,return,4.72980813186,2018_Sep_18_1329,59.6670517231,verb_norming_L2-eng_oral_translation,001,811,
HOBBLE,Leg,leg,0,43,43,70,0,0,0,0,7,8.947,,,2018_Sep_18_1329,59.6670517231,verb_norming_L2-eng_oral_translation,001,811,
HOBBLE,Arm,arm,0,43,43,70,0,1,1,1,1,2.04,,,2018_Sep_18_1329,59.6670517231,verb_norming_L2-eng_oral_translation,001,811,
HOBBLE,,,0,43,43,70,,,,,,,return,3.18693205772,2018_Sep_18_1329,59.6670517231,verb_norming_L2-eng_oral_translation,001,811,
TOTTER,Leg,leg,0,44,44,114,0,0,0,0,7,8.728,,,2018_Sep_18_1329,59.6670517231,verb_norming_L2-eng_oral_translation,001,811,
TOTTER,Arm,arm,0,44,44,114,0,1,1,1,1,4.74,,,2018_Sep_18_1329,59.6670517231,verb_norming_L2-eng_oral_translation,001,811,
TOTTER,,,0,44,44,114,,,,,,,return,2.29797029345,2018_Sep_18_1329,59.6670517231,verb_norming_L2-eng_oral_translation,001,811,
SIGN,Leg,leg,0,45,45,44,0,0,0,0,1,4.082,,,2018_Sep_18_1329,59.6670517231,verb_norming_L2-eng_oral_translation,001,811,
SIGN,Arm,arm,0,45,45,44,0,1,1,1,7,1.855,,,2018_Sep_18_1329,59.6670517231,verb_norming_L2-eng_oral_translation,001,811,
SIGN,,,0,45,45,44,,,,,,,return,2.46575544349,2018_Sep_18_1329,59.6670517231,verb_norming_L2-eng_oral_translation,001,811,
PINCH,Leg,leg,0,46,46,29,0,0,0,0,2,6.733,,,2018_Sep_18_1329,59.6670517231,verb_norming_L2-eng_oral_translation,001,811,
PINCH,Arm,arm,0,46,46,29,0,1,1,1,7,6.418,,,2018_Sep_18_1329,59.6670517231,verb_norming_L2-eng_oral_translation,001,811,
PINCH,,,0,46,46,29,,,,,,,return,5.33350428316,2018_Sep_18_1329,59.6670517231,verb_norming_L2-eng_oral_translation,001,811,
GROVEL,Leg,leg,0,47,47,68,0,0,0,0,1,7.937,,,2018_Sep_18_1329,59.6670517231,verb_norming_L2-eng_oral_translation,001,811,
GROVEL,Arm,arm,0,47,47,68,0,1,1,1,7,2.508,,,2018_Sep_18_1329,59.6670517231,verb_norming_L2-eng_oral_translation,001,811,
GROVEL,,,0,47,47,68,,,,,,,return,7.02718023262,2018_Sep_18_1329,59.6670517231,verb_norming_L2-eng_oral_translation,001,811,
PRANCE,Leg,leg,0,48,48,85,0,0,0,0,1,4.67,,,2018_Sep_18_1329,59.6670517231,verb_norming_L2-eng_oral_translation,001,811,
PRANCE,Arm,arm,0,48,48,85,0,1,1,1,1,1.034,,,2018_Sep_18_1329,59.6670517231,verb_norming_L2-eng_oral_translation,001,811,
PRANCE,,,0,48,48,85,,,,,,,return,2.41548829158,2018_Sep_18_1329,59.6670517231,verb_norming_L2-eng_oral_translation,001,811,
WADDLE,Leg,leg,0,49,49,123,0,0,0,0,5,12.653,,,2018_Sep_18_1329,59.6670517231,verb_norming_L2-eng_oral_translation,001,811,
WADDLE,Arm,arm,0,49,49,123,0,1,1,1,1,7.96,,,2018_Sep_18_1329,59.6670517231,verb_norming_L2-eng_oral_translation,001,811,
WADDLE,,,0,49,49,123,,,,,,,return,3.00239356101,2018_Sep_18_1329,59.6670517231,verb_norming_L2-eng_oral_translation,001,811,
WIPE,Leg,leg,0,50,50,58,0,0,0,0,1,4.99,,,2018_Sep_18_1329,59.6670517231,verb_norming_L2-eng_oral_translation,001,811,
WIPE,Arm,arm,0,50,50,58,0,1,1,1,7,1.739,,,2018_Sep_18_1329,59.6670517231,verb_norming_L2-eng_oral_translation,001,811,
WIPE,,,0,50,50,58,,,,,,,return,1.77795316159,2018_Sep_18_1329,59.6670517231,verb_norming_L2-eng_oral_translation,001,811,
TRAMPLE,Leg,leg,0,51,51,117,0,0,0,0,7,4.484,,,2018_Sep_18_1329,59.6670517231,verb_norming_L2-eng_oral_translation,001,811,
TRAMPLE,Arm,arm,0,51,51,117,0,1,1,1,1,1.67,,,2018_Sep_18_1329,59.6670517231,verb_norming_L2-eng_oral_translation,001,811,
TRAMPLE,,,0,51,51,117,,,,,,,return,1.2917631552,2018_Sep_18_1329,59.6670517231,verb_norming_L2-eng_oral_translation,001,811,
FOLD,Leg,leg,0,52,52,16,0,0,0,0,1,4.235,,,2018_Sep_18_1329,59.6670517231,verb_norming_L2-eng_oral_translation,001,811,
FOLD,Arm,arm,0,52,52,16,0,1,1,1,7,2.275,,,2018_Sep_18_1329,59.6670517231,verb_norming_L2-eng_oral_translation,001,811,
FOLD,,,0,52,52,16,,,,,,,return,1.79491077881,2018_Sep_18_1329,59.6670517231,verb_norming_L2-eng_oral_translation,001,811,
TIPTOE,Leg,leg,0,53,53,112,0,0,0,0,7,4.401,,,2018_Sep_18_1329,59.6670517231,verb_norming_L2-eng_oral_translation,001,811,
TIPTOE,Arm,arm,0,53,53,112,0,1,1,1,2,1.67,,,2018_Sep_18_1329,59.6670517231,verb_norming_L2-eng_oral_translation,001,811,
TIPTOE,,,0,53,53,112,,,,,,,return,2.76765982196,2018_Sep_18_1329,59.6670517231,verb_norming_L2-eng_oral_translation,001,811,
LIMP,Leg,leg,0,54,54,78,0,0,0,0,7,3.38,,,2018_Sep_18_1329,59.6670517231,verb_norming_L2-eng_oral_translation,001,811,
LIMP,Arm,arm,0,54,54,78,0,1,1,1,1,1.588,,,2018_Sep_18_1329,59.6670517231,verb_norming_L2-eng_oral_translation,001,811,
LIMP,,,0,54,54,78,,,,,,,return,2.07990613827,2018_Sep_18_1329,59.6670517231,verb_norming_L2-eng_oral_translation,001,811,
STEP,Leg,leg,0,55,55,103,0,0,0,0,7,13.273,,,2018_Sep_18_1329,59.6670517231,verb_norming_L2-eng_oral_translation,001,811,
STEP,Arm,arm,0,55,55,103,0,1,1,1,1,1.538,,,2018_Sep_18_1329,59.6670517231,verb_norming_L2-eng_oral_translation,001,811,
STEP,,,0,55,55,103,,,,,,,return,2.73418236659,2018_Sep_18_1329,59.6670517231,verb_norming_L2-eng_oral_translation,001,811,
PUNCH,Leg,leg,0,56,56,34,0,0,0,0,1,5.692,,,2018_Sep_18_1329,59.6670517231,verb_norming_L2-eng_oral_translation,001,811,
PUNCH,Arm,arm,0,56,56,34,0,1,1,1,7,6.434,,,2018_Sep_18_1329,59.6670517231,verb_norming_L2-eng_oral_translation,001,811,
PUNCH,,,0,56,56,34,,,,,,,return,2.13041825681,2018_Sep_18_1329,59.6670517231,verb_norming_L2-eng_oral_translation,001,811,
TROT,Leg,leg,0,57,57,121,0,0,0,0,5,6.683,,,2018_Sep_18_1329,59.6670517231,verb_norming_L2-eng_oral_translation,001,811,
TROT,Arm,arm,0,57,57,121,0,1,1,1,1,2.309,,,2018_Sep_18_1329,59.6670517231,verb_norming_L2-eng_oral_translation,001,811,
TROT,,,0,57,57,121,,,,,,,return,2.73414009009,2018_Sep_18_1329,59.6670517231,verb_norming_L2-eng_oral_translation,001,811,
CLUTCH,Leg,leg,0,58,58,11,0,0,0,0,4,12.217,,,2018_Sep_18_1329,59.6670517231,verb_norming_L2-eng_oral_translation,001,811,
CLUTCH,Arm,arm,0,58,58,11,0,1,1,1,1,2.543,,,2018_Sep_18_1329,59.6670517231,verb_norming_L2-eng_oral_translation,001,811,
CLUTCH,,,0,58,58,11,,,,,,,return,1.77822222977,2018_Sep_18_1329,59.6670517231,verb_norming_L2-eng_oral_translation,001,811,
KNOCK,Leg,leg,0,59,59,24,0,0,0,0,1,2.742,,,2018_Sep_18_1329,59.6670517231,verb_norming_L2-eng_oral_translation,001,811,
KNOCK,Arm,arm,0,59,59,24,0,1,1,1,7,2.117,,,2018_Sep_18_1329,59.6670517231,verb_norming_L2-eng_oral_translation,001,811,
KNOCK,,,0,59,59,24,,,,,,,return,2.3483666455,2018_Sep_18_1329,59.6670517231,verb_norming_L2-eng_oral_translation,001,811,
THROW,Leg,leg,0,60,60,52,0,0,0,0,1,2.741,,,2018_Sep_18_1329,59.6670517231,verb_norming_L2-eng_oral_translation,001,811,
THROW,Arm,arm,0,60,60,52,0,1,1,1,7,2.107,,,2018_Sep_18_1329,59.6670517231,verb_norming_L2-eng_oral_translation,001,811,
THROW,,,0,60,60,52,,,,,,,return,2.29799676565,2018_Sep_18_1329,59.6670517231,verb_norming_L2-eng_oral_translation,001,811,
TUG,Leg,leg,0,61,61,54,0,0,0,0,1,6.447,,,2018_Sep_18_1329,59.6670517231,verb_norming_L2-eng_oral_translation,001,811,
TUG,Arm,arm,0,61,61,54,0,1,1,1,5,2.191,,,2018_Sep_18_1329,59.6670517231,verb_norming_L2-eng_oral_translation,001,811,
TUG,,,0,61,61,54,,,,,,,return,4.89755219073,2018_Sep_18_1329,59.6670517231,verb_norming_L2-eng_oral_translation,001,811,
STUMBLE,Leg,leg,0,62,62,110,0,0,0,0,7,4.653,,,2018_Sep_18_1329,59.6670517231,verb_norming_L2-eng_oral_translation,001,811,
STUMBLE,Arm,arm,0,62,62,110,0,1,1,1,1,2.156,,,2018_Sep_18_1329,59.6670517231,verb_norming_L2-eng_oral_translation,001,811,
STUMBLE,,,0,62,62,110,,,,,,,return,2.26444542519,2018_Sep_18_1329,59.6670517231,verb_norming_L2-eng_oral_translation,001,811,
WOBBLE,Leg,leg,0,63,63,127,0,0,0,0,7,10.372,,,2018_Sep_18_1329,59.6670517231,verb_norming_L2-eng_oral_translation,001,811,
WOBBLE,Arm,arm,0,63,63,127,0,1,1,1,7,1.386,,,2018_Sep_18_1329,59.6670517231,verb_norming_L2-eng_oral_translation,001,811,
WOBBLE,,,0,63,63,127,,,,,,,return,1.64397143057,2018_Sep_18_1329,59.6670517231,verb_norming_L2-eng_oral_translation,001,811,
TRIP,Leg,leg,0,64,64,120,0,0,0,0,7,8.343,,,2018_Sep_18_1329,59.6670517231,verb_norming_L2-eng_oral_translation,001,811,
TRIP,Arm,arm,0,64,64,120,0,1,1,1,1,2.644,,,2018_Sep_18_1329,59.6670517231,verb_norming_L2-eng_oral_translation,001,811,
TRIP,,,0,64,64,120,,,,,,,return,5.03146003666,2018_Sep_18_1329,59.6670517231,verb_norming_L2-eng_oral_translation,001,811,
PUSH,Leg,leg,0,65,65,35,0,0,0,0,1,4.252,,,2018_Sep_18_1329,59.6670517231,verb_norming_L2-eng_oral_translation,001,811,
PUSH,Arm,arm,0,65,65,35,0,1,1,1,7,4.322,,,2018_Sep_18_1329,59.6670517231,verb_norming_L2-eng_oral_translation,001,811,
PUSH,,,0,65,65,35,,,,,,,return,2.04648241752,2018_Sep_18_1329,59.6670517231,verb_norming_L2-eng_oral_translation,001,811,
STRAY,Leg,leg,0,66,66,106,0,0,0,0,7,7.521,,,2018_Sep_18_1329,59.6670517231,verb_norming_L2-eng_oral_translation,001,811,
STRAY,Arm,arm,0,66,66,106,0,1,1,1,1,2.024,,,2018_Sep_18_1329,59.6670517231,verb_norming_L2-eng_oral_translation,001,811,
STRAY,,,0,66,66,106,,,,,,,return,2.19743085323,2018_Sep_18_1329,59.6670517231,verb_norming_L2-eng_oral_translation,001,811,
SHAKE,Leg,leg,0,67,67,43,0,0,0,0,7,4.201,,,2018_Sep_18_1329,59.6670517231,verb_norming_L2-eng_oral_translation,001,811,
SHAKE,Arm,arm,0,67,67,43,0,1,1,1,7,1.738,,,2018_Sep_18_1329,59.6670517231,verb_norming_L2-eng_oral_translation,001,811,
SHAKE,,,0,67,67,43,,,,,,,return,2.06334046766,2018_Sep_18_1329,59.6670517231,verb_norming_L2-eng_oral_translation,001,811,
STRADDLE,Leg,leg,0,68,68,105,0,0,0,0,4,5.675,,,2018_Sep_18_1329,59.6670517231,verb_norming_L2-eng_oral_translation,001,811,
STRADDLE,Arm,arm,0,68,68,105,0,1,1,1,1,1.468,,,2018_Sep_18_1329,59.6670517231,verb_norming_L2-eng_oral_translation,001,811,
STRADDLE,,,0,68,68,105,,,,,,,return,2.0800187439,2018_Sep_18_1329,59.6670517231,verb_norming_L2-eng_oral_translation,001,811,
SNATCH,Leg,leg,0,69,69,47,0,0,0,0,1,13.089,,,2018_Sep_18_1329,59.6670517231,verb_norming_L2-eng_oral_translation,001,811,
SNATCH,Arm,arm,0,69,69,47,0,1,1,1,7,5.696,,,2018_Sep_18_1329,59.6670517231,verb_norming_L2-eng_oral_translation,001,811,
SNATCH,,,0,69,69,47,,,,,,,return,5.13227763253,2018_Sep_18_1329,59.6670517231,verb_norming_L2-eng_oral_translation,001,811,
STIR,Leg,leg,0,70,70,50,0,0,0,0,1,3.933,,,2018_Sep_18_1329,59.6670517231,verb_norming_L2-eng_oral_translation,001,811,
STIR,Arm,arm,0,70,70,50,0,1,1,1,7,1.672,,,2018_Sep_18_1329,59.6670517231,verb_norming_L2-eng_oral_translation,001,811,
STIR,,,0,70,70,50,,,,,,,return,1.76125078379,2018_Sep_18_1329,59.6670517231,verb_norming_L2-eng_oral_translation,001,811,
LIFT,Leg,leg,0,71,71,25,0,0,0,0,3,4.0,,,2018_Sep_18_1329,59.6670517231,verb_norming_L2-eng_oral_translation,001,811,
LIFT,Arm,arm,0,71,71,25,0,1,1,1,7,1.47,,,2018_Sep_18_1329,59.6670517231,verb_norming_L2-eng_oral_translation,001,811,
LIFT,,,0,71,71,25,,,,,,,return,2.23093833676,2018_Sep_18_1329,59.6670517231,verb_norming_L2-eng_oral_translation,001,811,
SEIZE,Leg,leg,0,72,72,42,0,0,0,0,1,16.641,,,2018_Sep_18_1329,59.6670517231,verb_norming_L2-eng_oral_translation,001,811,
SEIZE,Arm,arm,0,72,72,42,0,1,1,1,7,3.045,,,2018_Sep_18_1329,59.6670517231,verb_norming_L2-eng_oral_translation,001,811,
SEIZE,,,0,72,72,42,,,,,,,return,3.50540289701,2018_Sep_18_1329,59.6670517231,verb_norming_L2-eng_oral_translation,001,811,
SLITHER,Leg,leg,0,73,73,96,0,0,0,0,7,16.073,,,2018_Sep_18_1329,59.6670517231,verb_norming_L2-eng_oral_translation,001,811,
SLITHER,Arm,arm,0,73,73,96,0,1,1,1,1,9.116,,,2018_Sep_18_1329,59.6670517231,verb_norming_L2-eng_oral_translation,001,811,
SLITHER,,,0,73,73,96,,,,,,,return,7.34597071385,2018_Sep_18_1329,59.6670517231,verb_norming_L2-eng_oral_translation,001,811,
SPRINT,Leg,leg,0,74,74,98,0,0,0,0,7,13.458,,,2018_Sep_18_1329,59.6670517231,verb_norming_L2-eng_oral_translation,001,811,
SPRINT,Arm,arm,0,74,74,98,0,1,1,1,1,3.011,,,2018_Sep_18_1329,59.6670517231,verb_norming_L2-eng_oral_translation,001,811,
SPRINT,,,0,74,74,98,,,,,,,return,4.42809538052,2018_Sep_18_1329,59.6670517231,verb_norming_L2-eng_oral_translation,001,811,
WASH,Leg,leg,0,75,75,56,0,0,0,0,3,4.133,,,2018_Sep_18_1329,59.6670517231,verb_norming_L2-eng_oral_translation,001,811,
WASH,Arm,arm,0,75,75,56,0,1,1,1,7,3.164,,,2018_Sep_18_1329,59.6670517231,verb_norming_L2-eng_oral_translation,001,811,
WASH,,,0,75,75,56,,,,,,,return,2.54960910043,2018_Sep_18_1329,59.6670517231,verb_norming_L2-eng_oral_translation,001,811,
STAMP,Leg,leg,0,76,76,101,0,0,0,0,1,13.743,,,2018_Sep_18_1329,59.6670517231,verb_norming_L2-eng_oral_translation,001,811,
STAMP,Arm,arm,0,76,76,101,0,1,1,1,7,3.03,,,2018_Sep_18_1329,59.6670517231,verb_norming_L2-eng_oral_translation,001,811,
STAMP,,,0,76,76,101,,,,,,,return,3.37136110965,2018_Sep_18_1329,59.6670517231,verb_norming_L2-eng_oral_translation,001,811,
PEEL,Leg,leg,0,77,77,28,0,0,0,0,1,22.213,,,2018_Sep_18_1329,59.6670517231,verb_norming_L2-eng_oral_translation,001,811,
PEEL,Arm,arm,0,77,77,28,0,1,1,1,7,3.701,,,2018_Sep_18_1329,59.6670517231,verb_norming_L2-eng_oral_translation,001,811,
PEEL,,,0,77,77,28,,,,,,,return,1.69421448093,2018_Sep_18_1329,59.6670517231,verb_norming_L2-eng_oral_translation,001,811,
SCOOP,Leg,leg,0,78,78,38,0,0,0,0,1,10.087,,,2018_Sep_18_1329,59.6670517231,verb_norming_L2-eng_oral_translation,001,811,
SCOOP,Arm,arm,0,78,78,38,0,1,1,1,7,11.315,,,2018_Sep_18_1329,59.6670517231,verb_norming_L2-eng_oral_translation,001,811,
SCOOP,,,0,78,78,38,,,,,,,return,3.58928263104,2018_Sep_18_1329,59.6670517231,verb_norming_L2-eng_oral_translation,001,811,
LUMBER,Leg,leg,0,79,79,79,0,0,0,0,1,6.397,,,2018_Sep_18_1329,59.6670517231,verb_norming_L2-eng_oral_translation,001,811,
LUMBER,Arm,arm,0,79,79,79,0,1,1,1,1,0.732,,,2018_Sep_18_1329,59.6670517231,verb_norming_L2-eng_oral_translation,001,811,
LUMBER,,,0,79,79,79,,,,,,,return,1.71087497733,2018_Sep_18_1329,59.6670517231,verb_norming_L2-eng_oral_translation,001,811,
PACE,Leg,leg,0,80,80,82,0,0,0,0,1,18.674,,,2018_Sep_18_1329,59.6670517231,verb_norming_L2-eng_oral_translation,001,811,
PACE,Arm,arm,0,80,80,82,0,1,1,1,3,2.175,,,2018_Sep_18_1329,59.6670517231,verb_norming_L2-eng_oral_translation,001,811,
PACE,,,0,80,80,82,,,,,,,return,3.13662420974,2018_Sep_18_1329,59.6670517231,verb_norming_L2-eng_oral_translation,001,811,
CLEAN,Leg,leg,0,81,81,9,0,0,0,0,1,8.88,,,2018_Sep_18_1329,59.6670517231,verb_norming_L2-eng_oral_translation,001,811,
CLEAN,Arm,arm,0,81,81,9,0,1,1,1,7,15.741,,,2018_Sep_18_1329,59.6670517231,verb_norming_L2-eng_oral_translation,001,811,
CLEAN,,,0,81,81,9,,,,,,,return,2.95208531793,2018_Sep_18_1329,59.6670517231,verb_norming_L2-eng_oral_translation,001,811,
POLISH,Leg,leg,0,82,82,32,0,0,0,0,1,4.251,,,2018_Sep_18_1329,59.6670517231,verb_norming_L2-eng_oral_translation,001,811,
POLISH,Arm,arm,0,82,82,32,0,1,1,1,7,2.359,,,2018_Sep_18_1329,59.6670517231,verb_norming_L2-eng_oral_translation,001,811,
POLISH,,,0,82,82,32,,,,,,,return,1.40914760701,2018_Sep_18_1329,59.6670517231,verb_norming_L2-eng_oral_translation,001,811,
CYCLE,Leg,leg,0,83,83,63,0,0,0,0,7,4.754,,,2018_Sep_18_1329,59.6670517231,verb_norming_L2-eng_oral_translation,001,811,
CYCLE,Arm,arm,0,83,83,63,0,1,1,1,4,1.888,,,2018_Sep_18_1329,59.6670517231,verb_norming_L2-eng_oral_translation,001,811,
CYCLE,,,0,83,83,63,,,,,,,return,1.92907188862,2018_Sep_18_1329,59.6670517231,verb_norming_L2-eng_oral_translation,001,811,
CREEP,Leg,leg,0,84,84,61,0,0,0,0,7,12.083,,,2018_Sep_18_1329,59.6670517231,verb_norming_L2-eng_oral_translation,001,811,
CREEP,Arm,arm,0,84,84,61,0,1,1,1,5,2.642,,,2018_Sep_18_1329,59.6670517231,verb_norming_L2-eng_oral_translation,001,811,
CREEP,,,0,84,84,61,,,,,,,return,2.04651639676,2018_Sep_18_1329,59.6670517231,verb_norming_L2-eng_oral_translation,001,811,
SQUEEZE,Leg,leg,0,85,85,48,0,0,0,0,1,6.14,,,2018_Sep_18_1329,59.6670517231,verb_norming_L2-eng_oral_translation,001,811,
SQUEEZE,Arm,arm,0,85,85,48,0,1,1,1,7,5.324,,,2018_Sep_18_1329,59.6670517231,verb_norming_L2-eng_oral_translation,001,811,
SQUEEZE,,,0,85,85,48,,,,,,,return,4.84726725899,2018_Sep_18_1329,59.6670517231,verb_norming_L2-eng_oral_translation,001,811,
KNEEL,Leg,leg,0,86,86,76,0,0,0,0,7,8.226,,,2018_Sep_18_1329,59.6670517231,verb_norming_L2-eng_oral_translation,001,811,
KNEEL,Arm,arm,0,86,86,76,0,1,1,1,1,1.504,,,2018_Sep_18_1329,59.6670517231,verb_norming_L2-eng_oral_translation,001,811,
KNEEL,,,0,86,86,76,,,,,,,return,1.64384855215,2018_Sep_18_1329,59.6670517231,verb_norming_L2-eng_oral_translation,001,811,
STRIDE,Leg,leg,0,87,87,107,0,0,0,0,7,13.407,,,2018_Sep_18_1329,59.6670517231,verb_norming_L2-eng_oral_translation,001,811,
STRIDE,Arm,arm,0,87,87,107,0,1,1,1,1,3.951,,,2018_Sep_18_1329,59.6670517231,verb_norming_L2-eng_oral_translation,001,811,
STRIDE,,,0,87,87,107,,,,,,,return,7.07763031928,2018_Sep_18_1329,59.6670517231,verb_norming_L2-eng_oral_translation,001,811,
RUSH,Leg,leg,0,88,88,89,0,0,0,0,7,5.274,,,2018_Sep_18_1329,59.6670517231,verb_norming_L2-eng_oral_translation,001,811,
RUSH,Arm,arm,0,88,88,89,0,1,1,1,1,2.057,,,2018_Sep_18_1329,59.6670517231,verb_norming_L2-eng_oral_translation,001,811,
RUSH,,,0,88,88,89,,,,,,,return,2.44898708275,2018_Sep_18_1329,59.6670517231,verb_norming_L2-eng_oral_translation,001,811,
SCRATCH,Leg,leg,0,89,89,40,0,0,0,0,3,5.676,,,2018_Sep_18_1329,59.6670517231,verb_norming_L2-eng_oral_translation,001,811,
SCRATCH,Arm,arm,0,89,89,40,0,1,1,1,7,7.657,,,2018_Sep_18_1329,59.6670517231,verb_norming_L2-eng_oral_translation,001,811,
SCRATCH,,,0,89,89,40,,,,,,,return,5.36713108915,2018_Sep_18_1329,59.6670517231,verb_norming_L2-eng_oral_translation,001,811,
RAMBLE,Leg,leg,0,90,90,86,0,0,0,0,7,5.19,,,2018_Sep_18_1329,59.6670517231,verb_norming_L2-eng_oral_translation,001,811,
RAMBLE,Arm,arm,0,90,90,86,0,1,1,1,1,1.201,,,2018_Sep_18_1329,59.6670517231,verb_norming_L2-eng_oral_translation,001,811,
RAMBLE,,,0,90,90,86,,,,,,,return,3.95918697947,2018_Sep_18_1329,59.6670517231,verb_norming_L2-eng_oral_translation,001,811,
WRAP,Leg,leg,0,91,91,59,0,0,0,0,2,5.559,,,2018_Sep_18_1329,59.6670517231,verb_norming_L2-eng_oral_translation,001,811,
WRAP,Arm,arm,0,91,91,59,0,1,1,1,7,0.766,,,2018_Sep_18_1329,59.6670517231,verb_norming_L2-eng_oral_translation,001,811,
WRAP,,,0,91,91,59,,,,,,,return,2.16397868474,2018_Sep_18_1329,59.6670517231,verb_norming_L2-eng_oral_translation,001,811,
HACK,Leg,leg,0,92,92,22,0,0,0,0,1,6.013,,,2018_Sep_18_1329,59.6670517231,verb_norming_L2-eng_oral_translation,001,811,
HACK,Arm,arm,0,92,92,22,0,1,1,1,7,1.351,,,2018_Sep_18_1329,59.6670517231,verb_norming_L2-eng_oral_translation,001,811,
HACK,,,0,92,92,22,,,,,,,return,2.00570337623,2018_Sep_18_1329,59.6670517231,verb_norming_L2-eng_oral_translation,001,811,
DASH,Leg,leg,0,93,93,65,0,0,0,0,1,3.95,,,2018_Sep_18_1329,59.6670517231,verb_norming_L2-eng_oral_translation,001,811,
DASH,Arm,arm,0,93,93,65,0,1,1,1,7,6.703,,,2018_Sep_18_1329,59.6670517231,verb_norming_L2-eng_oral_translation,001,811,
DASH,,,0,93,93,65,,,,,,,return,1.37566501525,2018_Sep_18_1329,59.6670517231,verb_norming_L2-eng_oral_translation,001,811,
JOG,Leg,leg,0,94,94,73,0,0,0,0,7,10.153,,,2018_Sep_18_1329,59.6670517231,verb_norming_L2-eng_oral_translation,001,811,
JOG,Arm,arm,0,94,94,73,0,1,1,1,1,1.905,,,2018_Sep_18_1329,59.6670517231,verb_norming_L2-eng_oral_translation,001,811,
JOG,,,0,94,94,73,,,,,,,return,2.43222780948,2018_Sep_18_1329,59.6670517231,verb_norming_L2-eng_oral_translation,001,811,
STAGGER,Leg,leg,0,95,95,100,0,0,0,0,1,27.895,,,2018_Sep_18_1329,59.6670517231,verb_norming_L2-eng_oral_translation,001,811,
STAGGER,Arm,arm,0,95,95,100,0,1,1,1,7,6.381,,,2018_Sep_18_1329,59.6670517231,verb_norming_L2-eng_oral_translation,001,811,
STAGGER,,,0,95,95,100,,,,,,,return,4.66286625968,2018_Sep_18_1329,59.6670517231,verb_norming_L2-eng_oral_translation,001,811,
SHAMBLE,Leg,leg,0,96,96,91,0,0,0,0,1,3.579,,,2018_Sep_18_1329,59.6670517231,verb_norming_L2-eng_oral_translation,001,811,
SHAMBLE,Arm,arm,0,96,96,91,0,1,1,1,1,0.865,,,2018_Sep_18_1329,59.6670517231,verb_norming_L2-eng_oral_translation,001,811,
SHAMBLE,,,0,96,96,91,,,,,,,return,1.96268921203,2018_Sep_18_1329,59.6670517231,verb_norming_L2-eng_oral_translation,001,811,
WANDER,Leg,leg,0,97,97,126,0,0,0,0,7,3.227,,,2018_Sep_18_1329,59.6670517231,verb_norming_L2-eng_oral_translation,001,811,
WANDER,Arm,arm,0,97,97,126,0,1,1,1,1,4.438,,,2018_Sep_18_1329,59.6670517231,verb_norming_L2-eng_oral_translation,001,811,
WANDER,,,0,97,97,126,,,,,,,return,3.25399443768,2018_Sep_18_1329,59.6670517231,verb_norming_L2-eng_oral_translation,001,811,
RUN,Leg,leg,0,98,98,88,0,0,0,0,7,3.212,,,2018_Sep_18_1329,59.6670517231,verb_norming_L2-eng_oral_translation,001,811,
RUN,Arm,arm,0,98,98,88,0,1,1,1,1,1.555,,,2018_Sep_18_1329,59.6670517231,verb_norming_L2-eng_oral_translation,001,811,
RUN,,,0,98,98,88,,,,,,,return,2.14714038998,2018_Sep_18_1329,59.6670517231,verb_norming_L2-eng_oral_translation,001,811,
CARVE,Leg,leg,0,99,99,4,0,0,0,0,1,5.324,,,2018_Sep_18_1329,59.6670517231,verb_norming_L2-eng_oral_translation,001,811,
CARVE,Arm,arm,0,99,99,4,0,1,1,1,7,2.744,,,2018_Sep_18_1329,59.6670517231,verb_norming_L2-eng_oral_translation,001,811,
CARVE,,,0,99,99,4,,,,,,,return,1.35887571381,2018_Sep_18_1329,59.6670517231,verb_norming_L2-eng_oral_translation,001,811,
PLUCK,Leg,leg,0,100,100,30,0,0,0,0,1,3.328,,,2018_Sep_18_1329,59.6670517231,verb_norming_L2-eng_oral_translation,001,811,
PLUCK,Arm,arm,0,100,100,30,0,1,1,1,7,1.94,,,2018_Sep_18_1329,59.6670517231,verb_norming_L2-eng_oral_translation,001,811,
PLUCK,,,0,100,100,30,,,,,,,return,1.74465389969,2018_Sep_18_1329,59.6670517231,verb_norming_L2-eng_oral_translation,001,811,
ROW,Leg,leg,0,101,101,36,0,0,0,0,2,7.607,,,2018_Sep_18_1329,59.6670517231,verb_norming_L2-eng_oral_translation,001,811,
ROW,Arm,arm,0,101,101,36,0,1,1,1,7,2.023,,,2018_Sep_18_1329,59.6670517231,verb_norming_L2-eng_oral_translation,001,811,
ROW,,,0,101,101,36,,,,,,,return,1.15764353168,2018_Sep_18_1329,59.6670517231,verb_norming_L2-eng_oral_translation,001,811,
GRIP,Leg,leg,0,102,102,21,0,0,0,0,1,3.345,,,2018_Sep_18_1329,59.6670517231,verb_norming_L2-eng_oral_translation,001,811,
GRIP,Arm,arm,0,102,102,21,0,1,1,1,7,2.928,,,2018_Sep_18_1329,59.6670517231,verb_norming_L2-eng_oral_translation,001,811,
GRIP,,,0,102,102,21,,,,,,,return,1.71108201364,2018_Sep_18_1329,59.6670517231,verb_norming_L2-eng_oral_translation,001,811,
DUNK,Leg,leg,0,103,103,14,0,0,0,0,2,5.61,,,2018_Sep_18_1329,59.6670517231,verb_norming_L2-eng_oral_translation,001,811,
DUNK,Arm,arm,0,103,103,14,0,1,1,1,7,2.879,,,2018_Sep_18_1329,59.6670517231,verb_norming_L2-eng_oral_translation,001,811,
DUNK,,,0,103,103,14,,,,,,,return,1.07378987474,2018_Sep_18_1329,59.6670517231,verb_norming_L2-eng_oral_translation,001,811,
SNEAK,Leg,leg,0,104,104,97,0,0,0,0,5,5.274,,,2018_Sep_18_1329,59.6670517231,verb_norming_L2-eng_oral_translation,001,811,
SNEAK,Arm,arm,0,104,104,97,0,1,1,1,1,2.006,,,2018_Sep_18_1329,59.6670517231,verb_norming_L2-eng_oral_translation,001,811,
SNEAK,,,0,104,104,97,,,,,,,return,1.59369677162,2018_Sep_18_1329,59.6670517231,verb_norming_L2-eng_oral_translation,001,811,
STAB,Leg,leg,0,105,105,49,0,0,0,0,1,5.375,,,2018_Sep_18_1329,59.6670517231,verb_norming_L2-eng_oral_translation,001,811,
STAB,Arm,arm,0,105,105,49,0,1,1,1,7,2.074,,,2018_Sep_18_1329,59.6670517231,verb_norming_L2-eng_oral_translation,001,811,
STAB,,,0,105,105,49,,,,,,,return,1.94596549843,2018_Sep_18_1329,59.6670517231,verb_norming_L2-eng_oral_translation,001,811,
TODDLE,Leg,leg,0,106,106,113,0,0,0,0,7,26.489,,,2018_Sep_18_1329,59.6670517231,verb_norming_L2-eng_oral_translation,001,811,
TODDLE,Arm,arm,0,106,106,113,0,1,1,1,1,6.282,,,2018_Sep_18_1329,59.6670517231,verb_norming_L2-eng_oral_translation,001,811,
TODDLE,,,0,106,106,113,,,,,,,return,9.27452896276,2018_Sep_18_1329,59.6670517231,verb_norming_L2-eng_oral_translation,001,811,
WHIP,Leg,leg,0,107,107,57,0,0,0,0,1,6.649,,,2018_Sep_18_1329,59.6670517231,verb_norming_L2-eng_oral_translation,001,811,
WHIP,Arm,arm,0,107,107,57,0,1,1,1,7,2.578,,,2018_Sep_18_1329,59.6670517231,verb_norming_L2-eng_oral_translation,001,811,
WHIP,,,0,107,107,57,,,,,,,return,2.16390993605,2018_Sep_18_1329,59.6670517231,verb_norming_L2-eng_oral_translation,001,811,
WADE,Leg,leg,0,108,108,124,0,0,0,0,7,5.677,,,2018_Sep_18_1329,59.6670517231,verb_norming_L2-eng_oral_translation,001,811,
WADE,Arm,arm,0,108,108,124,0,1,1,1,2,3.953,,,2018_Sep_18_1329,59.6670517231,verb_norming_L2-eng_oral_translation,001,811,
WADE,,,0,108,108,124,,,,,,,return,1.67754331662,2018_Sep_18_1329,59.6670517231,verb_norming_L2-eng_oral_translation,001,811,
HUG,Leg,leg,0,109,109,23,0,0,0,0,1,4.787,,,2018_Sep_18_1329,59.6670517231,verb_norming_L2-eng_oral_translation,001,811,
HUG,Arm,arm,0,109,109,23,0,1,1,1,7,1.705,,,2018_Sep_18_1329,59.6670517231,verb_norming_L2-eng_oral_translation,001,811,
HUG,,,0,109,109,23,,,,,,,return,1.4090780681,2018_Sep_18_1329,59.6670517231,verb_norming_L2-eng_oral_translation,001,811,
STROLL,Leg,leg,0,110,110,108,0,0,0,0,7,7.387,,,2018_Sep_18_1329,59.6670517231,verb_norming_L2-eng_oral_translation,001,811,
STROLL,Arm,arm,0,110,110,108,0,1,1,1,1,5.696,,,2018_Sep_18_1329,59.6670517231,verb_norming_L2-eng_oral_translation,001,811,
STROLL,,,0,110,110,108,,,,,,,return,4.64588296048,2018_Sep_18_1329,59.6670517231,verb_norming_L2-eng_oral_translation,001,811,
CHOP,Leg,leg,0,111,111,6,0,0,0,0,1,11.916,,,2018_Sep_18_1329,59.6670517231,verb_norming_L2-eng_oral_translation,001,811,
CHOP,Arm,arm,0,111,111,6,0,1,1,1,7,5.881,,,2018_Sep_18_1329,59.6670517231,verb_norming_L2-eng_oral_translation,001,811,
CHOP,,,0,111,111,6,,,,,,,return,1.40911481309,2018_Sep_18_1329,59.6670517231,verb_norming_L2-eng_oral_translation,001,811,
CLICK,Leg,leg,0,112,112,10,0,0,0,0,1,4.1,,,2018_Sep_18_1329,59.6670517231,verb_norming_L2-eng_oral_translation,001,811,
CLICK,Arm,arm,0,112,112,10,0,1,1,1,7,3.449,,,2018_Sep_18_1329,59.6670517231,verb_norming_L2-eng_oral_translation,001,811,
CLICK,,,0,112,112,10,,,,,,,return,1.34197894314,2018_Sep_18_1329,59.6670517231,verb_norming_L2-eng_oral_translation,001,811,
DIG,Leg,leg,0,113,113,13,0,0,0,0,1,3.16,,,2018_Sep_18_1329,59.6670517231,verb_norming_L2-eng_oral_translation,001,811,
DIG,Arm,arm,0,113,113,13,0,1,1,1,7,4.572,,,2018_Sep_18_1329,59.6670517231,verb_norming_L2-eng_oral_translation,001,811,
DIG,,,0,113,113,13,,,,,,,return,2.01309781241,2018_Sep_18_1329,59.6670517231,verb_norming_L2-eng_oral_translation,001,811,
PULL,Leg,leg,0,114,114,33,0,0,0,0,2,3.262,,,2018_Sep_18_1329,59.6670517231,verb_norming_L2-eng_oral_translation,001,811,
PULL,Arm,arm,0,114,114,33,0,1,1,1,7,2.46,,,2018_Sep_18_1329,59.6670517231,verb_norming_L2-eng_oral_translation,001,811,
PULL,,,0,114,114,33,,,,,,,return,0.956386852877,2018_Sep_18_1329,59.6670517231,verb_norming_L2-eng_oral_translation,001,811,
LEAP,Leg,leg,0,115,115,77,0,0,0,0,7,6.784,,,2018_Sep_18_1329,59.6670517231,verb_norming_L2-eng_oral_translation,001,811,
LEAP,Arm,arm,0,115,115,77,0,1,1,1,1,2.158,,,2018_Sep_18_1329,59.6670517231,verb_norming_L2-eng_oral_translation,001,811,
LEAP,,,0,115,115,77,,,,,,,return,2.19747826613,2018_Sep_18_1329,59.6670517231,verb_norming_L2-eng_oral_translation,001,811,
TRAMP,Leg,leg,0,116,116,116,0,0,0,0,7,6.163,,,2018_Sep_18_1329,59.6670517231,verb_norming_L2-eng_oral_translation,001,811,
TRAMP,Arm,arm,0,116,116,116,0,1,1,1,1,1.286,,,2018_Sep_18_1329,59.6670517231,verb_norming_L2-eng_oral_translation,001,811,
TRAMP,,,0,116,116,116,,,,,,,return,1.61038374022,2018_Sep_18_1329,59.6670517231,verb_norming_L2-eng_oral_translation,001,811,
SLIP,Leg,leg,0,117,117,95,0,0,0,0,7,4.0,,,2018_Sep_18_1329,59.6670517231,verb_norming_L2-eng_oral_translation,001,811,
SLIP,Arm,arm,0,117,117,95,0,1,1,1,1,1.387,,,2018_Sep_18_1329,59.6670517231,verb_norming_L2-eng_oral_translation,001,811,
SLIP,,,0,117,117,95,,,,,,,return,1.91229641594,2018_Sep_18_1329,59.6670517231,verb_norming_L2-eng_oral_translation,001,811,
SWITCH,Leg,leg,0,118,118,51,0,0,0,0,1,18.925,,,2018_Sep_18_1329,59.6670517231,verb_norming_L2-eng_oral_translation,001,811,
SWITCH,Arm,arm,0,118,118,51,0,1,1,1,7,6.081,,,2018_Sep_18_1329,59.6670517231,verb_norming_L2-eng_oral_translation,001,811,
SWITCH,,,0,118,118,51,,,,,,,return,4.93095655122,2018_Sep_18_1329,59.6670517231,verb_norming_L2-eng_oral_translation,001,811,
PAT,Leg,leg,0,119,119,27,0,0,0,0,1,9.77,,,2018_Sep_18_1329,59.6670517231,verb_norming_L2-eng_oral_translation,001,811,
PAT,Arm,arm,0,119,119,27,0,1,1,1,4,6.184,,,2018_Sep_18_1329,59.6670517231,verb_norming_L2-eng_oral_translation,001,811,
PAT,,,0,119,119,27,,,,,,,return,5.43421559513,2018_Sep_18_1329,59.6670517231,verb_norming_L2-eng_oral_translation,001,811,
TOSS,Leg,leg,0,120,120,53,0,0,0,0,1,7.137,,,2018_Sep_18_1329,59.6670517231,verb_norming_L2-eng_oral_translation,001,811,
TOSS,Arm,arm,0,120,120,53,0,1,1,1,7,8.095,,,2018_Sep_18_1329,59.6670517231,verb_norming_L2-eng_oral_translation,001,811,
TOSS,,,0,120,120,53,,,,,,,return,3.20371227168,2018_Sep_18_1329,59.6670517231,verb_norming_L2-eng_oral_translation,001,811,
SCRAPE,Leg,leg,0,121,121,39,0,0,0,0,1,3.395,,,2018_Sep_18_1329,59.6670517231,verb_norming_L2-eng_oral_translation,001,811,
SCRAPE,Arm,arm,0,121,121,39,0,1,1,1,7,2.14,,,2018_Sep_18_1329,59.6670517231,verb_norming_L2-eng_oral_translation,001,811,
SCRAPE,,,0,121,121,39,,,,,,,return,1.47632930943,2018_Sep_18_1329,59.6670517231,verb_norming_L2-eng_oral_translation,001,811,
SQUAT,Leg,leg,0,122,122,99,0,0,0,0,7,6.027,,,2018_Sep_18_1329,59.6670517231,verb_norming_L2-eng_oral_translation,001,811,
SQUAT,Arm,arm,0,122,122,99,0,1,1,1,1,3.179,,,2018_Sep_18_1329,59.6670517231,verb_norming_L2-eng_oral_translation,001,811,
SQUAT,,,0,122,122,99,,,,,,,return,6.84297915769,2018_Sep_18_1329,59.6670517231,verb_norming_L2-eng_oral_translation,001,811,
CLAW,Leg,leg,0,123,123,8,0,0,0,0,1,7.521,,,2018_Sep_18_1329,59.6670517231,verb_norming_L2-eng_oral_translation,001,811,
CLAW,Arm,arm,0,123,123,8,0,1,1,1,7,1.839,,,2018_Sep_18_1329,59.6670517231,verb_norming_L2-eng_oral_translation,001,811,
CLAW,,,0,123,123,8,,,,,,,return,1.42582627836,2018_Sep_18_1329,59.6670517231,verb_norming_L2-eng_oral_translation,001,811,
SCRUB,Leg,leg,0,124,124,41,0,0,0,0,4,8.578,,,2018_Sep_18_1329,59.6670517231,verb_norming_L2-eng_oral_translation,001,811,
SCRUB,Arm,arm,0,124,124,41,0,1,1,1,7,5.612,,,2018_Sep_18_1329,59.6670517231,verb_norming_L2-eng_oral_translation,001,811,
SCRUB,,,0,124,124,41,,,,,,,return,1.54327868865,2018_Sep_18_1329,59.6670517231,verb_norming_L2-eng_oral_translation,001,811,
SLIDE,Leg,leg,0,125,125,94,0,0,0,0,7,8.83,,,2018_Sep_18_1329,59.6670517231,verb_norming_L2-eng_oral_translation,001,811,
SLIDE,Arm,arm,0,125,125,94,0,1,1,1,1,4.74,,,2018_Sep_18_1329,59.6670517231,verb_norming_L2-eng_oral_translation,001,811,
SLIDE,,,0,125,125,94,,,,,,,return,2.18030492023,2018_Sep_18_1329,59.6670517231,verb_norming_L2-eng_oral_translation,001,811,
WALK,Leg,leg,0,126,126,125,0,0,0,0,7,2.49,,,2018_Sep_18_1329,59.6670517231,verb_norming_L2-eng_oral_translation,001,811,
WALK,Arm,arm,0,126,126,125,0,1,1,1,1,1.169,,,2018_Sep_18_1329,59.6670517231,verb_norming_L2-eng_oral_translation,001,811,
WALK,,,0,126,126,125,,,,,,,return,1.24148138432,2018_Sep_18_1329,59.6670517231,verb_norming_L2-eng_oral_translation,001,811,
BRUSH,Leg,leg,0,127,127,3,0,0,0,0,1,2.993,,,2018_Sep_18_1329,59.6670517231,verb_norming_L2-eng_oral_translation,001,811,
BRUSH,Arm,arm,0,127,127,3,0,1,1,1,7,1.721,,,2018_Sep_18_1329,59.6670517231,verb_norming_L2-eng_oral_translation,001,811,
BRUSH,,,0,127,127,3,,,,,,,return,1.82832106591,2018_Sep_18_1329,59.6670517231,verb_norming_L2-eng_oral_translation,001,811,
