item_number_,item,correct_ans,trials.thisRepN,trials.thisTrialN,trials.thisN,trials.thisIndex,key_resp_8.keys,key_resp_8.corr,key_resp_8.rt,date,frameRate,expName,session,participant,
0,platery,n,0,0,0,0,n,1,8.80496547353,2018_Sep_18_1406,59.6387915571,lextale,001,811,
0,denial,y,0,1,1,1,y,1,2.54924797221,2018_Sep_18_1406,59.6387915571,lextale,001,811,
0,generic,y,0,2,2,2,y,1,1.91214706532,2018_Sep_18_1406,59.6387915571,lextale,001,811,
1,mensible,n,0,3,3,3,n,1,11.8238302745,2018_Sep_18_1406,59.6387915571,lextale,001,811,
2,scornful,y,0,4,4,4,n,0,3.87437202608,2018_Sep_18_1406,59.6387915571,lextale,001,811,
3,stoutly,y,0,5,5,5,n,0,2.36501331315,2018_Sep_18_1406,59.6387915571,lextale,001,811,
4,ablaze,y,0,6,6,6,n,0,3.42153225045,2018_Sep_18_1406,59.6387915571,lextale,001,811,
5,kermshaw,n,0,7,7,7,n,1,7.31251854536,2018_Sep_18_1406,59.6387915571,lextale,001,811,
6,moonlit,y,0,8,8,8,y,1,3.47189225262,2018_Sep_18_1406,59.6387915571,lextale,001,811,
7,lofty,y,0,9,9,9,y,1,2.13022386394,2018_Sep_18_1406,59.6387915571,lextale,001,811,
8,hurricane,y,0,10,10,10,y,1,2.01283941213,2018_Sep_18_1406,59.6387915571,lextale,001,811,
9,flaw,y,0,11,11,11,y,1,1.89537554372,2018_Sep_18_1406,59.6387915571,lextale,001,811,
10,alberation,n,0,12,12,12,n,1,2.34824850837,2018_Sep_18_1406,59.6387915571,lextale,001,811,
11,unkempt,y,0,13,13,13,n,0,2.28116676814,2018_Sep_18_1406,59.6387915571,lextale,001,811,
12,breeding,y,0,14,14,14,y,1,1.89541821532,2018_Sep_18_1406,59.6387915571,lextale,001,811,
13,festivity,y,0,15,15,15,y,1,3.0185870404,2018_Sep_18_1406,59.6387915571,lextale,001,811,
14,screech,y,0,16,16,16,y,1,2.31471494775,2018_Sep_18_1406,59.6387915571,lextale,001,811,
15,savoury,y,0,17,17,17,n,0,2.43207806375,2018_Sep_18_1406,59.6387915571,lextale,001,811,
16,plaudate,n,0,18,18,18,n,1,2.14700565833,2018_Sep_18_1406,59.6387915571,lextale,001,811,
17,shin,y,0,19,19,19,y,1,3.33771928958,2018_Sep_18_1406,59.6387915571,lextale,001,811,
18,fluid,y,0,20,20,20,y,1,1.576818571,2018_Sep_18_1406,59.6387915571,lextale,001,811,
19,spaunch,n,0,21,21,21,y,0,2.01274379612,2018_Sep_18_1406,59.6387915571,lextale,001,811,
20,allied,y,0,22,22,22,y,1,1.67742913056,2018_Sep_18_1406,59.6387915571,lextale,001,811,
21,slain,y,0,23,23,23,y,1,1.66064219977,2018_Sep_18_1406,59.6387915571,lextale,001,811,
22,recipient,y,0,24,24,24,y,1,1.84526959565,2018_Sep_18_1406,59.6387915571,lextale,001,811,
23,exprate,n,0,25,25,25,n,1,1.87861745577,2018_Sep_18_1406,59.6387915571,lextale,001,811,
24,eloquence,y,0,26,26,26,y,1,6.00538136365,2018_Sep_18_1406,59.6387915571,lextale,001,811,
25,cleanliness,y,0,27,27,27,n,0,2.83468269117,2018_Sep_18_1406,59.6387915571,lextale,001,811,
26,dispatch,y,0,28,28,28,y,1,1.54323799258,2018_Sep_18_1406,59.6387915571,lextale,001,811,
27,rebondicate,n,0,29,29,29,n,1,4.46134960017,2018_Sep_18_1406,59.6387915571,lextale,001,811,
28,ingenious,y,0,30,30,30,y,1,2.33147619655,2018_Sep_18_1406,59.6387915571,lextale,001,811,
29,bewitch,y,0,31,31,31,y,1,9.89514914714,2018_Sep_18_1406,59.6387915571,lextale,001,811,
30,skave,n,0,32,32,32,n,1,1.57678459176,2018_Sep_18_1406,59.6387915571,lextale,001,811,
31,plaintively,y,0,33,33,33,y,1,5.4507630908,2018_Sep_18_1406,59.6387915571,lextale,001,811,
32,kilp,n,0,34,34,34,n,1,1.45940211548,2018_Sep_18_1406,59.6387915571,lextale,001,811,
33,interfate,n,0,35,35,35,n,1,1.9121778837,2018_Sep_18_1406,59.6387915571,lextale,001,811,
34,hasty,y,0,36,36,36,y,1,1.87867277081,2018_Sep_18_1406,59.6387915571,lextale,001,811,
35,lengthy,y,0,37,37,37,n,0,4.31048571746,2018_Sep_18_1406,59.6387915571,lextale,001,811,
36,fray,y,0,38,38,38,y,1,2.13023887802,2018_Sep_18_1406,59.6387915571,lextale,001,811,
37,crumper,n,0,39,39,39,y,0,1.97934457203,2018_Sep_18_1406,59.6387915571,lextale,001,811,
38,upkeep,y,0,40,40,40,n,0,3.45512863316,2018_Sep_18_1406,59.6387915571,lextale,001,811,
39,majestic,y,0,41,41,41,y,1,1.44256184518,2018_Sep_18_1406,59.6387915571,lextale,001,811,
40,magrity,n,0,42,42,42,n,1,1.49294081251,2018_Sep_18_1406,59.6387915571,lextale,001,811,
41,nourishment,y,0,43,43,43,y,1,1.99611253767,2018_Sep_18_1406,59.6387915571,lextale,001,811,
42,abergy,n,0,44,44,44,n,1,1.54329054188,2018_Sep_18_1406,59.6387915571,lextale,001,811,
43,proom,n,0,45,45,45,y,0,3.95825373564,2018_Sep_18_1406,59.6387915571,lextale,001,811,
44,turmoil,y,0,46,46,46,n,0,1.32513235112,2018_Sep_18_1406,59.6387915571,lextale,001,811,
45,carbohydrate,y,0,47,47,47,y,1,6.64168375836,2018_Sep_18_1406,59.6387915571,lextale,001,811,
46,scholar,y,0,48,48,48,y,1,1.34191098466,2018_Sep_18_1406,59.6387915571,lextale,001,811,
47,turtle,y,0,49,49,49,y,1,1.86189453238,2018_Sep_18_1406,59.6387915571,lextale,001,811,
48,fellick,n,0,50,50,50,n,1,1.3587322898,2018_Sep_18_1406,59.6387915571,lextale,001,811,
49,destription,n,0,51,51,51,n,1,1.6606967246,2018_Sep_18_1406,59.6387915571,lextale,001,811,
50,cylinder,y,0,52,52,52,y,1,1.27487468179,2018_Sep_18_1406,59.6387915571,lextale,001,811,
51,censorship,y,0,53,53,53,y,1,1.89540320124,2018_Sep_18_1406,59.6387915571,lextale,001,811,
52,celestial,y,0,54,54,54,y,1,1.878724925,2018_Sep_18_1406,59.6387915571,lextale,001,811,
53,rascal,y,0,55,55,55,y,1,1.4929617532,2018_Sep_18_1406,59.6387915571,lextale,001,811,
54,purrage,n,0,56,56,56,y,0,1.39231168289,2018_Sep_18_1406,59.6387915571,lextale,001,811,
55,pulsh,n,0,57,57,57,n,1,1.45938868183,2018_Sep_18_1406,59.6387915571,lextale,001,811,
56,muddy,y,0,58,58,58,y,1,3.92469883921,2018_Sep_18_1406,59.6387915571,lextale,001,811,
57,quirty,n,0,59,59,59,n,1,1.96250706749,2018_Sep_18_1406,59.6387915571,lextale,001,811,
58,pudour,n,0,60,60,60,n,1,1.81133855692,2018_Sep_18_1406,59.6387915571,lextale,001,811,
59,listless,y,0,61,61,61,n,0,1.92896758025,2018_Sep_18_1406,59.6387915571,lextale,001,811,
60,wrought,y,0,62,62,62,n,0,1.37555596559,2018_Sep_18_1406,59.6387915571,lextale,001,811,
