BlockType,BlockLabel,BlockInstructions,item,type,word1,word2,word3,word4,block.thisRepN,block.thisTrialN,block.thisN,block.thisIndex,training_block.thisRepN,training_block.thisTrialN,training_block.thisN,training_block.thisIndex,word_presentation_training.thisRepN,word_presentation_training.thisTrialN,word_presentation_training.thisN,word_presentation_training.thisIndex,word_presentation.thisRepN,word_presentation.thisTrialN,word_presentation.thisN,word_presentation.thisIndex,key_resp_5.keys,key_resp_5.rt,key_resp_15.keys,key_resp_15.rt,key_resp_6.keys,key_resp_6.rt,key_resp_2.keys,key_resp_2.rt,key_resp_8.keys,key_resp_8.rt,key_resp_7.keys,key_resp_7.rt,key_resp_3.keys,date,frameRate,expName,session,participant,
ARTICULATION,while repeating a syllable,repeat the syllable "bla" continuously,4,training,save,look,print,stay,0,0,0,3,0,0,0,0,0,0,0,3,,,,,space,15.5470612383,return,7.37953659243,space,5.1827474064,space,25.2573349027,,,,,,2018_Jun_01_1505,59.5774876653,sheb_replic_180522,001,952,
ARTICULATION,while repeating a syllable,repeat the syllable "bla" continuously,1,training,wait,blush,sigh,bless,0,0,0,3,0,0,0,0,0,1,1,0,,,,,,,,,,,space,13.920184026,,,,,,2018_Jun_01_1505,59.5774876653,sheb_replic_180522,001,952,
ARTICULATION,while repeating a syllable,repeat the syllable "bla" continuously,3,training,chew,lick,ruin,soothe,0,0,0,3,0,0,0,0,0,2,2,2,,,,,,,,,,,space,14.0722622797,,,,,,2018_Jun_01_1505,59.5774876653,sheb_replic_180522,001,952,
ARTICULATION,while repeating a syllable,repeat the syllable "bla" continuously,2,training,yell,stare,like,thank,0,0,0,3,0,0,0,0,0,3,3,1,,,,,,,,,,,space,8.31881426201,,,,,,2018_Jun_01_1505,59.5774876653,sheb_replic_180522,001,952,
ARTICULATION,while repeating a syllable,repeat the syllable "bla" continuously,15,leg,sprint,trot,crawl,slide,0,0,0,3,0,0,0,0,,,,,0,0,0,0,,,,,,,space,8.99025266037,s,28.644695444,space,1.94574718475,,2018_Jun_01_1505,59.5774876653,sheb_replic_180522,001,952,
ARTICULATION,while repeating a syllable,repeat the syllable "bla" continuously,5,arm,scratch,hack,clean,stab,0,0,0,3,0,0,0,0,,,,,0,1,1,1,,,,,,,space,2.85139475461,,,,,,2018_Jun_01_1505,59.5774876653,sheb_replic_180522,001,952,
ARTICULATION,while repeating a syllable,repeat the syllable "bla" continuously,11,leg,pace,skip,strut,dance,0,0,0,3,0,0,0,0,,,,,0,2,2,2,,,,,,,space,7.04354496558,,,,,,2018_Jun_01_1505,59.5774876653,sheb_replic_180522,001,952,
ARTICULATION,while repeating a syllable,repeat the syllable "bla" continuously,9,arm,toss,scrape,whip,throw,0,0,0,3,0,0,0,0,,,,,0,3,3,3,,,,,,,space,5.90466137774,,,,,,2018_Jun_01_1505,59.5774876653,sheb_replic_180522,001,952,
ARTICULATION,while repeating a syllable,repeat the syllable "bla" continuously,8,arm,clap,click,wipe,grab,0,0,0,3,0,0,0,0,,,,,0,4,4,4,,,,,,,space,4.31038500609,,,,,,2018_Jun_01_1505,59.5774876653,sheb_replic_180522,001,952,
ARTICULATION,while repeating a syllable,repeat the syllable "bla" continuously,10,leg,limp,stride,hop,mount,0,0,0,3,0,0,0,0,,,,,0,5,5,5,,,,,,,space,4.54495293659,,,,,,2018_Jun_01_1505,59.5774876653,sheb_replic_180522,001,952,
ARTICULATION,while repeating a syllable,repeat the syllable "bla" continuously,13,leg,hike,tiptoe,wade,tread,0,0,0,3,0,0,0,0,,,,,0,6,6,6,,,,,,,space,6.5910475407,,,,,,2018_Jun_01_1505,59.5774876653,sheb_replic_180522,001,952,
ARTICULATION,while repeating a syllable,repeat the syllable "bla" continuously,2,arm,dunk,chop,switch,rub,0,0,0,3,0,0,0,0,,,,,0,7,7,7,,,,,,,space,83.486408052,,,,,,2018_Jun_01_1505,59.5774876653,sheb_replic_180522,001,952,
ARTICULATION,while repeating a syllable,repeat the syllable "bla" continuously,1,arm,pull,braid,pat,peel,0,0,0,3,0,0,0,0,,,,,0,8,8,8,,,,,,,space,17.3254299675,,,,,,2018_Jun_01_1505,59.5774876653,sheb_replic_180522,001,952,
ARTICULATION,while repeating a syllable,repeat the syllable "bla" continuously,4,arm,grasp,seize,catch,grip,0,0,0,3,0,0,0,0,,,,,0,9,9,9,,,,,,,space,11.4045525252,,,,,,2018_Jun_01_1505,59.5774876653,sheb_replic_180522,001,952,
ARTICULATION,while repeating a syllable,repeat the syllable "bla" continuously,14,leg,climb,kneel,stamp,wander,0,0,0,3,0,0,0,0,,,,,0,10,10,10,,,,,,,space,10.1803558115,,,,,,2018_Jun_01_1505,59.5774876653,sheb_replic_180522,001,952,
ARTICULATION,while repeating a syllable,repeat the syllable "bla" continuously,17,leg,kick,run,flee,jog,0,0,0,3,0,0,0,0,,,,,0,11,11,11,,,,,,,space,10.4323563472,,,,,,2018_Jun_01_1505,59.5774876653,sheb_replic_180522,001,952,
ARTICULATION,while repeating a syllable,repeat the syllable "bla" continuously,3,arm,bind,fold,lift,brush,0,0,0,3,0,0,0,0,,,,,0,12,12,12,,,,,,,space,9.15699301487,,,,,,2018_Jun_01_1505,59.5774876653,sheb_replic_180522,001,952,
ARTICULATION,while repeating a syllable,repeat the syllable "bla" continuously,7,arm,scrub,knock,nip,dig,0,0,0,3,0,0,0,0,,,,,0,13,13,13,,,,,,,space,3.77473491148,,,,,,2018_Jun_01_1505,59.5774876653,sheb_replic_180522,001,952,
ARTICULATION,while repeating a syllable,repeat the syllable "bla" continuously,18,leg,stray,slip,skate,leap,0,0,0,3,0,0,0,0,,,,,0,14,14,14,,,,,,,space,10.6171571353,,,,,,2018_Jun_01_1505,59.5774876653,sheb_replic_180522,001,952,
ARTICULATION,while repeating a syllable,repeat the syllable "bla" continuously,6,arm,carve,bash,stir,wash,0,0,0,3,0,0,0,0,,,,,0,15,15,15,,,,,,,space,19.6558987604,,,,,,2018_Jun_01_1505,59.5774876653,sheb_replic_180522,001,952,
ARTICULATION,while repeating a syllable,repeat the syllable "bla" continuously,12,leg,stroll,step,jump,walk,0,0,0,3,0,0,0,0,,,,,0,16,16,16,,,,,,,space,7.51346867398,,,,,,2018_Jun_01_1505,59.5774876653,sheb_replic_180522,001,952,
ARTICULATION,while repeating a syllable,repeat the syllable "bla" continuously,16,leg,glide,stumble,creep,stomp,0,0,0,3,0,0,0,0,,,,,0,17,17,17,,,,,,,space,21.869831727,,,,,,2018_Jun_01_1505,59.5774876653,sheb_replic_180522,001,952,
ARTICULATION,while repeating a syllable,repeat the syllable "bla" continuously,,,,,,,0,0,0,3,0,0,0,0,,,,,,,,,,,,,,,,,,,,,,2018_Jun_01_1505,59.5774876653,sheb_replic_180522,001,952,
HANDS,with hand drumming,perform a simple drumming exercise with your hands,2,training,stare,like,thank,yell,0,1,1,1,0,0,0,0,0,0,0,1,,,,,space,5.6018964443,return,272.528218489,space,5.09863027554,space,7.17824237331,,,,,,2018_Jun_01_1505,59.5774876653,sheb_replic_180522,001,952,
HANDS,with hand drumming,perform a simple drumming exercise with your hands,3,training,chew,lick,soothe,ruin,0,1,1,1,0,0,0,0,0,1,1,2,,,,,,,,,,,space,16.3688046411,,,,,,2018_Jun_01_1505,59.5774876653,sheb_replic_180522,001,952,
HANDS,with hand drumming,perform a simple drumming exercise with your hands,4,training,stay,save,print,look,0,1,1,1,0,0,0,0,0,2,2,3,,,,,,,,,,,space,17.5427426967,,,,,,2018_Jun_01_1505,59.5774876653,sheb_replic_180522,001,952,
HANDS,with hand drumming,perform a simple drumming exercise with your hands,1,training,blush,sigh,bless,wait,0,1,1,1,0,0,0,0,0,3,3,0,,,,,,,,,,,space,13.0817393648,,,,,,2018_Jun_01_1505,59.5774876653,sheb_replic_180522,001,952,
HANDS,with hand drumming,perform a simple drumming exercise with your hands,1,arm,braid,peel,pat,pull,0,1,1,1,0,0,0,0,,,,,0,0,0,0,,,,,,,space,10.2986858279,s,2.88469533341,space,1.25802989948,,2018_Jun_01_1505,59.5774876653,sheb_replic_180522,001,952,
HANDS,with hand drumming,perform a simple drumming exercise with your hands,10,leg,limp,hop,stride,mount,0,1,1,1,0,0,0,0,,,,,0,1,1,1,,,,,,,space,8.60387712584,,,,,,2018_Jun_01_1505,59.5774876653,sheb_replic_180522,001,952,
HANDS,with hand drumming,perform a simple drumming exercise with your hands,9,arm,whip,toss,throw,scrape,0,1,1,1,0,0,0,0,,,,,0,2,2,2,,,,,,,space,16.9724822369,,,,,,2018_Jun_01_1505,59.5774876653,sheb_replic_180522,001,952,
HANDS,with hand drumming,perform a simple drumming exercise with your hands,16,leg,stumble,creep,glide,stomp,0,1,1,1,0,0,0,0,,,,,0,3,3,3,,,,,,,space,22.1883682274,,,,,,2018_Jun_01_1505,59.5774876653,sheb_replic_180522,001,952,
HANDS,with hand drumming,perform a simple drumming exercise with your hands,4,arm,grip,seize,catch,grasp,0,1,1,1,0,0,0,0,,,,,0,4,4,4,,,,,,,space,16.535843698,,,,,,2018_Jun_01_1505,59.5774876653,sheb_replic_180522,001,952,
HANDS,with hand drumming,perform a simple drumming exercise with your hands,15,leg,sprint,crawl,slide,trot,0,1,1,1,0,0,0,0,,,,,0,5,5,5,,,,,,,space,13.2662505378,,,,,,2018_Jun_01_1505,59.5774876653,sheb_replic_180522,001,952,
HANDS,with hand drumming,perform a simple drumming exercise with your hands,5,arm,clean,hack,scratch,stab,0,1,1,1,0,0,0,0,,,,,0,6,6,6,,,,,,,space,15.4472653912,,,,,,2018_Jun_01_1505,59.5774876653,sheb_replic_180522,001,952,
HANDS,with hand drumming,perform a simple drumming exercise with your hands,14,leg,wander,stamp,climb,kneel,0,1,1,1,0,0,0,0,,,,,0,7,7,7,,,,,,,None,,,,,,,2018_Jun_01_1505,59.5774876653,sheb_replic_180522,001,952,
HANDS,with hand drumming,perform a simple drumming exercise with your hands,2,arm,switch,dunk,chop,rub,0,1,1,1,0,0,0,0,,,,,0,8,8,8,,,,,,,space,17.190530264,,,,,,2018_Jun_01_1505,59.5774876653,sheb_replic_180522,001,952,
HANDS,with hand drumming,perform a simple drumming exercise with your hands,7,arm,nip,knock,scrub,dig,0,1,1,1,0,0,0,0,,,,,0,9,9,9,,,,,,,space,18.7502907015,,,,,,2018_Jun_01_1505,59.5774876653,sheb_replic_180522,001,952,
HANDS,with hand drumming,perform a simple drumming exercise with your hands,13,leg,hike,wade,tiptoe,tread,0,1,1,1,0,0,0,0,,,,,0,10,10,10,,,,,,,space,14.3898773858,,,,,,2018_Jun_01_1505,59.5774876653,sheb_replic_180522,001,952,
HANDS,with hand drumming,perform a simple drumming exercise with your hands,3,arm,brush,bind,fold,lift,0,1,1,1,0,0,0,0,,,,,0,11,11,11,,,,,,,space,21.4675451521,,,,,,2018_Jun_01_1505,59.5774876653,sheb_replic_180522,001,952,
HANDS,with hand drumming,perform a simple drumming exercise with your hands,12,leg,stroll,jump,step,walk,0,1,1,1,0,0,0,0,,,,,0,12,12,12,,,,,,,space,4.81344611325,,,,,,2018_Jun_01_1505,59.5774876653,sheb_replic_180522,001,952,
HANDS,with hand drumming,perform a simple drumming exercise with your hands,17,leg,jog,kick,flee,run,0,1,1,1,0,0,0,0,,,,,0,13,13,13,,,,,,,space,7.22863497339,,,,,,2018_Jun_01_1505,59.5774876653,sheb_replic_180522,001,952,
HANDS,with hand drumming,perform a simple drumming exercise with your hands,11,leg,dance,pace,skip,strut,0,1,1,1,0,0,0,0,,,,,0,14,14,14,,,,,,,space,11.6395325544,,,,,,2018_Jun_01_1505,59.5774876653,sheb_replic_180522,001,952,
HANDS,with hand drumming,perform a simple drumming exercise with your hands,6,arm,bash,wash,carve,stir,0,1,1,1,0,0,0,0,,,,,0,15,15,15,,,,,,,space,13.5182238111,,,,,,2018_Jun_01_1505,59.5774876653,sheb_replic_180522,001,952,
HANDS,with hand drumming,perform a simple drumming exercise with your hands,8,arm,clap,grab,wipe,click,0,1,1,1,0,0,0,0,,,,,0,16,16,16,,,,,,,space,13.8699660641,,,,,,2018_Jun_01_1505,59.5774876653,sheb_replic_180522,001,952,
HANDS,with hand drumming,perform a simple drumming exercise with your hands,18,leg,leap,skate,slip,stray,0,1,1,1,0,0,0,0,,,,,0,17,17,17,,,,,,,space,19.1693638784,,,,,,2018_Jun_01_1505,59.5774876653,sheb_replic_180522,001,952,
HANDS,with hand drumming,perform a simple drumming exercise with your hands,,,,,,,0,1,1,1,0,0,0,0,,,,,,,,,,,,,,,,,,,,,,2018_Jun_01_1505,59.5774876653,sheb_replic_180522,001,952,
SILENT,while you wait silently,wait silently,3,training,ruin,soothe,lick,chew,0,2,2,0,0,0,0,0,0,0,0,2,,,,,space,8.72136476979,return,18.6833019419,space,2.85137539427,space,12.7295036206,,,,,,2018_Jun_01_1505,59.5774876653,sheb_replic_180522,001,952,
SILENT,while you wait silently,wait silently,4,training,look,print,stay,save,0,2,2,0,0,0,0,0,0,1,1,3,,,,,,,,,,,space,4.54566571327,,,,,,2018_Jun_01_1505,59.5774876653,sheb_replic_180522,001,952,
SILENT,while you wait silently,wait silently,1,training,wait,blush,sigh,bless,0,2,2,0,0,0,0,0,0,2,2,0,,,,,,,,,,,space,17.6770220791,,,,,,2018_Jun_01_1505,59.5774876653,sheb_replic_180522,001,952,
SILENT,while you wait silently,wait silently,2,training,thank,stare,like,yell,0,2,2,0,0,0,0,0,0,3,3,1,,,,,,,,,,,space,24.5523596504,,,,,,2018_Jun_01_1505,59.5774876653,sheb_replic_180522,001,952,
SILENT,while you wait silently,wait silently,14,leg,stamp,kneel,wander,climb,0,2,2,0,0,0,0,0,,,,,0,0,0,0,,,,,,,space,13.4171158069,s,15.5638055637,space,7.011444728,,2018_Jun_01_1505,59.5774876653,sheb_replic_180522,001,952,
SILENT,while you wait silently,wait silently,18,leg,stray,skate,slip,leap,0,2,2,0,0,0,0,0,,,,,0,1,1,1,,,,,,,space,23.7147474838,,,,,,2018_Jun_01_1505,59.5774876653,sheb_replic_180522,001,952,
SILENT,while you wait silently,wait silently,5,arm,stab,clean,scratch,hack,0,2,2,0,0,0,0,0,,,,,0,2,2,2,,,,,,,space,18.482327366,,,,,,2018_Jun_01_1505,59.5774876653,sheb_replic_180522,001,952,
SILENT,while you wait silently,wait silently,4,arm,seize,grasp,catch,grip,0,2,2,0,0,0,0,0,,,,,0,3,3,3,,,,,,,space,22.8757702157,,,,,,2018_Jun_01_1505,59.5774876653,sheb_replic_180522,001,952,
SILENT,while you wait silently,wait silently,9,arm,toss,scrape,whip,throw,0,2,2,0,0,0,0,0,,,,,0,4,4,4,,,,,,,space,7.69825128697,,,,,,2018_Jun_01_1505,59.5774876653,sheb_replic_180522,001,952,
SILENT,while you wait silently,wait silently,10,leg,stride,limp,hop,mount,0,2,2,0,0,0,0,0,,,,,0,5,5,5,,,,,,,space,11.4046173231,,,,,,2018_Jun_01_1505,59.5774876653,sheb_replic_180522,001,952,
SILENT,while you wait silently,wait silently,6,arm,stir,bash,wash,carve,0,2,2,0,0,0,0,0,,,,,0,6,6,6,,,,,,,space,4.78004043546,,,,,,2018_Jun_01_1505,59.5774876653,sheb_replic_180522,001,952,
SILENT,while you wait silently,wait silently,13,leg,wade,tiptoe,tread,hike,0,2,2,0,0,0,0,0,,,,,0,7,7,7,,,,,,,space,9.86224721419,,,,,,2018_Jun_01_1505,59.5774876653,sheb_replic_180522,001,952,
SILENT,while you wait silently,wait silently,7,arm,dig,scrub,nip,knock,0,2,2,0,0,0,0,0,,,,,0,8,8,8,,,,,,,space,26.5989987147,,,,,,2018_Jun_01_1505,59.5774876653,sheb_replic_180522,001,952,
SILENT,while you wait silently,wait silently,16,leg,glide,creep,stomp,stumble,0,2,2,0,0,0,0,0,,,,,0,9,9,9,,,,,,,space,11.9912032927,,,,,,2018_Jun_01_1505,59.5774876653,sheb_replic_180522,001,952,
SILENT,while you wait silently,wait silently,2,arm,chop,switch,rub,dunk,0,2,2,0,0,0,0,0,,,,,0,10,10,10,,,,,,,space,18.247206678,,,,,,2018_Jun_01_1505,59.5774876653,sheb_replic_180522,001,952,
SILENT,while you wait silently,wait silently,15,leg,trot,slide,sprint,crawl,0,2,2,0,0,0,0,0,,,,,0,11,11,11,,,,,,,space,3.87464850113,,,,,,2018_Jun_01_1505,59.5774876653,sheb_replic_180522,001,952,
SILENT,while you wait silently,wait silently,12,leg,walk,step,jump,stroll,0,2,2,0,0,0,0,0,,,,,0,12,12,12,,,,,,,space,19.0359355609,,,,,,2018_Jun_01_1505,59.5774876653,sheb_replic_180522,001,952,
SILENT,while you wait silently,wait silently,3,arm,lift,bind,brush,fold,0,2,2,0,0,0,0,0,,,,,0,13,13,13,,,,,,,space,18.5154726669,,,,,,2018_Jun_01_1505,59.5774876653,sheb_replic_180522,001,952,
SILENT,while you wait silently,wait silently,17,leg,kick,run,jog,flee,0,2,2,0,0,0,0,0,,,,,0,14,14,14,,,,,,,space,8.1177258947,,,,,,2018_Jun_01_1505,59.5774876653,sheb_replic_180522,001,952,
SILENT,while you wait silently,wait silently,8,arm,clap,click,grab,wipe,0,2,2,0,0,0,0,0,,,,,0,15,15,15,,,,,,,space,11.1697988935,,,,,,2018_Jun_01_1505,59.5774876653,sheb_replic_180522,001,952,
SILENT,while you wait silently,wait silently,11,leg,skip,pace,strut,dance,0,2,2,0,0,0,0,0,,,,,0,16,16,16,,,,,,,space,3.05287467497,,,,,,2018_Jun_01_1505,59.5774876653,sheb_replic_180522,001,952,
SILENT,while you wait silently,wait silently,1,arm,pat,peel,braid,pull,0,2,2,0,0,0,0,0,,,,,0,17,17,17,,,,,,,space,3.89150029613,,,,,,2018_Jun_01_1505,59.5774876653,sheb_replic_180522,001,952,
SILENT,while you wait silently,wait silently,,,,,,,0,2,2,0,0,0,0,0,,,,,,,,,,,,,,,,,,,,,,2018_Jun_01_1505,59.5774876653,sheb_replic_180522,001,952,
FEET,with foot drumming,perform a simple drumming exercise with your feet,3,training,chew,soothe,ruin,lick,0,3,3,2,0,0,0,0,0,0,0,2,,,,,space,0.989885208975,return,4.31035655824,space,1.0569387664,space,4.67940814249,,,,,,2018_Jun_01_1505,59.5774876653,sheb_replic_180522,001,952,
FEET,with foot drumming,perform a simple drumming exercise with your feet,2,training,like,thank,stare,yell,0,3,3,2,0,0,0,0,0,1,1,1,,,,,,,,,,,space,8.95621875922,,,,,,2018_Jun_01_1505,59.5774876653,sheb_replic_180522,001,952,
FEET,with foot drumming,perform a simple drumming exercise with your feet,1,training,wait,sigh,bless,blush,0,3,3,2,0,0,0,0,0,2,2,0,,,,,,,,,,,space,8.92248118985,,,,,,2018_Jun_01_1505,59.5774876653,sheb_replic_180522,001,952,
FEET,with foot drumming,perform a simple drumming exercise with your feet,4,training,stay,save,look,print,0,3,3,2,0,0,0,0,0,3,3,3,,,,,,,,,,,space,13.1823309615,,,,,,2018_Jun_01_1505,59.5774876653,sheb_replic_180522,001,952,
FEET,with foot drumming,perform a simple drumming exercise with your feet,17,leg,run,kick,flee,jog,0,3,3,2,0,0,0,0,,,,,0,0,0,0,,,,,,,space,16.3016945831,s,3.622802453,space,0.755178200097,,2018_Jun_01_1505,59.5774876653,sheb_replic_180522,001,952,
FEET,with foot drumming,perform a simple drumming exercise with your feet,6,arm,carve,bash,stir,wash,0,3,3,2,0,0,0,0,,,,,0,1,1,1,,,,,,,space,22.5069711061,,,,,,2018_Jun_01_1505,59.5774876653,sheb_replic_180522,001,952,
FEET,with foot drumming,perform a simple drumming exercise with your feet,1,arm,peel,pull,braid,pat,0,3,3,2,0,0,0,0,,,,,0,2,2,2,,,,,,,space,27.6227862535,,,,,,2018_Jun_01_1505,59.5774876653,sheb_replic_180522,001,952,
FEET,with foot drumming,perform a simple drumming exercise with your feet,12,leg,walk,jump,stroll,step,0,3,3,2,0,0,0,0,,,,,0,3,3,3,,,,,,,space,17.4250108754,,,,,,2018_Jun_01_1505,59.5774876653,sheb_replic_180522,001,952,
FEET,with foot drumming,perform a simple drumming exercise with your feet,7,arm,scrub,knock,dig,nip,0,3,3,2,0,0,0,0,,,,,0,4,4,4,,,,,,,space,9.66030383094,,,,,,2018_Jun_01_1505,59.5774876653,sheb_replic_180522,001,952,
FEET,with foot drumming,perform a simple drumming exercise with your feet,13,leg,hike,tread,tiptoe,wade,0,3,3,2,0,0,0,0,,,,,0,5,5,5,,,,,,,space,11.5564545603,,,,,,2018_Jun_01_1505,59.5774876653,sheb_replic_180522,001,952,
FEET,with foot drumming,perform a simple drumming exercise with your feet,4,arm,catch,seize,grip,grasp,0,3,3,2,0,0,0,0,,,,,0,6,6,6,,,,,,,space,11.5723004077,,,,,,2018_Jun_01_1505,59.5774876653,sheb_replic_180522,001,952,
FEET,with foot drumming,perform a simple drumming exercise with your feet,8,arm,clap,grab,click,wipe,0,3,3,2,0,0,0,0,,,,,0,7,7,7,,,,,,,space,11.9915316283,,,,,,2018_Jun_01_1505,59.5774876653,sheb_replic_180522,001,952,
FEET,with foot drumming,perform a simple drumming exercise with your feet,10,leg,stride,hop,limp,mount,0,3,3,2,0,0,0,0,,,,,0,8,8,8,,,,,,,space,13.8861951673,,,,,,2018_Jun_01_1505,59.5774876653,sheb_replic_180522,001,952,
FEET,with foot drumming,perform a simple drumming exercise with your feet,15,leg,crawl,sprint,slide,trot,0,3,3,2,0,0,0,0,,,,,0,9,9,9,,,,,,,space,14.4066446275,,,,,,2018_Jun_01_1505,59.5774876653,sheb_replic_180522,001,952,
FEET,with foot drumming,perform a simple drumming exercise with your feet,5,arm,stab,scratch,clean,hack,0,3,3,2,0,0,0,0,,,,,0,10,10,10,,,,,,,space,12.3616843814,,,,,,2018_Jun_01_1505,59.5774876653,sheb_replic_180522,001,952,
FEET,with foot drumming,perform a simple drumming exercise with your feet,14,leg,kneel,climb,stamp,wander,0,3,3,2,0,0,0,0,,,,,0,11,11,11,,,,,,,space,15.2958525011,,,,,,2018_Jun_01_1505,59.5774876653,sheb_replic_180522,001,952,
FEET,with foot drumming,perform a simple drumming exercise with your feet,2,arm,switch,chop,dunk,rub,0,3,3,2,0,0,0,0,,,,,0,12,12,12,,,,,,,space,8.92258470841,,,,,,2018_Jun_01_1505,59.5774876653,sheb_replic_180522,001,952,
FEET,with foot drumming,perform a simple drumming exercise with your feet,11,leg,strut,skip,pace,dance,0,3,3,2,0,0,0,0,,,,,0,13,13,13,,,,,,,space,23.4288477791,,,,,,2018_Jun_01_1505,59.5774876653,sheb_replic_180522,001,952,
FEET,with foot drumming,perform a simple drumming exercise with your feet,16,leg,stomp,stumble,creep,glide,0,3,3,2,0,0,0,0,,,,,0,14,14,14,,,,,,,space,15.4969531168,,,,,,2018_Jun_01_1505,59.5774876653,sheb_replic_180522,001,952,
FEET,with foot drumming,perform a simple drumming exercise with your feet,18,leg,slip,stray,skate,leap,0,3,3,2,0,0,0,0,,,,,0,15,15,15,,,,,,,space,17.1738175473,,,,,,2018_Jun_01_1505,59.5774876653,sheb_replic_180522,001,952,
FEET,with foot drumming,perform a simple drumming exercise with your feet,9,arm,toss,scrape,throw,whip,0,3,3,2,0,0,0,0,,,,,0,16,16,16,,,,,,,space,19.2702217786,,,,,,2018_Jun_01_1505,59.5774876653,sheb_replic_180522,001,952,
FEET,with foot drumming,perform a simple drumming exercise with your feet,3,arm,lift,brush,fold,bind,0,3,3,2,0,0,0,0,,,,,0,17,17,17,,,,,,,space,17.4924318842,,,,,,2018_Jun_01_1505,59.5774876653,sheb_replic_180522,001,952,
FEET,with foot drumming,perform a simple drumming exercise with your feet,,,,,,,0,3,3,2,0,0,0,0,,,,,,,,,,,,,,,,,,,,,,2018_Jun_01_1505,59.5774876653,sheb_replic_180522,001,952,
,,,,,,,,,,,,,0,0,0,0,,,,,,,,,,,,,,,,,,,,,None,2018_Jun_01_1505,59.5774876653,sheb_replic_180522,001,952,
