item,type,word1,word2,word3,word4,word_duration,follow_blank,SOA,training_block.thisRepN,training_block.thisTrialN,training_block.thisN,training_block.thisIndex,word_presentation_training.thisRepN,word_presentation_training.thisTrialN,word_presentation_training.thisN,word_presentation_training.thisIndex,experimental_blocks.thisRepN,experimental_blocks.thisTrialN,experimental_blocks.thisN,experimental_blocks.thisIndex,word_presentation.thisRepN,word_presentation.thisTrialN,word_presentation.thisN,word_presentation.thisIndex,key_resp_6.keys,key_resp_6.rt,key_resp_2.keys,key_resp_2.rt,key_resp_8.keys,key_resp_8.rt,key_resp_7.keys,key_resp_7.rt,key_resp_3.keys,date,frameRate,expName,session,participant,
,,,,,,,,,,,,,,,,,,,,,,,,,space,4.04215860663,,,,,,,,2018_Jun_08_1031,59.5660165545,sheb_replic_pilot_control,001,900,
1,training,wait,bless,blush,sigh,,,,0,0,0,0,0,0,0,0,,,,,,,,,,,space,9.94558441322,,,,,,2018_Jun_08_1031,59.5660165545,sheb_replic_pilot_control,001,900,
2,training,like,thank,stare,yell,,,,0,0,0,0,0,1,1,1,,,,,,,,,,,space,8.03361562344,,,,,,2018_Jun_08_1031,59.5660165545,sheb_replic_pilot_control,001,900,
4,training,save,look,stay,print,,,,0,0,0,0,0,2,2,3,,,,,,,,,,,space,8.60372403264,,,,,,2018_Jun_08_1031,59.5660165545,sheb_replic_pilot_control,001,900,
3,training,lick,ruin,chew,soothe,,,,0,0,0,0,0,3,3,2,,,,,,,,,,,space,11.2365065354,,,,,,2018_Jun_08_1031,59.5660165545,sheb_replic_pilot_control,001,900,
,,,,,,,,,0,0,0,0,,,,,,,,,,,,,,,,,p,5.03120903244,,,,2018_Jun_08_1031,59.5660165545,sheb_replic_pilot_control,001,900,
4,training,save,look,stay,print,,,,1,0,1,0,0,0,0,3,,,,,,,,,,,space,4.8811094262,,,,,,2018_Jun_08_1031,59.5660165545,sheb_replic_pilot_control,001,900,
3,training,lick,ruin,chew,soothe,,,,1,0,1,0,0,1,1,2,,,,,,,,,,,space,4.07541389335,,,,,,2018_Jun_08_1031,59.5660165545,sheb_replic_pilot_control,001,900,
2,training,like,thank,stare,yell,,,,1,0,1,0,0,2,2,1,,,,,,,,,,,space,3.72327482866,,,,,,2018_Jun_08_1031,59.5660165545,sheb_replic_pilot_control,001,900,
1,training,wait,bless,blush,sigh,,,,1,0,1,0,0,3,3,0,,,,,,,,,,,space,16.7705947057,,,,,,2018_Jun_08_1031,59.5660165545,sheb_replic_pilot_control,001,900,
,,,,,,,,,1,0,1,0,,,,,,,,,,,,,,,,,p,21.5507513732,,,,2018_Jun_08_1031,59.5660165545,sheb_replic_pilot_control,001,900,
1,training,wait,bless,blush,sigh,,,,2,0,2,0,0,0,0,0,,,,,,,,,,,space,12.8802899762,,,,,,2018_Jun_08_1031,59.5660165545,sheb_replic_pilot_control,001,900,
4,training,save,look,stay,print,,,,2,0,2,0,0,1,1,3,,,,,,,,,,,space,4.83028851435,,,,,,2018_Jun_08_1031,59.5660165545,sheb_replic_pilot_control,001,900,
2,training,like,thank,stare,yell,,,,2,0,2,0,0,2,2,1,,,,,,,,,,,space,11.6886967269,,,,,,2018_Jun_08_1031,59.5660165545,sheb_replic_pilot_control,001,900,
3,training,lick,ruin,chew,soothe,,,,2,0,2,0,0,3,3,2,,,,,,,,,,,space,4.05936666079,,,,,,2018_Jun_08_1031,59.5660165545,sheb_replic_pilot_control,001,900,
,,,,,,,,,2,0,2,0,,,,,,,,,,,,,,,,,s,26.7163146403,space,3.3546835477,,2018_Jun_08_1031,59.5660165545,sheb_replic_pilot_control,001,900,
,arm,delve,clean,braid,polish,0.35,0.4,0.75,2,0,2,0,,,,,0,0,0,4,0,0,0,0,,,space,4.22692402822,,,,,,2018_Jun_08_1031,59.5660165545,sheb_replic_pilot_control,001,900,
,leg,stumble,wander,kneel,dance,0.35,0.4,0.75,2,0,2,0,,,,,0,0,0,4,0,1,1,1,,,space,5.65220315089,,,,,,2018_Jun_08_1031,59.5660165545,sheb_replic_pilot_control,001,900,
,leg,slide,roam,stroll,strut,0.35,0.4,0.75,2,0,2,0,,,,,0,0,0,4,0,2,2,2,,,space,10.2807872567,,,,,,2018_Jun_08_1031,59.5660165545,sheb_replic_pilot_control,001,900,
,leg,inch,scuff,traipse,stamp,0.35,0.4,0.75,2,0,2,0,,,,,0,0,0,4,0,3,3,3,,,space,5.43393866216,,,,,,2018_Jun_08_1031,59.5660165545,sheb_replic_pilot_control,001,900,
,arm,snatch,wrap,scratch,squeeze,0.35,0.4,0.75,2,0,2,0,,,,,0,0,0,4,0,4,4,4,,,space,6.45711637375,,,,,,2018_Jun_08_1031,59.5660165545,sheb_replic_pilot_control,001,900,
,leg,plod,hop,step,slip,0.35,0.4,0.75,2,0,2,0,,,,,0,0,0,4,0,5,5,5,,,space,7.27871769119,,,,,,2018_Jun_08_1031,59.5660165545,sheb_replic_pilot_control,001,900,
,leg,walk,skate,jog,wobble,0.35,0.4,0.75,2,0,2,0,,,,,0,0,0,4,0,6,6,6,,,space,5.50121771687,,,,,,2018_Jun_08_1031,59.5660165545,sheb_replic_pilot_control,001,900,
,arm,carve,throw,scrub,knock,0.35,0.4,0.75,2,0,2,0,,,,,0,0,0,4,0,7,7,7,,,space,9.0733368208,,,,,,2018_Jun_08_1031,59.5660165545,sheb_replic_pilot_control,001,900,
,arm,shake,brush,skim,pat,0.35,0.4,0.75,2,0,2,0,,,,,0,0,0,4,0,8,8,8,,,space,4.84713188561,,,,,,2018_Jun_08_1031,59.5660165545,sheb_replic_pilot_control,001,900,
,arm,tug,pinch,rub,chop,0.35,0.4,0.75,2,0,2,0,,,,,0,0,0,4,0,9,9,9,,,space,7.26208688698,,,,,,2018_Jun_08_1031,59.5660165545,sheb_replic_pilot_control,001,900,
,leg,crawl,sprint,slither,mount,0.35,0.4,0.75,2,0,2,0,,,,,0,0,0,4,0,10,10,10,,,space,4.49502838047,,,,,,2018_Jun_08_1031,59.5660165545,sheb_replic_pilot_control,001,900,
,leg,bounce,glide,run,trip,0.35,0.4,0.75,2,0,2,0,,,,,0,0,0,4,0,11,11,11,,,space,4.69642460626,,,,,,2018_Jun_08_1031,59.5660165545,sheb_replic_pilot_control,001,900,
,arm,grip,bash,nip,claw,0.35,0.4,0.75,2,0,2,0,,,,,0,0,0,4,0,12,12,12,,,space,5.73617583168,,,,,,2018_Jun_08_1031,59.5660165545,sheb_replic_pilot_control,001,900,
,arm,stir,bind,push,hack,0.35,0.4,0.75,2,0,2,0,,,,,0,0,0,4,0,13,13,13,,,space,3.67250251485,,,,,,2018_Jun_08_1031,59.5660165545,sheb_replic_pilot_control,001,900,
,leg,roll,stomp,tread,prance,0.35,0.4,0.75,2,0,2,0,,,,,0,0,0,4,0,14,14,14,,,space,4.81355893362,,,,,,2018_Jun_08_1031,59.5660165545,sheb_replic_pilot_control,001,900,
,arm,whip,grate,switch,slap,0.35,0.4,0.75,2,0,2,0,,,,,0,0,0,4,0,15,15,15,,,space,5.09932689732,,,,,,2018_Jun_08_1031,59.5660165545,sheb_replic_pilot_control,001,900,
,arm,dig,punch,dunk,catch,0.35,0.4,0.75,2,0,2,0,,,,,0,0,0,4,0,16,16,16,,,space,6.96028512434,,,,,,2018_Jun_08_1031,59.5660165545,sheb_replic_pilot_control,001,900,
,leg,sneak,creep,stagger,climb,0.35,0.4,0.75,2,0,2,0,,,,,0,0,0,4,0,17,17,17,,,space,5.18246748475,,,,,,2018_Jun_08_1031,59.5660165545,sheb_replic_pilot_control,001,900,
,leg,rush,tiptoe,trudge,march,0.35,0.4,0.75,2,0,2,0,,,,,0,0,0,4,0,18,18,18,,,space,3.99228318358,,,,,,2018_Jun_08_1031,59.5660165545,sheb_replic_pilot_control,001,900,
,arm,seize,lift,grab,clutch,0.35,0.4,0.75,2,0,2,0,,,,,0,0,0,4,0,19,19,19,,,space,5.09862597917,,,,,,2018_Jun_08_1031,59.5660165545,sheb_replic_pilot_control,001,900,
,arm,scoop,wipe,toss,poke,0.35,0.4,0.75,2,0,2,0,,,,,0,0,0,4,0,20,20,20,,,space,5.36699939865,,,,,,2018_Jun_08_1031,59.5660165545,sheb_replic_pilot_control,001,900,
,leg,leap,hike,stride,limp,0.35,0.4,0.75,2,0,2,0,,,,,0,0,0,4,0,21,21,21,,,space,5.95380182902,,,,,,2018_Jun_08_1031,59.5660165545,sheb_replic_pilot_control,001,900,
,arm,file,stab,clap,pull,0.35,0.4,0.75,2,0,2,0,,,,,0,0,0,4,0,22,22,22,,,space,5.9204288007,,,,,,2018_Jun_08_1031,59.5660165545,sheb_replic_pilot_control,001,900,
,leg,skip,stray,trek,jump,0.35,0.4,0.75,2,0,2,0,,,,,0,0,0,4,0,23,23,23,,,space,6.52395528032,,,,,,2018_Jun_08_1031,59.5660165545,sheb_replic_pilot_control,001,900,
,arm,cut,peel,fold,click,0.35,0.4,0.75,2,0,2,0,,,,,0,0,0,4,0,24,24,24,,,space,7.01048492947,,,,,,2018_Jun_08_1031,59.5660165545,sheb_replic_pilot_control,001,900,
,leg,ramble,wade,flit,flee,0.35,0.4,0.75,2,0,2,0,,,,,0,0,0,4,0,25,25,25,,,space,7.11012633121,,,,,,2018_Jun_08_1031,59.5660165545,sheb_replic_pilot_control,001,900,
,leg,sway,kick,trot,pace,0.35,0.4,0.75,2,0,2,0,,,,,0,0,0,4,0,26,26,26,,,space,5.2832704983,,,,,,2018_Jun_08_1031,59.5660165545,sheb_replic_pilot_control,001,900,
,arm,grasp,twine,scrape,wash,0.35,0.4,0.75,2,0,2,0,,,,,0,0,0,4,0,27,27,27,,,space,4.99805963415,,,,,,2018_Jun_08_1031,59.5660165545,sheb_replic_pilot_control,001,900,
,,,,,,0.35,0.4,0.75,2,0,2,0,,,,,0,0,0,4,,,,,,,,,,,,,,2018_Jun_08_1031,59.5660165545,sheb_replic_pilot_control,001,900,
,arm,grab,dunk,lift,file,0.2,0.4,0.6,2,0,2,0,,,,,0,1,1,1,0,0,0,0,,,space,3.97549196631,,,,,,2018_Jun_08_1031,59.5660165545,sheb_replic_pilot_control,001,900,
,arm,fold,clutch,whip,twine,0.2,0.4,0.6,2,0,2,0,,,,,0,1,1,1,0,1,1,1,,,space,5.6186171604,,,,,,2018_Jun_08_1031,59.5660165545,sheb_replic_pilot_control,001,900,
,arm,nip,throw,pinch,rub,0.2,0.4,0.6,2,0,2,0,,,,,0,1,1,1,0,2,2,2,,,space,3.4549349932,,,,,,2018_Jun_08_1031,59.5660165545,sheb_replic_pilot_control,001,900,
,leg,wander,step,stride,limp,0.2,0.4,0.6,2,0,2,0,,,,,0,1,1,1,0,3,3,3,,,space,4.42821318026,,,,,,2018_Jun_08_1031,59.5660165545,sheb_replic_pilot_control,001,900,
,leg,plod,slide,scuff,prance,0.2,0.4,0.6,2,0,2,0,,,,,0,1,1,1,0,4,4,4,,,space,8.31874074958,,,,,,2018_Jun_08_1031,59.5660165545,sheb_replic_pilot_control,001,900,
,arm,scrub,pat,tug,wrap,0.2,0.4,0.6,2,0,2,0,,,,,0,1,1,1,0,5,5,5,,,space,5.55247206008,,,,,,2018_Jun_08_1031,59.5660165545,sheb_replic_pilot_control,001,900,
,leg,stomp,kick,climb,sway,0.2,0.4,0.6,2,0,2,0,,,,,0,1,1,1,0,6,6,6,,,space,8.41948568254,,,,,,2018_Jun_08_1031,59.5660165545,sheb_replic_pilot_control,001,900,
,leg,dance,strut,inch,walk,0.2,0.4,0.6,2,0,2,0,,,,,0,1,1,1,0,7,7,7,,,space,4.39409498192,,,,,,2018_Jun_08_1031,59.5660165545,sheb_replic_pilot_control,001,900,
,leg,tread,leap,traipse,slither,0.2,0.4,0.6,2,0,2,0,,,,,0,1,1,1,0,8,8,8,,,space,10.1632463652,,,,,,2018_Jun_08_1031,59.5660165545,sheb_replic_pilot_control,001,900,
,arm,grip,grasp,bind,seize,0.2,0.4,0.6,2,0,2,0,,,,,0,1,1,1,0,9,9,9,,,space,4.9144547971,,,,,,2018_Jun_08_1031,59.5660165545,sheb_replic_pilot_control,001,900,
,arm,clean,toss,catch,peel,0.2,0.4,0.6,2,0,2,0,,,,,0,1,1,1,0,10,10,10,,,space,27.4208444523,,,,,,2018_Jun_08_1031,59.5660165545,sheb_replic_pilot_control,001,900,
,leg,skate,bounce,slip,run,0.2,0.4,0.6,2,0,2,0,,,,,0,1,1,1,0,11,11,11,,,space,8.3854852258,,,,,,2018_Jun_08_1031,59.5660165545,sheb_replic_pilot_control,001,900,
,arm,stir,cut,shake,hack,0.2,0.4,0.6,2,0,2,0,,,,,0,1,1,1,0,12,12,12,,,space,7.56410437754,,,,,,2018_Jun_08_1031,59.5660165545,sheb_replic_pilot_control,001,900,
,arm,scratch,dig,switch,squeeze,0.2,0.4,0.6,2,0,2,0,,,,,0,1,1,1,0,13,13,13,,,space,9.81065095304,,,,,,2018_Jun_08_1031,59.5660165545,sheb_replic_pilot_control,001,900,
,arm,push,wash,knock,click,0.2,0.4,0.6,2,0,2,0,,,,,0,1,1,1,0,14,14,14,,,space,6.35676575663,,,,,,2018_Jun_08_1031,59.5660165545,sheb_replic_pilot_control,001,900,
,leg,hop,pace,roll,trip,0.2,0.4,0.6,2,0,2,0,,,,,0,1,1,1,0,15,15,15,,,space,6.34010531947,,,,,,2018_Jun_08_1031,59.5660165545,sheb_replic_pilot_control,001,900,
,leg,stamp,stagger,sprint,mount,0.2,0.4,0.6,2,0,2,0,,,,,0,1,1,1,0,16,16,16,,,space,7.74855173874,,,,,,2018_Jun_08_1031,59.5660165545,sheb_replic_pilot_control,001,900,
,arm,bash,polish,skim,wipe,0.2,0.4,0.6,2,0,2,0,,,,,0,1,1,1,0,17,17,17,,,space,6.94334337166,,,,,,2018_Jun_08_1031,59.5660165545,sheb_replic_pilot_control,001,900,
,arm,carve,clap,punch,snatch,0.2,0.4,0.6,2,0,2,0,,,,,0,1,1,1,0,18,18,18,,,space,11.4381165136,,,,,,2018_Jun_08_1031,59.5660165545,sheb_replic_pilot_control,001,900,
,arm,delve,claw,scoop,scrape,0.2,0.4,0.6,2,0,2,0,,,,,0,1,1,1,0,19,19,19,,,space,4.66249882456,,,,,,2018_Jun_08_1031,59.5660165545,sheb_replic_pilot_control,001,900,
,leg,sneak,hike,skip,rush,0.2,0.4,0.6,2,0,2,0,,,,,0,1,1,1,0,20,20,20,,,space,6.22215746873,,,,,,2018_Jun_08_1031,59.5660165545,sheb_replic_pilot_control,001,900,
,arm,stab,poke,chop,grate,0.2,0.4,0.6,2,0,2,0,,,,,0,1,1,1,0,21,21,21,,,space,10.1634154706,,,,,,2018_Jun_08_1031,59.5660165545,sheb_replic_pilot_control,001,900,
,leg,kneel,wobble,flee,stroll,0.2,0.4,0.6,2,0,2,0,,,,,0,1,1,1,0,22,22,22,,,space,9.14118917441,,,,,,2018_Jun_08_1031,59.5660165545,sheb_replic_pilot_control,001,900,
,leg,trek,trudge,wade,stray,0.2,0.4,0.6,2,0,2,0,,,,,0,1,1,1,0,23,23,23,,,space,14.0884705682,,,,,,2018_Jun_08_1031,59.5660165545,sheb_replic_pilot_control,001,900,
,arm,brush,slap,pull,braid,0.2,0.4,0.6,2,0,2,0,,,,,0,1,1,1,0,24,24,24,,,space,7.96646221245,,,,,,2018_Jun_08_1031,59.5660165545,sheb_replic_pilot_control,001,900,
,leg,flit,ramble,creep,stumble,0.2,0.4,0.6,2,0,2,0,,,,,0,1,1,1,0,25,25,25,,,space,9.17390000498,,,,,,2018_Jun_08_1031,59.5660165545,sheb_replic_pilot_control,001,900,
,leg,jump,roam,march,glide,0.2,0.4,0.6,2,0,2,0,,,,,0,1,1,1,0,26,26,26,,,space,5.16565295622,,,,,,2018_Jun_08_1031,59.5660165545,sheb_replic_pilot_control,001,900,
,leg,crawl,jog,trot,tiptoe,0.2,0.4,0.6,2,0,2,0,,,,,0,1,1,1,0,27,27,27,,,space,6.70865946046,,,,,,2018_Jun_08_1031,59.5660165545,sheb_replic_pilot_control,001,900,
,,,,,,0.2,0.4,0.6,2,0,2,0,,,,,0,1,1,1,,,,,,,,,,,,,,2018_Jun_08_1031,59.5660165545,sheb_replic_pilot_control,001,900,
,arm,whip,hack,slap,wrap,0.1,0.4,0.5,2,0,2,0,,,,,0,2,2,0,0,0,0,0,,,space,9.25848510016,,,,,,2018_Jun_08_1031,59.5660165545,sheb_replic_pilot_control,001,900,
,leg,strut,trip,roll,sway,0.1,0.4,0.5,2,0,2,0,,,,,0,2,2,0,0,1,1,1,,,space,5.75279754845,,,,,,2018_Jun_08_1031,59.5660165545,sheb_replic_pilot_control,001,900,
,arm,fold,stab,dig,squeeze,0.1,0.4,0.5,2,0,2,0,,,,,0,2,2,0,0,2,2,2,,,space,3.22051975412,,,,,,2018_Jun_08_1031,59.5660165545,sheb_replic_pilot_control,001,900,
,arm,cut,polish,switch,brush,0.1,0.4,0.5,2,0,2,0,,,,,0,2,2,0,0,3,3,3,,,space,13.8523358275,,,,,,2018_Jun_08_1031,59.5660165545,sheb_replic_pilot_control,001,900,
,arm,throw,grip,carve,grasp,0.1,0.4,0.5,2,0,2,0,,,,,0,2,2,0,0,4,4,4,,,space,10.4481940887,,,,,,2018_Jun_08_1031,59.5660165545,sheb_replic_pilot_control,001,900,
,leg,tread,skate,sprint,pace,0.1,0.4,0.5,2,0,2,0,,,,,0,2,2,0,0,5,5,5,,,space,10.4653796219,,,,,,2018_Jun_08_1031,59.5660165545,sheb_replic_pilot_control,001,900,
,leg,slither,plod,run,stroll,0.1,0.4,0.5,2,0,2,0,,,,,0,2,2,0,0,6,6,6,,,space,8.33562876783,,,,,,2018_Jun_08_1031,59.5660165545,sheb_replic_pilot_control,001,900,
,arm,chop,pat,scoop,twine,0.1,0.4,0.5,2,0,2,0,,,,,0,2,2,0,0,7,7,7,,,space,4.99828089354,,,,,,2018_Jun_08_1031,59.5660165545,sheb_replic_pilot_control,001,900,
,leg,skip,leap,wander,tiptoe,0.1,0.4,0.5,2,0,2,0,,,,,0,2,2,0,0,8,8,8,,,space,4.19298125696,,,,,,2018_Jun_08_1031,59.5660165545,sheb_replic_pilot_control,001,900,
,leg,wade,sneak,trot,climb,0.1,0.4,0.5,2,0,2,0,,,,,0,2,2,0,0,9,9,9,,,space,6.42333994214,,,,,,2018_Jun_08_1031,59.5660165545,sheb_replic_pilot_control,001,900,
,arm,scrape,nip,tug,delve,0.1,0.4,0.5,2,0,2,0,,,,,0,2,2,0,0,10,10,10,,,space,10.5656192142,,,,,,2018_Jun_08_1031,59.5660165545,sheb_replic_pilot_control,001,900,
,arm,bash,clutch,grab,scrub,0.1,0.4,0.5,2,0,2,0,,,,,0,2,2,0,0,11,11,11,,,space,9.49256805504,,,,,,2018_Jun_08_1031,59.5660165545,sheb_replic_pilot_control,001,900,
,leg,traipse,hop,mount,prance,0.1,0.4,0.5,2,0,2,0,,,,,0,2,2,0,0,12,12,12,,,space,7.59755642707,,,,,,2018_Jun_08_1031,59.5660165545,sheb_replic_pilot_control,001,900,
,leg,stomp,limp,walk,dance,0.1,0.4,0.5,2,0,2,0,,,,,0,2,2,0,0,13,13,13,,,space,4.7964769183,,,,,,2018_Jun_08_1031,59.5660165545,sheb_replic_pilot_control,001,900,
,arm,lift,snatch,shake,claw,0.1,0.4,0.5,2,0,2,0,,,,,0,2,2,0,0,14,14,14,,,space,11.0354639296,,,,,,2018_Jun_08_1031,59.5660165545,sheb_replic_pilot_control,001,900,
,leg,stride,wobble,scuff,trek,0.1,0.4,0.5,2,0,2,0,,,,,0,2,2,0,0,15,15,15,,,space,7.58138236547,,,,,,2018_Jun_08_1031,59.5660165545,sheb_replic_pilot_control,001,900,
,arm,catch,knock,pull,toss,0.1,0.4,0.5,2,0,2,0,,,,,0,2,2,0,0,16,16,16,,,space,3.5554539255,,,,,,2018_Jun_08_1031,59.5660165545,sheb_replic_pilot_control,001,900,
,arm,poke,click,grate,bind,0.1,0.4,0.5,2,0,2,0,,,,,0,2,2,0,0,17,17,17,,,space,4.81334715678,,,,,,2018_Jun_08_1031,59.5660165545,sheb_replic_pilot_control,001,900,
,leg,inch,stagger,slip,stray,0.1,0.4,0.5,2,0,2,0,,,,,0,2,2,0,0,18,18,18,,,space,8.10062205498,,,,,,2018_Jun_08_1031,59.5660165545,sheb_replic_pilot_control,001,900,
,leg,march,crawl,creep,kneel,0.1,0.4,0.5,2,0,2,0,,,,,0,2,2,0,0,19,19,19,,,space,24.2006921468,,,,,,2018_Jun_08_1031,59.5660165545,sheb_replic_pilot_control,001,900,
,leg,ramble,bounce,step,roam,0.1,0.4,0.5,2,0,2,0,,,,,0,2,2,0,0,20,20,20,,,space,5.55143095561,,,,,,2018_Jun_08_1031,59.5660165545,sheb_replic_pilot_control,001,900,
,arm,scratch,stir,skim,push,0.1,0.4,0.5,2,0,2,0,,,,,0,2,2,0,0,21,21,21,,,space,6.50791832051,,,,,,2018_Jun_08_1031,59.5660165545,sheb_replic_pilot_control,001,900,
,leg,glide,trudge,jump,rush,0.1,0.4,0.5,2,0,2,0,,,,,0,2,2,0,0,22,22,22,,,space,11.9062014266,,,,,,2018_Jun_08_1031,59.5660165545,sheb_replic_pilot_control,001,900,
,leg,hike,stumble,stamp,flee,0.1,0.4,0.5,2,0,2,0,,,,,0,2,2,0,0,23,23,23,,,space,10.3485605891,,,,,,2018_Jun_08_1031,59.5660165545,sheb_replic_pilot_control,001,900,
,leg,kick,flit,slide,jog,0.1,0.4,0.5,2,0,2,0,,,,,0,2,2,0,0,24,24,24,,,space,7.21190525673,,,,,,2018_Jun_08_1031,59.5660165545,sheb_replic_pilot_control,001,900,
,arm,wash,clean,pinch,wipe,0.1,0.4,0.5,2,0,2,0,,,,,0,2,2,0,0,25,25,25,,,space,6.27266348106,,,,,,2018_Jun_08_1031,59.5660165545,sheb_replic_pilot_control,001,900,
,arm,rub,peel,braid,dunk,0.1,0.4,0.5,2,0,2,0,,,,,0,2,2,0,0,26,26,26,,,space,5.4172201444,,,,,,2018_Jun_08_1031,59.5660165545,sheb_replic_pilot_control,001,900,
,arm,seize,clap,file,punch,0.1,0.4,0.5,2,0,2,0,,,,,0,2,2,0,0,27,27,27,,,space,14.8760504882,,,,,,2018_Jun_08_1031,59.5660165545,sheb_replic_pilot_control,001,900,
,,,,,,0.1,0.4,0.5,2,0,2,0,,,,,0,2,2,0,,,,,,,,,,,,,,2018_Jun_08_1031,59.5660165545,sheb_replic_pilot_control,001,900,
,arm,grip,pat,chop,scoop,0.3,0.4,0.7,2,0,2,0,,,,,0,3,3,3,0,0,0,0,,,space,8.40239695041,,,,,,2018_Jun_08_1031,59.5660165545,sheb_replic_pilot_control,001,900,
,arm,toss,whip,bind,scrape,0.3,0.4,0.7,2,0,2,0,,,,,0,3,3,3,0,1,1,1,,,space,3.17005325239,,,,,,2018_Jun_08_1031,59.5660165545,sheb_replic_pilot_control,001,900,
,leg,flee,kick,creep,slither,0.3,0.4,0.7,2,0,2,0,,,,,0,3,3,3,0,2,2,2,,,space,5.83712898553,,,,,,2018_Jun_08_1031,59.5660165545,sheb_replic_pilot_control,001,900,
,arm,nip,stab,clutch,dunk,0.3,0.4,0.7,2,0,2,0,,,,,0,3,3,3,0,3,3,3,,,space,3.65699341674,,,,,,2018_Jun_08_1031,59.5660165545,sheb_replic_pilot_control,001,900,
,leg,inch,kneel,hike,trip,0.3,0.4,0.7,2,0,2,0,,,,,0,3,3,3,0,4,4,4,,,space,5.85278032182,,,,,,2018_Jun_08_1031,59.5660165545,sheb_replic_pilot_control,001,900,
,arm,peel,delve,clap,scrub,0.3,0.4,0.7,2,0,2,0,,,,,0,3,3,3,0,5,5,5,,,space,10.2307123051,,,,,,2018_Jun_08_1031,59.5660165545,sheb_replic_pilot_control,001,900,
,leg,run,climb,roll,skate,0.3,0.4,0.7,2,0,2,0,,,,,0,3,3,3,0,6,6,6,,,space,5.21509613325,,,,,,2018_Jun_08_1031,59.5660165545,sheb_replic_pilot_control,001,900,
,leg,tiptoe,prance,bounce,tread,0.3,0.4,0.7,2,0,2,0,,,,,0,3,3,3,0,7,7,7,,,space,14.808933427,,,,,,2018_Jun_08_1031,59.5660165545,sheb_replic_pilot_control,001,900,
,arm,switch,click,file,knock,0.3,0.4,0.7,2,0,2,0,,,,,0,3,3,3,0,8,8,8,,,space,3.84080070613,,,,,,2018_Jun_08_1031,59.5660165545,sheb_replic_pilot_control,001,900,
,leg,mount,traipse,wobble,trek,0.3,0.4,0.7,2,0,2,0,,,,,0,3,3,3,0,9,9,9,,,space,5.70325638511,,,,,,2018_Jun_08_1031,59.5660165545,sheb_replic_pilot_control,001,900,
,leg,limp,stray,trudge,pace,0.3,0.4,0.7,2,0,2,0,,,,,0,3,3,3,0,10,10,10,,,space,10.8349389127,,,,,,2018_Jun_08_1031,59.5660165545,sheb_replic_pilot_control,001,900,
,arm,claw,catch,grasp,shake,0.3,0.4,0.7,2,0,2,0,,,,,0,3,3,3,0,11,11,11,,,space,9.64354242609,,,,,,2018_Jun_08_1031,59.5660165545,sheb_replic_pilot_control,001,900,
,arm,punch,cut,seize,bash,0.3,0.4,0.7,2,0,2,0,,,,,0,3,3,3,0,12,12,12,,,space,11.0860473827,,,,,,2018_Jun_08_1031,59.5660165545,sheb_replic_pilot_control,001,900,
,leg,crawl,stamp,stride,wander,0.3,0.4,0.7,2,0,2,0,,,,,0,3,3,3,0,13,13,13,,,space,9.02321643199,,,,,,2018_Jun_08_1031,59.5660165545,sheb_replic_pilot_control,001,900,
,leg,jump,glide,stumble,stroll,0.3,0.4,0.7,2,0,2,0,,,,,0,3,3,3,0,14,14,14,,,space,8.26848760513,,,,,,2018_Jun_08_1031,59.5660165545,sheb_replic_pilot_control,001,900,
,arm,wash,lift,clean,snatch,0.3,0.4,0.7,2,0,2,0,,,,,0,3,3,3,0,15,15,15,,,space,5.33335414225,,,,,,2018_Jun_08_1031,59.5660165545,sheb_replic_pilot_control,001,900,
,leg,hop,sway,plod,sneak,0.3,0.4,0.7,2,0,2,0,,,,,0,3,3,3,0,16,16,16,,,space,4.51159754813,,,,,,2018_Jun_08_1031,59.5660165545,sheb_replic_pilot_control,001,900,
,arm,hack,grab,braid,grate,0.3,0.4,0.7,2,0,2,0,,,,,0,3,3,3,0,17,17,17,,,space,22.5237533811,,,,,,2018_Jun_08_1031,59.5660165545,sheb_replic_pilot_control,001,900,
,leg,ramble,stagger,dance,jog,0.3,0.4,0.7,2,0,2,0,,,,,0,3,3,3,0,18,18,18,,,space,5.14895853994,,,,,,2018_Jun_08_1031,59.5660165545,sheb_replic_pilot_control,001,900,
,arm,skim,wrap,pull,brush,0.3,0.4,0.7,2,0,2,0,,,,,0,3,3,3,0,19,19,19,,,space,8.36908713906,,,,,,2018_Jun_08_1031,59.5660165545,sheb_replic_pilot_control,001,900,
,arm,scratch,poke,push,pinch,0.3,0.4,0.7,2,0,2,0,,,,,0,3,3,3,0,20,20,20,,,space,7.39646364274,,,,,,2018_Jun_08_1031,59.5660165545,sheb_replic_pilot_control,001,900,
,arm,tug,stir,rub,slap,0.3,0.4,0.7,2,0,2,0,,,,,0,3,3,3,0,21,21,21,,,space,12.494378431,,,,,,2018_Jun_08_1031,59.5660165545,sheb_replic_pilot_control,001,900,
,leg,trot,slip,walk,wade,0.3,0.4,0.7,2,0,2,0,,,,,0,3,3,3,0,22,22,22,,,space,3.89110244863,,,,,,2018_Jun_08_1031,59.5660165545,sheb_replic_pilot_control,001,900,
,leg,march,roam,rush,strut,0.3,0.4,0.7,2,0,2,0,,,,,0,3,3,3,0,23,23,23,,,space,9.52617459105,,,,,,2018_Jun_08_1031,59.5660165545,sheb_replic_pilot_control,001,900,
,leg,leap,scuff,stomp,flit,0.3,0.4,0.7,2,0,2,0,,,,,0,3,3,3,0,24,24,24,,,space,8.73785661285,,,,,,2018_Jun_08_1031,59.5660165545,sheb_replic_pilot_control,001,900,
,arm,wipe,throw,squeeze,carve,0.3,0.4,0.7,2,0,2,0,,,,,0,3,3,3,0,25,25,25,,,space,11.0360676516,,,,,,2018_Jun_08_1031,59.5660165545,sheb_replic_pilot_control,001,900,
,leg,slide,step,sprint,skip,0.3,0.4,0.7,2,0,2,0,,,,,0,3,3,3,0,26,26,26,,,space,4.20964920114,,,,,,2018_Jun_08_1031,59.5660165545,sheb_replic_pilot_control,001,900,
,arm,fold,dig,twine,polish,0.3,0.4,0.7,2,0,2,0,,,,,0,3,3,3,0,27,27,27,,,space,4.86484923148,,,,,,2018_Jun_08_1031,59.5660165545,sheb_replic_pilot_control,001,900,
,,,,,,0.3,0.4,0.7,2,0,2,0,,,,,0,3,3,3,,,,,,,,,,,,,,2018_Jun_08_1031,59.5660165545,sheb_replic_pilot_control,001,900,
,arm,pinch,clutch,click,knock,0.25,0.4,0.65,2,0,2,0,,,,,0,4,4,2,0,0,0,0,,,space,9.05659064563,,,,,,2018_Jun_08_1031,59.5660165545,sheb_replic_pilot_control,001,900,
,arm,bash,scratch,grip,squeeze,0.25,0.4,0.65,2,0,2,0,,,,,0,4,4,2,0,1,1,1,,,space,8.35227537628,,,,,,2018_Jun_08_1031,59.5660165545,sheb_replic_pilot_control,001,900,
,leg,stagger,ramble,trot,stride,0.25,0.4,0.65,2,0,2,0,,,,,0,4,4,2,0,2,2,2,,,space,10.2301125341,,,,,,2018_Jun_08_1031,59.5660165545,sheb_replic_pilot_control,001,900,
,arm,punch,stir,dig,seize,0.25,0.4,0.65,2,0,2,0,,,,,0,4,4,2,0,3,3,3,,,space,3.94135480287,,,,,,2018_Jun_08_1031,59.5660165545,sheb_replic_pilot_control,001,900,
,leg,pace,kneel,roll,step,0.25,0.4,0.65,2,0,2,0,,,,,0,4,4,2,0,4,4,4,,,space,3.33824318462,,,,,,2018_Jun_08_1031,59.5660165545,sheb_replic_pilot_control,001,900,
,arm,grate,stab,scrape,grab,0.25,0.4,0.65,2,0,2,0,,,,,0,4,4,2,0,5,5,5,,,space,6.13820217261,,,,,,2018_Jun_08_1031,59.5660165545,sheb_replic_pilot_control,001,900,
,leg,stumble,glide,walk,tread,0.25,0.4,0.65,2,0,2,0,,,,,0,4,4,2,0,6,6,6,,,space,8.11753575512,,,,,,2018_Jun_08_1031,59.5660165545,sheb_replic_pilot_control,001,900,
,arm,polish,slap,rub,clean,0.25,0.4,0.65,2,0,2,0,,,,,0,4,4,2,0,7,7,7,,,space,4.86380773191,,,,,,2018_Jun_08_1031,59.5660165545,sheb_replic_pilot_control,001,900,
,arm,shake,pat,toss,poke,0.25,0.4,0.65,2,0,2,0,,,,,0,4,4,2,0,8,8,8,,,space,6.25585764487,,,,,,2018_Jun_08_1031,59.5660165545,sheb_replic_pilot_control,001,900,
,arm,dunk,clap,file,skim,0.25,0.4,0.65,2,0,2,0,,,,,0,4,4,2,0,9,9,9,,,space,5.51791371358,,,,,,2018_Jun_08_1031,59.5660165545,sheb_replic_pilot_control,001,900,
,leg,run,trudge,climb,slip,0.25,0.4,0.65,2,0,2,0,,,,,0,4,4,2,0,10,10,10,,,space,13.5175150516,,,,,,2018_Jun_08_1031,59.5660165545,sheb_replic_pilot_control,001,900,
,leg,strut,sneak,trek,crawl,0.25,0.4,0.65,2,0,2,0,,,,,0,4,4,2,0,11,11,11,,,space,10.8014643421,,,,,,2018_Jun_08_1031,59.5660165545,sheb_replic_pilot_control,001,900,
,leg,bounce,jump,skate,hop,0.25,0.4,0.65,2,0,2,0,,,,,0,4,4,2,0,12,12,12,,,space,11.3860174337,,,,,,2018_Jun_08_1031,59.5660165545,sheb_replic_pilot_control,001,900,
,arm,carve,snatch,tug,switch,0.25,0.4,0.65,2,0,2,0,,,,,0,4,4,2,0,13,13,13,,,space,4.79835999377,,,,,,2018_Jun_08_1031,59.5660165545,sheb_replic_pilot_control,001,900,
,leg,dance,stamp,prance,march,0.25,0.4,0.65,2,0,2,0,,,,,0,4,4,2,0,14,14,14,,,space,13.1654676515,,,,,,2018_Jun_08_1031,59.5660165545,sheb_replic_pilot_control,001,900,
,leg,wade,sway,mount,slither,0.25,0.4,0.65,2,0,2,0,,,,,0,4,4,2,0,15,15,15,,,space,9.77764063207,,,,,,2018_Jun_08_1031,59.5660165545,sheb_replic_pilot_control,001,900,
,arm,grasp,whip,push,delve,0.25,0.4,0.65,2,0,2,0,,,,,0,4,4,2,0,16,16,16,,,space,5.93704696152,,,,,,2018_Jun_08_1031,59.5660165545,sheb_replic_pilot_control,001,900,
,arm,claw,twine,pull,wrap,0.25,0.4,0.65,2,0,2,0,,,,,0,4,4,2,0,17,17,17,,,space,6.08837139653,,,,,,2018_Jun_08_1031,59.5660165545,sheb_replic_pilot_control,001,900,
,leg,inch,stomp,roam,stray,0.25,0.4,0.65,2,0,2,0,,,,,0,4,4,2,0,18,18,18,,,space,46.6737352458,,,,,,2018_Jun_08_1031,59.5660165545,sheb_replic_pilot_control,001,900,
,arm,peel,braid,brush,cut,0.25,0.4,0.65,2,0,2,0,,,,,0,4,4,2,0,19,19,19,,,space,3.53900447497,,,,,,2018_Jun_08_1031,59.5660165545,sheb_replic_pilot_control,001,900,
,arm,wash,scoop,scrub,catch,0.25,0.4,0.65,2,0,2,0,,,,,0,4,4,2,0,20,20,20,,,space,10.6162062232,,,,,,2018_Jun_08_1031,59.5660165545,sheb_replic_pilot_control,001,900,
,leg,rush,leap,kick,wobble,0.25,0.4,0.65,2,0,2,0,,,,,0,4,4,2,0,21,21,21,,,space,7.59900567609,,,,,,2018_Jun_08_1031,59.5660165545,sheb_replic_pilot_control,001,900,
,arm,hack,chop,bind,fold,0.25,0.4,0.65,2,0,2,0,,,,,0,4,4,2,0,22,22,22,,,space,4.07572563203,,,,,,2018_Jun_08_1031,59.5660165545,sheb_replic_pilot_control,001,900,
,leg,traipse,limp,stroll,tiptoe,0.25,0.4,0.65,2,0,2,0,,,,,0,4,4,2,0,23,23,23,,,space,11.2871591321,,,,,,2018_Jun_08_1031,59.5660165545,sheb_replic_pilot_control,001,900,
,arm,throw,lift,wipe,nip,0.25,0.4,0.65,2,0,2,0,,,,,0,4,4,2,0,24,24,24,,,space,4.19298639334,,,,,,2018_Jun_08_1031,59.5660165545,sheb_replic_pilot_control,001,900,
,leg,sprint,jog,skip,trip,0.25,0.4,0.65,2,0,2,0,,,,,0,4,4,2,0,25,25,25,,,space,6.52392999353,,,,,,2018_Jun_08_1031,59.5660165545,sheb_replic_pilot_control,001,900,
,leg,scuff,flit,creep,slide,0.25,0.4,0.65,2,0,2,0,,,,,0,4,4,2,0,26,26,26,,,space,8.0168066264,,,,,,2018_Jun_08_1031,59.5660165545,sheb_replic_pilot_control,001,900,
,leg,hike,wander,flee,plod,0.25,0.4,0.65,2,0,2,0,,,,,0,4,4,2,0,27,27,27,,,space,4.51151497096,,,,,,2018_Jun_08_1031,59.5660165545,sheb_replic_pilot_control,001,900,
,,,,,,0.25,0.4,0.65,2,0,2,0,,,,,0,4,4,2,,,,,,,,,,,,,,2018_Jun_08_1031,59.5660165545,sheb_replic_pilot_control,001,900,
,arm,rub,wrap,skim,slap,0.4,0.4,0.8,2,0,2,0,,,,,0,5,5,5,0,0,0,0,,,space,7.53059543273,,,,,,2018_Jun_08_1031,59.5660165545,sheb_replic_pilot_control,001,900,
,arm,twine,whip,nip,snatch,0.4,0.4,0.8,2,0,2,0,,,,,0,5,5,5,0,1,1,1,,,space,4.76322163158,,,,,,2018_Jun_08_1031,59.5660165545,sheb_replic_pilot_control,001,900,
,leg,slide,traipse,tiptoe,sprint,0.4,0.4,0.8,2,0,2,0,,,,,0,5,5,5,0,2,2,2,,,space,8.78839778962,,,,,,2018_Jun_08_1031,59.5660165545,sheb_replic_pilot_control,001,900,
,arm,punch,cut,clap,braid,0.4,0.4,0.8,2,0,2,0,,,,,0,5,5,5,0,3,3,3,,,space,8.5868885635,,,,,,2018_Jun_08_1031,59.5660165545,sheb_replic_pilot_control,001,900,
,leg,bounce,skip,sway,wade,0.4,0.4,0.8,2,0,2,0,,,,,0,5,5,5,0,4,4,4,,,space,5.01487732352,,,,,,2018_Jun_08_1031,59.5660165545,sheb_replic_pilot_control,001,900,
,leg,leap,stomp,climb,run,0.4,0.4,0.8,2,0,2,0,,,,,0,5,5,5,0,5,5,5,,,space,7.24531068375,,,,,,2018_Jun_08_1031,59.5660165545,sheb_replic_pilot_control,001,900,
,arm,bind,delve,chop,squeeze,0.4,0.4,0.8,2,0,2,0,,,,,0,5,5,5,0,6,6,6,,,space,5.29992303334,,,,,,2018_Jun_08_1031,59.5660165545,sheb_replic_pilot_control,001,900,
,leg,stray,rush,limp,stumble,0.4,0.4,0.8,2,0,2,0,,,,,0,5,5,5,0,7,7,7,,,space,13.9208511691,,,,,,2018_Jun_08_1031,59.5660165545,sheb_replic_pilot_control,001,900,
,arm,file,scrub,pull,hack,0.4,0.4,0.8,2,0,2,0,,,,,0,5,5,5,0,8,8,8,,,space,5.75304923101,,,,,,2018_Jun_08_1031,59.5660165545,sheb_replic_pilot_control,001,900,
,leg,wander,flit,step,sneak,0.4,0.4,0.8,2,0,2,0,,,,,0,5,5,5,0,9,9,9,,,space,5.80344382343,,,,,,2018_Jun_08_1031,59.5660165545,sheb_replic_pilot_control,001,900,
,leg,jog,tread,trek,roll,0.4,0.4,0.8,2,0,2,0,,,,,0,5,5,5,0,10,10,10,,,space,9.52647645207,,,,,,2018_Jun_08_1031,59.5660165545,sheb_replic_pilot_control,001,900,
,arm,throw,catch,lift,dig,0.4,0.4,0.8,2,0,2,0,,,,,0,5,5,5,0,11,11,11,,,space,4.29367798698,,,,,,2018_Jun_08_1031,59.5660165545,sheb_replic_pilot_control,001,900,
,leg,roam,hike,creep,kick,0.4,0.4,0.8,2,0,2,0,,,,,0,5,5,5,0,12,12,12,,,space,8.06712417314,,,,,,2018_Jun_08_1031,59.5660165545,sheb_replic_pilot_control,001,900,
,arm,push,wash,dunk,scrape,0.4,0.4,0.8,2,0,2,0,,,,,0,5,5,5,0,13,13,13,,,space,4.84708289246,,,,,,2018_Jun_08_1031,59.5660165545,sheb_replic_pilot_control,001,900,
,leg,trudge,stroll,kneel,slip,0.4,0.4,0.8,2,0,2,0,,,,,0,5,5,5,0,14,14,14,,,space,12.1928334873,,,,,,2018_Jun_08_1031,59.5660165545,sheb_replic_pilot_control,001,900,
,arm,poke,fold,click,stir,0.4,0.4,0.8,2,0,2,0,,,,,0,5,5,5,0,15,15,15,,,space,18.9855083,,,,,,2018_Jun_08_1031,59.5660165545,sheb_replic_pilot_control,001,900,
,arm,pinch,clean,switch,grip,0.4,0.4,0.8,2,0,2,0,,,,,0,5,5,5,0,16,16,16,,,space,4.36077055164,,,,,,2018_Jun_08_1031,59.5660165545,sheb_replic_pilot_control,001,900,
,arm,knock,peel,shake,grasp,0.4,0.4,0.8,2,0,2,0,,,,,0,5,5,5,0,17,17,17,,,space,5.16609310437,,,,,,2018_Jun_08_1031,59.5660165545,sheb_replic_pilot_control,001,900,
,leg,trot,stamp,prance,jump,0.4,0.4,0.8,2,0,2,0,,,,,0,5,5,5,0,18,18,18,,,space,8.63902438832,,,,,,2018_Jun_08_1031,59.5660165545,sheb_replic_pilot_control,001,900,
,leg,crawl,strut,slither,wobble,0.4,0.4,0.8,2,0,2,0,,,,,0,5,5,5,0,19,19,19,,,space,10.7504885486,,,,,,2018_Jun_08_1031,59.5660165545,sheb_replic_pilot_control,001,900,
,arm,seize,bash,wipe,brush,0.4,0.4,0.8,2,0,2,0,,,,,0,5,5,5,0,20,20,20,,,space,5.11619476516,,,,,,2018_Jun_08_1031,59.5660165545,sheb_replic_pilot_control,001,900,
,leg,glide,plod,stride,stagger,0.4,0.4,0.8,2,0,2,0,,,,,0,5,5,5,0,21,21,21,,,space,12.9809965839,,,,,,2018_Jun_08_1031,59.5660165545,sheb_replic_pilot_control,001,900,
,arm,claw,carve,tug,scoop,0.4,0.4,0.8,2,0,2,0,,,,,0,5,5,5,0,22,22,22,,,space,3.97510594769,,,,,,2018_Jun_08_1031,59.5660165545,sheb_replic_pilot_control,001,900,
,arm,grab,pat,grate,polish,0.4,0.4,0.8,2,0,2,0,,,,,0,5,5,5,0,23,23,23,,,space,14.8758154001,,,,,,2018_Jun_08_1031,59.5660165545,sheb_replic_pilot_control,001,900,
,arm,toss,stab,scratch,clutch,0.4,0.4,0.8,2,0,2,0,,,,,0,5,5,5,0,24,24,24,,,space,9.7944618774,,,,,,2018_Jun_08_1031,59.5660165545,sheb_replic_pilot_control,001,900,
,leg,inch,flee,mount,pace,0.4,0.4,0.8,2,0,2,0,,,,,0,5,5,5,0,25,25,25,,,space,5.68617792574,,,,,,2018_Jun_08_1031,59.5660165545,sheb_replic_pilot_control,001,900,
,leg,scuff,ramble,dance,skate,0.4,0.4,0.8,2,0,2,0,,,,,0,5,5,5,0,26,26,26,,,space,8.08385928535,,,,,,2018_Jun_08_1031,59.5660165545,sheb_replic_pilot_control,001,900,
,leg,trip,march,hop,walk,0.4,0.4,0.8,2,0,2,0,,,,,0,5,5,5,0,27,27,27,,,space,4.00858604975,,,,,,2018_Jun_08_1031,59.5660165545,sheb_replic_pilot_control,001,900,
,,,,,,0.4,0.4,0.8,2,0,2,0,,,,,0,5,5,5,,,,,,,,,,,,,,2018_Jun_08_1031,59.5660165545,sheb_replic_pilot_control,001,900,
,,,,,,,,,2,0,2,0,,,,,,,,,,,,,,,,,,,,,None,2018_Jun_08_1031,59.5660165545,sheb_replic_pilot_control,001,900,
