word,target,distrOne,distrTwo,corrAns,w1,w2,w3,category,category_lowercase,trials.thisRepN,trials.thisTrialN,trials.thisN,trials.thisIndex,ArmLeg_loop.thisRepN,ArmLeg_loop.thisTrialN,ArmLeg_loop.thisN,ArmLeg_loop.thisIndex,key_resp_3.keys,key_resp_3.rt,key_resp_6.keys,key_resp_6.rt,key_resp_5.keys,key_resp_5.rt,key_resp_4.keys,key_resp_4.rt,rating.response,rating.rt,answer.keys,answer.corr,answer.rt,key_resp_7.keys,key_resp_7.rt,date,frameRate,expName,session,participant,
,,,,,,,,,,,,,,,,,,space,15.9652903279,,,,,,,,,,,,,,2018_Jun_08_1140,59.1420432906,verb_norming,001,900,
,,,,,,,,,,,,,,,,,,,,space,45.7512558446,,,,,,,,,,,,2018_Jun_08_1140,59.1420432906,verb_norming,001,900,
,,,,,,,,,,,,,,,,,,,,,,space,11.9076506757,,,,,,,,,,2018_Jun_08_1140,59.1420432906,verb_norming,001,900,
,,,,,,,,,,,,,,,,,,,,,,,,space,22.3223204105,,,,,,,,2018_Jun_08_1140,59.1420432906,verb_norming,001,900,
DUNK,dunka,dumpa,dunsa,2,dumpa,dunka,dunsa,Arm,arm,0,0,0,20,0,0,0,0,,,,,,,,,7,78.455,,,,,,2018_Jun_08_1140,59.1420432906,verb_norming,001,900,
DUNK,dunka,dumpa,dunsa,2,dumpa,dunka,dunsa,Leg,leg,0,0,0,20,0,1,1,1,,,,,,,,,1,9.555,,,,,,2018_Jun_08_1140,59.1420432906,verb_norming,001,900,
DUNK,dunka,dumpa,dunsa,2,dumpa,dunka,dunsa,,,0,0,0,20,,,,,,,,,,,,,,,2,1,15.2448784377,,,2018_Jun_08_1140,59.1420432906,verb_norming,001,900,
GRASP,gripa,klämma,omfamna,2,omfamna,gripa,klämma,Arm,arm,0,1,1,27,0,0,0,0,,,,,,,,,7,12.216,,,,,,2018_Jun_08_1140,59.1420432906,verb_norming,001,900,
GRASP,gripa,klämma,omfamna,2,omfamna,gripa,klämma,Leg,leg,0,1,1,27,0,1,1,1,,,,,,,,,1,4.775,,,,,,2018_Jun_08_1140,59.1420432906,verb_norming,001,900,
GRASP,gripa,klämma,omfamna,2,omfamna,gripa,klämma,,,0,1,1,27,,,,,,,,,,,,,,,2,1,5.71929018406,,,2018_Jun_08_1140,59.1420432906,verb_norming,001,900,
PEEL,skala,rensa,plocka,2,plocka,skala,rensa,Arm,arm,0,2,2,47,0,0,0,0,,,,,,,,,7,9.351,,,,,,2018_Jun_08_1140,59.1420432906,verb_norming,001,900,
PEEL,skala,rensa,plocka,2,plocka,skala,rensa,Leg,leg,0,2,2,47,0,1,1,1,,,,,,,,,1,6.1,,,,,,2018_Jun_08_1140,59.1420432906,verb_norming,001,900,
PEEL,skala,rensa,plocka,2,plocka,skala,rensa,,,0,2,2,47,,,,,,,,,,,,,,,2,1,3.01880783859,,,2018_Jun_08_1140,59.1420432906,verb_norming,001,900,
PRANCE,kråma sig,promenera,traska,2,promenera,kråma sig,traska,Arm,arm,0,3,3,53,0,0,0,0,,,,,,,,,1,30.665,,,,,,2018_Jun_08_1140,59.1420432906,verb_norming,001,900,
PRANCE,kråma sig,promenera,traska,2,promenera,kråma sig,traska,Leg,leg,0,3,3,53,0,1,1,1,,,,,,,,,7,11.349,,,,,,2018_Jun_08_1140,59.1420432906,verb_norming,001,900,
PRANCE,kråma sig,promenera,traska,2,promenera,kråma sig,traska,,,0,3,3,53,,,,,,,,,,,,,,,3,0,25.2569848825,,,2018_Jun_08_1140,59.1420432906,verb_norming,001,900,
JOG,jogga,spurta,rusa,3,spurta,rusa,jogga,Arm,arm,0,4,4,34,0,0,0,0,,,,,,,,,1,7.904,,,,,,2018_Jun_08_1140,59.1420432906,verb_norming,001,900,
JOG,jogga,spurta,rusa,3,spurta,rusa,jogga,Leg,leg,0,4,4,34,0,1,1,1,,,,,,,,,7,4.606,,,,,,2018_Jun_08_1140,59.1420432906,verb_norming,001,900,
JOG,jogga,spurta,rusa,3,spurta,rusa,jogga,,,0,4,4,34,,,,,,,,,,,,,,,3,1,3.70672897226,,,2018_Jun_08_1140,59.1420432906,verb_norming,001,900,
CHOP,hacka,tälja,riva,1,hacka,riva,tälja,Arm,arm,0,5,5,7,0,0,0,0,,,,,,,,,7,17.768,,,,,,2018_Jun_08_1140,59.1420432906,verb_norming,001,900,
CHOP,hacka,tälja,riva,1,hacka,riva,tälja,Leg,leg,0,5,5,7,0,1,1,1,,,,,,,,,1,4.422,,,,,,2018_Jun_08_1140,59.1420432906,verb_norming,001,900,
CHOP,hacka,tälja,riva,1,hacka,riva,tälja,,,0,5,5,7,,,,,,,,,,,,,,,2,0,23.3119097609,,,2018_Jun_08_1140,59.1420432906,verb_norming,001,900,
SQUEEZE,klämma,knuffa,knäppa,1,klämma,knäppa,knuffa,Arm,arm,0,6,6,80,0,0,0,0,,,,,,,,,7,7.012,,,,,,2018_Jun_08_1140,59.1420432906,verb_norming,001,900,
SQUEEZE,klämma,knuffa,knäppa,1,klämma,knäppa,knuffa,Leg,leg,0,6,6,80,0,1,1,1,,,,,,,,,1,3.329,,,,,,2018_Jun_08_1140,59.1420432906,verb_norming,001,900,
SQUEEZE,klämma,knuffa,knäppa,1,klämma,knäppa,knuffa,,,0,6,6,80,,,,,,,,,,,,,,,1,1,5.33352956934,,,2018_Jun_08_1140,59.1420432906,verb_norming,001,900,
WANDER,vandra,marschera,spatsera,1,vandra,marschera,spatsera,Arm,arm,0,7,7,106,0,0,0,0,,,,,,,,,1,8.09,,,,,,2018_Jun_08_1140,59.1420432906,verb_norming,001,900,
WANDER,vandra,marschera,spatsera,1,vandra,marschera,spatsera,Leg,leg,0,7,7,106,0,1,1,1,,,,,,,,,7,6.653,,,,,,2018_Jun_08_1140,59.1420432906,verb_norming,001,900,
WANDER,vandra,marschera,spatsera,1,vandra,marschera,spatsera,,,0,7,7,106,,,,,,,,,,,,,,,1,1,3.75704533368,,,2018_Jun_08_1140,59.1420432906,verb_norming,001,900,
RUB,gnugga,riva,klappa,3,riva,klappa,gnugga,Arm,arm,0,8,8,60,0,0,0,0,,,,,,,,,7,11.779,,,,,,2018_Jun_08_1140,59.1420432906,verb_norming,001,900,
RUB,gnugga,riva,klappa,3,riva,klappa,gnugga,Leg,leg,0,8,8,60,0,1,1,1,,,,,,,,,1,6.703,,,,,,2018_Jun_08_1140,59.1420432906,verb_norming,001,900,
RUB,gnugga,riva,klappa,3,riva,klappa,gnugga,,,0,8,8,60,,,,,,,,,,,,,,,3,1,16.7544403994,,,2018_Jun_08_1140,59.1420432906,verb_norming,001,900,
INCH,röra sig långsamt framåt,dra sig snabbt tillbaka,hasa sig bakåt,3,dra sig snabbt tillbaka,hasa sig bakåt,röra sig långsamt framåt,Arm,arm,0,9,9,33,0,0,0,0,,,,,,,,,1,47.606,,,,,,2018_Jun_08_1140,59.1420432906,verb_norming,001,900,
INCH,röra sig långsamt framåt,dra sig snabbt tillbaka,hasa sig bakåt,3,dra sig snabbt tillbaka,hasa sig bakåt,röra sig långsamt framåt,Leg,leg,0,9,9,33,0,1,1,1,,,,,,,,,7,9.555,,,,,,2018_Jun_08_1140,59.1420432906,verb_norming,001,900,
INCH,röra sig långsamt framåt,dra sig snabbt tillbaka,hasa sig bakåt,3,dra sig snabbt tillbaka,hasa sig bakåt,röra sig långsamt framåt,,,0,9,9,33,,,,,,,,,,,,,,,1,0,41.1894604669,,,2018_Jun_08_1140,59.1420432906,verb_norming,001,900,
LEAP,hoppa,stega,kliva,2,stega,hoppa,kliva,Arm,arm,0,10,10,39,0,0,0,0,,,,,,,,,1,11.564,,,,,,2018_Jun_08_1140,59.1420432906,verb_norming,001,900,
LEAP,hoppa,stega,kliva,2,stega,hoppa,kliva,Leg,leg,0,10,10,39,0,1,1,1,,,,,,,,,7,5.832,,,,,,2018_Jun_08_1140,59.1420432906,verb_norming,001,900,
LEAP,hoppa,stega,kliva,2,stega,hoppa,kliva,,,0,10,10,39,,,,,,,,,,,,,,,3,0,27.1020258668,,,2018_Jun_08_1140,59.1420432906,verb_norming,001,900,
WRAP,slå in,slå ihop,slå till,2,slå ihop,slå in,slå till,Arm,arm,0,11,11,111,0,0,0,0,,,,,,,,,7,6.818,,,,,,2018_Jun_08_1140,59.1420432906,verb_norming,001,900,
WRAP,slå in,slå ihop,slå till,2,slå ihop,slå in,slå till,Leg,leg,0,11,11,111,0,1,1,1,,,,,,,,,1,6.033,,,,,,2018_Jun_08_1140,59.1420432906,verb_norming,001,900,
WRAP,slå in,slå ihop,slå till,2,slå ihop,slå in,slå till,,,0,11,11,111,,,,,,,,,,,,,,,2,1,6.84291412844,,,2018_Jun_08_1140,59.1420432906,verb_norming,001,900,
SCUFF,hasa sig fram,dra sig fram,kasta sig fram,3,dra sig fram,kasta sig fram,hasa sig fram,Arm,arm,0,12,12,67,0,0,0,0,,,,,,,,,7,8.545,,,,,,2018_Jun_08_1140,59.1420432906,verb_norming,001,900,
SCUFF,hasa sig fram,dra sig fram,kasta sig fram,3,dra sig fram,kasta sig fram,hasa sig fram,Leg,leg,0,12,12,67,0,1,1,1,,,,,,,,,1,2.192,,,,,,2018_Jun_08_1140,59.1420432906,verb_norming,001,900,
SCUFF,hasa sig fram,dra sig fram,kasta sig fram,3,dra sig fram,kasta sig fram,hasa sig fram,,,0,12,12,67,,,,,,,,,,,,,,,2,0,20.745889119,,,2018_Jun_08_1140,59.1420432906,verb_norming,001,900,
GRIP,gripa om,hålla om,kasta om,2,kasta om,gripa om,hålla om,Arm,arm,0,13,13,29,0,0,0,0,,,,,,,,,7,6.231,,,,,,2018_Jun_08_1140,59.1420432906,verb_norming,001,900,
GRIP,gripa om,hålla om,kasta om,2,kasta om,gripa om,hålla om,Leg,leg,0,13,13,29,0,1,1,1,,,,,,,,,1,5.279,,,,,,2018_Jun_08_1140,59.1420432906,verb_norming,001,900,
GRIP,gripa om,hålla om,kasta om,2,kasta om,gripa om,hålla om,,,0,13,13,29,,,,,,,,,,,,,,,2,1,16.3185416161,,,2018_Jun_08_1140,59.1420432906,verb_norming,001,900,
BRAID,fläta,knyta,binda,2,knyta,fläta,binda,Arm,arm,0,14,14,3,0,0,0,0,,,,,,,,,4,28.066,,,,,,2018_Jun_08_1140,59.1420432906,verb_norming,001,900,
BRAID,fläta,knyta,binda,2,knyta,fläta,binda,Leg,leg,0,14,14,3,0,1,1,1,,,,,,,,,1,27.112,,,,,,2018_Jun_08_1140,59.1420432906,verb_norming,001,900,
BRAID,fläta,knyta,binda,2,knyta,fläta,binda,,,0,14,14,3,,,,,,,,,,,,,,,2,1,23.2449562736,,,2018_Jun_08_1140,59.1420432906,verb_norming,001,900,
PLUCK,plocka,rensa,picka,2,rensa,plocka,picka,Arm,arm,0,15,15,50,0,0,0,0,,,,,,,,,7,13.761,,,,,,2018_Jun_08_1140,59.1420432906,verb_norming,001,900,
PLUCK,plocka,rensa,picka,2,rensa,plocka,picka,Leg,leg,0,15,15,50,0,1,1,1,,,,,,,,,1,1.94,,,,,,2018_Jun_08_1140,59.1420432906,verb_norming,001,900,
PLUCK,plocka,rensa,picka,2,rensa,plocka,picka,,,0,15,15,50,,,,,,,,,,,,,,,3,0,9.3917851919,,,2018_Jun_08_1140,59.1420432906,verb_norming,001,900,
SCRUB,skrubba,sopa,skrapa,2,sopa,skrubba,skrapa,Arm,arm,0,16,16,66,0,0,0,0,,,,,,,,,7,6.531,,,,,,2018_Jun_08_1140,59.1420432906,verb_norming,001,900,
SCRUB,skrubba,sopa,skrapa,2,sopa,skrubba,skrapa,Leg,leg,0,16,16,66,0,1,1,1,,,,,,,,,1,1.637,,,,,,2018_Jun_08_1140,59.1420432906,verb_norming,001,900,
SCRUB,skrubba,sopa,skrapa,2,sopa,skrubba,skrapa,,,0,16,16,66,,,,,,,,,,,,,,,3,0,9.99560839616,,,2018_Jun_08_1140,59.1420432906,verb_norming,001,900,
THROW,kasta,greppa,träffa,2,träffa,kasta,greppa,Arm,arm,0,17,17,94,0,0,0,0,,,,,,,,,7,7.319,,,,,,2018_Jun_08_1140,59.1420432906,verb_norming,001,900,
THROW,kasta,greppa,träffa,2,träffa,kasta,greppa,Leg,leg,0,17,17,94,0,1,1,1,,,,,,,,,1,1.601,,,,,,2018_Jun_08_1140,59.1420432906,verb_norming,001,900,
THROW,kasta,greppa,träffa,2,träffa,kasta,greppa,,,0,17,17,94,,,,,,,,,,,,,,,2,1,3.38807791175,,,2018_Jun_08_1140,59.1420432906,verb_norming,001,900,
STRIDE,kliva,tassa,lunka,3,tassa,lunka,kliva,Arm,arm,0,18,18,88,0,0,0,0,,,,,,,,,4,22.074,,,,,,2018_Jun_08_1140,59.1420432906,verb_norming,001,900,
STRIDE,kliva,tassa,lunka,3,tassa,lunka,kliva,Leg,leg,0,18,18,88,0,1,1,1,,,,,,,,,4,3.332,,,,,,2018_Jun_08_1140,59.1420432906,verb_norming,001,900,
STRIDE,kliva,tassa,lunka,3,tassa,lunka,kliva,,,0,18,18,88,,,,,,,,,,,,,,,3,1,16.771232802,,,2018_Jun_08_1140,59.1420432906,verb_norming,001,900,
SEIZE,fånga,klämma,fästa,1,fånga,klämma,fästa,Arm,arm,0,19,19,68,0,0,0,0,,,,,,,,,7,5.408,,,,,,2018_Jun_08_1140,59.1420432906,verb_norming,001,900,
SEIZE,fånga,klämma,fästa,1,fånga,klämma,fästa,Leg,leg,0,19,19,68,0,1,1,1,,,,,,,,,1,1.57,,,,,,2018_Jun_08_1140,59.1420432906,verb_norming,001,900,
SEIZE,fånga,klämma,fästa,1,fånga,klämma,fästa,,,0,19,19,68,,,,,,,,,,,,,,,1,1,2.23097386531,,,2018_Jun_08_1140,59.1420432906,verb_norming,001,900,
CUT,skära,sticka,spetsa,1,skära,spetsa,sticka,Arm,arm,0,20,20,16,0,0,0,0,,,,,,,,,7,7.59,,,,,,2018_Jun_08_1140,59.1420432906,verb_norming,001,900,
CUT,skära,sticka,spetsa,1,skära,spetsa,sticka,Leg,leg,0,20,20,16,0,1,1,1,,,,,,,,,1,1.237,,,,,,2018_Jun_08_1140,59.1420432906,verb_norming,001,900,
CUT,skära,sticka,spetsa,1,skära,spetsa,sticka,,,0,20,20,16,,,,,,,,,,,,,,,1,1,5.76946628283,,,2018_Jun_08_1140,59.1420432906,verb_norming,001,900,
MOUNT,gå uppför,ströva runt,kliva över,2,kliva över,gå uppför,ströva runt,Arm,arm,0,21,21,43,0,0,0,0,,,,,,,,,4,18.672,,,,,,2018_Jun_08_1140,59.1420432906,verb_norming,001,900,
MOUNT,gå uppför,ströva runt,kliva över,2,kliva över,gå uppför,ströva runt,Leg,leg,0,21,21,43,0,1,1,1,,,,,,,,,4,7.355,,,,,,2018_Jun_08_1140,59.1420432906,verb_norming,001,900,
MOUNT,gå uppför,ströva runt,kliva över,2,kliva över,gå uppför,ströva runt,,,0,21,21,43,,,,,,,,,,,,,,,2,1,6.54088557491,,,2018_Jun_08_1140,59.1420432906,verb_norming,001,900,
BIND,binda,linda,vinda,2,vinda,binda,linda,Arm,arm,0,22,22,1,0,0,0,0,,,,,,,,,7,5.141,,,,,,2018_Jun_08_1140,59.1420432906,verb_norming,001,900,
BIND,binda,linda,vinda,2,vinda,binda,linda,Leg,leg,0,22,22,1,0,1,1,1,,,,,,,,,1,1.286,,,,,,2018_Jun_08_1140,59.1420432906,verb_norming,001,900,
BIND,binda,linda,vinda,2,vinda,binda,linda,,,0,22,22,1,,,,,,,,,,,,,,,2,1,7.02632947262,,,2018_Jun_08_1140,59.1420432906,verb_norming,001,900,
MARCH,marschera,trava,traska,3,traska,trava,marschera,Arm,arm,0,23,23,42,0,0,0,0,,,,,,,,,1,4.788,,,,,,2018_Jun_08_1140,59.1420432906,verb_norming,001,900,
MARCH,marschera,trava,traska,3,traska,trava,marschera,Leg,leg,0,23,23,42,0,1,1,1,,,,,,,,,7,3.449,,,,,,2018_Jun_08_1140,59.1420432906,verb_norming,001,900,
MARCH,marschera,trava,traska,3,traska,trava,marschera,,,0,23,23,42,,,,,,,,,,,,,,,3,1,3.03591909176,,,2018_Jun_08_1140,59.1420432906,verb_norming,001,900,
RUN,springa,rusa,jogga,3,rusa,jogga,springa,Arm,arm,0,24,24,61,0,0,0,0,,,,,,,,,1,4.052,,,,,,2018_Jun_08_1140,59.1420432906,verb_norming,001,900,
RUN,springa,rusa,jogga,3,rusa,jogga,springa,Leg,leg,0,24,24,61,0,1,1,1,,,,,,,,,7,1.992,,,,,,2018_Jun_08_1140,59.1420432906,verb_norming,001,900,
RUN,springa,rusa,jogga,3,rusa,jogga,springa,,,0,24,24,61,,,,,,,,,,,,,,,3,1,7.32916996909,,,2018_Jun_08_1140,59.1420432906,verb_norming,001,900,
WADE,vada,pulsa,plöja,2,plöja,vada,pulsa,Arm,arm,0,25,25,104,0,0,0,0,,,,,,,,,1,7.49,,,,,,2018_Jun_08_1140,59.1420432906,verb_norming,001,900,
WADE,vada,pulsa,plöja,2,plöja,vada,pulsa,Leg,leg,0,25,25,104,0,1,1,1,,,,,,,,,7,1.723,,,,,,2018_Jun_08_1140,59.1420432906,verb_norming,001,900,
WADE,vada,pulsa,plöja,2,plöja,vada,pulsa,,,0,25,25,104,,,,,,,,,,,,,,,2,1,5.88704628984,,,2018_Jun_08_1140,59.1420432906,verb_norming,001,900,
BOUNCE,studsa,dunka,kasta,3,kasta,dunka,studsa,Arm,arm,0,26,26,2,0,0,0,0,,,,,,,,,7,13.877,,,,,,2018_Jun_08_1140,59.1420432906,verb_norming,001,900,
BOUNCE,studsa,dunka,kasta,3,kasta,dunka,studsa,Leg,leg,0,26,26,2,0,1,1,1,,,,,,,,,1,1.403,,,,,,2018_Jun_08_1140,59.1420432906,verb_norming,001,900,
BOUNCE,studsa,dunka,kasta,3,kasta,dunka,studsa,,,0,26,26,2,,,,,,,,,,,,,,,3,1,3.47204980233,,,2018_Jun_08_1140,59.1420432906,verb_norming,001,900,
BRUSH,borsta,skrubba,putsa,3,skrubba,putsa,borsta,Arm,arm,0,27,27,4,0,0,0,0,,,,,,,,,7,6.18,,,,,,2018_Jun_08_1140,59.1420432906,verb_norming,001,900,
BRUSH,borsta,skrubba,putsa,3,skrubba,putsa,borsta,Leg,leg,0,27,27,4,0,1,1,1,,,,,,,,,1,1.151,,,,,,2018_Jun_08_1140,59.1420432906,verb_norming,001,900,
BRUSH,borsta,skrubba,putsa,3,skrubba,putsa,borsta,,,0,27,27,4,,,,,,,,,,,,,,,3,1,2.75082992028,,,2018_Jun_08_1140,59.1420432906,verb_norming,001,900,
STRAY,ströva,vandra,promenera,1,ströva,promenera,vandra,Arm,arm,0,28,28,87,0,0,0,0,,,,,,,,,1,6.433,,,,,,2018_Jun_08_1140,59.1420432906,verb_norming,001,900,
STRAY,ströva,vandra,promenera,1,ströva,promenera,vandra,Leg,leg,0,28,28,87,0,1,1,1,,,,,,,,,7,2.964,,,,,,2018_Jun_08_1140,59.1420432906,verb_norming,001,900,
STRAY,ströva,vandra,promenera,1,ströva,promenera,vandra,,,0,28,28,87,,,,,,,,,,,,,,,1,1,4.36077766355,,,2018_Jun_08_1140,59.1420432906,verb_norming,001,900,
SLIP,halka,snava,ramla,2,snava,halka,ramla,Arm,arm,0,29,29,75,0,0,0,0,,,,,,,,,1,10.558,,,,,,2018_Jun_08_1140,59.1420432906,verb_norming,001,900,
SLIP,halka,snava,ramla,2,snava,halka,ramla,Leg,leg,0,29,29,75,0,1,1,1,,,,,,,,,7,5.279,,,,,,2018_Jun_08_1140,59.1420432906,verb_norming,001,900,
SLIP,halka,snava,ramla,2,snava,halka,ramla,,,0,29,29,75,,,,,,,,,,,,,,,2,1,4.66260313256,,,2018_Jun_08_1140,59.1420432906,verb_norming,001,900,
STRUT,svassa,lunka,strosa,1,svassa,strosa,lunka,Arm,arm,0,30,30,90,0,0,0,0,,,,,,,,,1,5.242,,,,,,2018_Jun_08_1140,59.1420432906,verb_norming,001,900,
STRUT,svassa,lunka,strosa,1,svassa,strosa,lunka,Leg,leg,0,30,30,90,0,1,1,1,,,,,,,,,7,2.762,,,,,,2018_Jun_08_1140,59.1420432906,verb_norming,001,900,
STRUT,svassa,lunka,strosa,1,svassa,strosa,lunka,,,0,30,30,90,,,,,,,,,,,,,,,1,1,17.4923787992,,,2018_Jun_08_1140,59.1420432906,verb_norming,001,900,
STUMBLE,snubbla,glida,svaja,1,snubbla,glida,svaja,Arm,arm,0,31,31,91,0,0,0,0,,,,,,,,,1,22.245,,,,,,2018_Jun_08_1140,59.1420432906,verb_norming,001,900,
STUMBLE,snubbla,glida,svaja,1,snubbla,glida,svaja,Leg,leg,0,31,31,91,0,1,1,1,,,,,,,,,7,1.871,,,,,,2018_Jun_08_1140,59.1420432906,verb_norming,001,900,
STUMBLE,snubbla,glida,svaja,1,snubbla,glida,svaja,,,0,31,31,91,,,,,,,,,,,,,,,1,1,8.40261939512,,,2018_Jun_08_1140,59.1420432906,verb_norming,001,900,
ROAM,ströva omkring,ta sig fram,luffa runt,3,ta sig fram,luffa runt,ströva omkring,Arm,arm,0,32,32,58,0,0,0,0,,,,,,,,,1,11.579,,,,,,2018_Jun_08_1140,59.1420432906,verb_norming,001,900,
ROAM,ströva omkring,ta sig fram,luffa runt,3,ta sig fram,luffa runt,ströva omkring,Leg,leg,0,32,32,58,0,1,1,1,,,,,,,,,7,2.794,,,,,,2018_Jun_08_1140,59.1420432906,verb_norming,001,900,
ROAM,ströva omkring,ta sig fram,luffa runt,3,ta sig fram,luffa runt,ströva omkring,,,0,32,32,58,,,,,,,,,,,,,,,3,1,8.8553224342,,,2018_Jun_08_1140,59.1420432906,verb_norming,001,900,
CRAWL,kravla,huka,klättra,3,huka,klättra,kravla,Arm,arm,0,33,33,14,0,0,0,0,,,,,,,,,7,4.689,,,,,,2018_Jun_08_1140,59.1420432906,verb_norming,001,900,
CRAWL,kravla,huka,klättra,3,huka,klättra,kravla,Leg,leg,0,33,33,14,0,1,1,1,,,,,,,,,1,1.102,,,,,,2018_Jun_08_1140,59.1420432906,verb_norming,001,900,
CRAWL,kravla,huka,klättra,3,huka,klättra,kravla,,,0,33,33,14,,,,,,,,,,,,,,,3,1,11.253485033,,,2018_Jun_08_1140,59.1420432906,verb_norming,001,900,
SLIDE,glida,ramla,hasa,2,hasa,glida,ramla,Arm,arm,0,34,34,74,0,0,0,0,,,,,,,,,1,10.944,,,,,,2018_Jun_08_1140,59.1420432906,verb_norming,001,900,
SLIDE,glida,ramla,hasa,2,hasa,glida,ramla,Leg,leg,0,34,34,74,0,1,1,1,,,,,,,,,7,2.458,,,,,,2018_Jun_08_1140,59.1420432906,verb_norming,001,900,
SLIDE,glida,ramla,hasa,2,hasa,glida,ramla,,,0,34,34,74,,,,,,,,,,,,,,,2,1,6.35645322774,,,2018_Jun_08_1140,59.1420432906,verb_norming,001,900,
SWITCH,slå på/av,knäppa,nypa,1,slå på/av,knäppa,nypa,Arm,arm,0,35,35,93,0,0,0,0,,,,,,,,,7,8.075,,,,,,2018_Jun_08_1140,59.1420432906,verb_norming,001,900,
SWITCH,slå på/av,knäppa,nypa,1,slå på/av,knäppa,nypa,Leg,leg,0,35,35,93,0,1,1,1,,,,,,,,,1,1.018,,,,,,2018_Jun_08_1140,59.1420432906,verb_norming,001,900,
SWITCH,slå på/av,knäppa,nypa,1,slå på/av,knäppa,nypa,,,0,35,35,93,,,,,,,,,,,,,,,1,1,5.78621601396,,,2018_Jun_08_1140,59.1420432906,verb_norming,001,900,
DIG,gräva,dränera,dika,1,gräva,dränera,dika,Arm,arm,0,36,36,19,0,0,0,0,,,,,,,,,7,3.951,,,,,,2018_Jun_08_1140,59.1420432906,verb_norming,001,900,
DIG,gräva,dränera,dika,1,gräva,dränera,dika,Leg,leg,0,36,36,19,0,1,1,1,,,,,,,,,1,0.918,,,,,,2018_Jun_08_1140,59.1420432906,verb_norming,001,900,
DIG,gräva,dränera,dika,1,gräva,dränera,dika,,,0,36,36,19,,,,,,,,,,,,,,,1,1,1.89540159765,,,2018_Jun_08_1140,59.1420432906,verb_norming,001,900,
PUSH,knuffa,kasta,klämma,1,knuffa,kasta,klämma,Arm,arm,0,37,37,56,0,0,0,0,,,,,,,,,7,5.443,,,,,,2018_Jun_08_1140,59.1420432906,verb_norming,001,900,
PUSH,knuffa,kasta,klämma,1,knuffa,kasta,klämma,Leg,leg,0,37,37,56,0,1,1,1,,,,,,,,,1,2.192,,,,,,2018_Jun_08_1140,59.1420432906,verb_norming,001,900,
PUSH,knuffa,kasta,klämma,1,knuffa,kasta,klämma,,,0,37,37,56,,,,,,,,,,,,,,,1,1,7.26213429971,,,2018_Jun_08_1140,59.1420432906,verb_norming,001,900,
CLIMB,klättra,kliva,krypa,3,krypa,kliva,klättra,Arm,arm,0,38,38,12,0,0,0,0,,,,,,,,,4,15.571,,,,,,2018_Jun_08_1140,59.1420432906,verb_norming,001,900,
CLIMB,klättra,kliva,krypa,3,krypa,kliva,klättra,Leg,leg,0,38,38,12,0,1,1,1,,,,,,,,,4,4.941,,,,,,2018_Jun_08_1140,59.1420432906,verb_norming,001,900,
CLIMB,klättra,kliva,krypa,3,krypa,kliva,klättra,,,0,38,38,12,,,,,,,,,,,,,,,3,1,2.53290087658,,,2018_Jun_08_1140,59.1420432906,verb_norming,001,900,
POLISH,polera,sopa,tvätta,1,polera,tvätta,sopa,Arm,arm,0,39,39,52,0,0,0,0,,,,,,,,,7,4.77,,,,,,2018_Jun_08_1140,59.1420432906,verb_norming,001,900,
POLISH,polera,sopa,tvätta,1,polera,tvätta,sopa,Leg,leg,0,39,39,52,0,1,1,1,,,,,,,,,1,1.52,,,,,,2018_Jun_08_1140,59.1420432906,verb_norming,001,900,
POLISH,polera,sopa,tvätta,1,polera,tvätta,sopa,,,0,39,39,52,,,,,,,,,,,,,,,1,1,5.46764120893,,,2018_Jun_08_1140,59.1420432906,verb_norming,001,900,
WIPE,torka,putsa,gnugga,1,torka,gnugga,putsa,Arm,arm,0,40,40,109,0,0,0,0,,,,,,,,,7,7.003,,,,,,2018_Jun_08_1140,59.1420432906,verb_norming,001,900,
WIPE,torka,putsa,gnugga,1,torka,gnugga,putsa,Leg,leg,0,40,40,109,0,1,1,1,,,,,,,,,1,1.002,,,,,,2018_Jun_08_1140,59.1420432906,verb_norming,001,900,
WIPE,torka,putsa,gnugga,1,torka,gnugga,putsa,,,0,40,40,109,,,,,,,,,,,,,,,1,1,7.83238139114,,,2018_Jun_08_1140,59.1420432906,verb_norming,001,900,
SHAKE,skaka,röra,vispa,3,röra,vispa,skaka,Arm,arm,0,41,41,69,0,0,0,0,,,,,,,,,7,4.654,,,,,,2018_Jun_08_1140,59.1420432906,verb_norming,001,900,
SHAKE,skaka,röra,vispa,3,röra,vispa,skaka,Leg,leg,0,41,41,69,0,1,1,1,,,,,,,,,1,2.341,,,,,,2018_Jun_08_1140,59.1420432906,verb_norming,001,900,
SHAKE,skaka,röra,vispa,3,röra,vispa,skaka,,,0,41,41,69,,,,,,,,,,,,,,,3,1,2.9520720547,,,2018_Jun_08_1140,59.1420432906,verb_norming,001,900,
PUNCH,slå,knuffa,kasta,1,slå,knuffa,kasta,Arm,arm,0,42,42,55,0,0,0,0,,,,,,,,,7,12.604,,,,,,2018_Jun_08_1140,59.1420432906,verb_norming,001,900,
PUNCH,slå,knuffa,kasta,1,slå,knuffa,kasta,Leg,leg,0,42,42,55,0,1,1,1,,,,,,,,,1,1.471,,,,,,2018_Jun_08_1140,59.1420432906,verb_norming,001,900,
PUNCH,slå,knuffa,kasta,1,slå,knuffa,kasta,,,0,42,42,55,,,,,,,,,,,,,,,1,1,8.15113715475,,,2018_Jun_08_1140,59.1420432906,verb_norming,001,900,
CLUTCH,gripa tag i,sätta ihop,dra ut,2,sätta ihop,gripa tag i,dra ut,Arm,arm,0,43,43,13,0,0,0,0,,,,,,,,,4,27.177,,,,,,2018_Jun_08_1140,59.1420432906,verb_norming,001,900,
CLUTCH,gripa tag i,sätta ihop,dra ut,2,sätta ihop,gripa tag i,dra ut,Leg,leg,0,43,43,13,0,1,1,1,,,,,,,,,4,2.695,,,,,,2018_Jun_08_1140,59.1420432906,verb_norming,001,900,
CLUTCH,gripa tag i,sätta ihop,dra ut,2,sätta ihop,gripa tag i,dra ut,,,0,43,43,13,,,,,,,,,,,,,,,2,1,10.5995208944,,,2018_Jun_08_1140,59.1420432906,verb_norming,001,900,
PAT,klappa,slå,borsta,1,klappa,borsta,slå,Arm,arm,0,44,44,46,0,0,0,0,,,,,,,,,4,12.555,,,,,,2018_Jun_08_1140,59.1420432906,verb_norming,001,900,
PAT,klappa,slå,borsta,1,klappa,borsta,slå,Leg,leg,0,44,44,46,0,1,1,1,,,,,,,,,4,1.388,,,,,,2018_Jun_08_1140,59.1420432906,verb_norming,001,900,
PAT,klappa,slå,borsta,1,klappa,borsta,slå,,,0,44,44,46,,,,,,,,,,,,,,,1,1,6.90981348623,,,2018_Jun_08_1140,59.1420432906,verb_norming,001,900,
CLICK,klicka,klappa,klämma,3,klämma,klappa,klicka,Arm,arm,0,45,45,11,0,0,0,0,,,,,,,,,7,5.309,,,,,,2018_Jun_08_1140,59.1420432906,verb_norming,001,900,
CLICK,klicka,klappa,klämma,3,klämma,klappa,klicka,Leg,leg,0,45,45,11,0,1,1,1,,,,,,,,,1,1.421,,,,,,2018_Jun_08_1140,59.1420432906,verb_norming,001,900,
CLICK,klicka,klappa,klämma,3,klämma,klappa,klicka,,,0,45,45,11,,,,,,,,,,,,,,,3,1,3.77395468766,,,2018_Jun_08_1140,59.1420432906,verb_norming,001,900,
SKIM,skumma,vispa,sleva,1,skumma,sleva,vispa,Arm,arm,0,46,46,71,0,0,0,0,,,,,,,,,7,11.124,,,,,,2018_Jun_08_1140,59.1420432906,verb_norming,001,900,
SKIM,skumma,vispa,sleva,1,skumma,sleva,vispa,Leg,leg,0,46,46,71,0,1,1,1,,,,,,,,,1,2.225,,,,,,2018_Jun_08_1140,59.1420432906,verb_norming,001,900,
SKIM,skumma,vispa,sleva,1,skumma,sleva,vispa,,,0,46,46,71,,,,,,,,,,,,,,,1,1,8.36906975439,,,2018_Jun_08_1140,59.1420432906,verb_norming,001,900,
DELVE,gräva,plöja,rensa,3,plöja,rensa,gräva,Arm,arm,0,47,47,18,0,0,0,0,,,,,,,,,7,13.053,,,,,,2018_Jun_08_1140,59.1420432906,verb_norming,001,900,
DELVE,gräva,plöja,rensa,3,plöja,rensa,gräva,Leg,leg,0,47,47,18,0,1,1,1,,,,,,,,,1,1.084,,,,,,2018_Jun_08_1140,59.1420432906,verb_norming,001,900,
DELVE,gräva,plöja,rensa,3,plöja,rensa,gräva,,,0,47,47,18,,,,,,,,,,,,,,,1,0,13.6016434041,,,2018_Jun_08_1140,59.1420432906,verb_norming,001,900,
TUG,rycka,pressa,slå,3,pressa,slå,rycka,Arm,arm,0,48,48,102,0,0,0,0,,,,,,,,,7,17.097,,,,,,2018_Jun_08_1140,59.1420432906,verb_norming,001,900,
TUG,rycka,pressa,slå,3,pressa,slå,rycka,Leg,leg,0,48,48,102,0,1,1,1,,,,,,,,,1,1.774,,,,,,2018_Jun_08_1140,59.1420432906,verb_norming,001,900,
TUG,rycka,pressa,slå,3,pressa,slå,rycka,,,0,48,48,102,,,,,,,,,,,,,,,3,1,13.3499667716,,,2018_Jun_08_1140,59.1420432906,verb_norming,001,900,
STAGGER,ragla,lunka,halka,2,lunka,ragla,halka,Arm,arm,0,49,49,82,0,0,0,0,,,,,,,,,1,9.299,,,,,,2018_Jun_08_1140,59.1420432906,verb_norming,001,900,
STAGGER,ragla,lunka,halka,2,lunka,ragla,halka,Leg,leg,0,49,49,82,0,1,1,1,,,,,,,,,7,1.756,,,,,,2018_Jun_08_1140,59.1420432906,verb_norming,001,900,
STAGGER,ragla,lunka,halka,2,lunka,ragla,halka,,,0,49,49,82,,,,,,,,,,,,,,,2,1,17.7773628725,,,2018_Jun_08_1140,59.1420432906,verb_norming,001,900,
LIMP,halta,hasa,halka,1,halta,hasa,halka,Arm,arm,0,50,50,41,0,0,0,0,,,,,,,,,1,8.293,,,,,,2018_Jun_08_1140,59.1420432906,verb_norming,001,900,
LIMP,halta,hasa,halka,1,halta,hasa,halka,Leg,leg,0,50,50,41,0,1,1,1,,,,,,,,,7,1.621,,,,,,2018_Jun_08_1140,59.1420432906,verb_norming,001,900,
LIMP,halta,hasa,halka,1,halta,hasa,halka,,,0,50,50,41,,,,,,,,,,,,,,,1,1,32.1670591387,,,2018_Jun_08_1140,59.1420432906,verb_norming,001,900,
SWAY,vingla,tassa,ramla,3,ramla,tassa,vingla,Arm,arm,0,51,51,92,0,0,0,0,,,,,,,,,1,6.164,,,,,,2018_Jun_08_1140,59.1420432906,verb_norming,001,900,
SWAY,vingla,tassa,ramla,3,ramla,tassa,vingla,Leg,leg,0,51,51,92,0,1,1,1,,,,,,,,,7,1.606,,,,,,2018_Jun_08_1140,59.1420432906,verb_norming,001,900,
SWAY,vingla,tassa,ramla,3,ramla,tassa,vingla,,,0,51,51,92,,,,,,,,,,,,,,,3,1,10.1466736416,,,2018_Jun_08_1140,59.1420432906,verb_norming,001,900,
SCRAPE,skrapa,rispa,klösa,3,klösa,rispa,skrapa,Arm,arm,0,52,52,64,0,0,0,0,,,,,,,,,7,4.302,,,,,,2018_Jun_08_1140,59.1420432906,verb_norming,001,900,
SCRAPE,skrapa,rispa,klösa,3,klösa,rispa,skrapa,Leg,leg,0,52,52,64,0,1,1,1,,,,,,,,,1,1.672,,,,,,2018_Jun_08_1140,59.1420432906,verb_norming,001,900,
SCRAPE,skrapa,rispa,klösa,3,klösa,rispa,skrapa,,,0,52,52,64,,,,,,,,,,,,,,,3,1,19.6056114543,,,2018_Jun_08_1140,59.1420432906,verb_norming,001,900,
STEP,gå,klampa,traska,2,klampa,gå,traska,Arm,arm,0,53,53,84,0,0,0,0,,,,,,,,,1,4.923,,,,,,2018_Jun_08_1140,59.1420432906,verb_norming,001,900,
STEP,gå,klampa,traska,2,klampa,gå,traska,Leg,leg,0,53,53,84,0,1,1,1,,,,,,,,,7,3.836,,,,,,2018_Jun_08_1140,59.1420432906,verb_norming,001,900,
STEP,gå,klampa,traska,2,klampa,gå,traska,,,0,53,53,84,,,,,,,,,,,,,,,3,0,13.9371006959,,,2018_Jun_08_1140,59.1420432906,verb_norming,001,900,
CATCH,fånga,krama,omfamna,3,krama,omfamna,fånga,Arm,arm,0,54,54,6,0,0,0,0,,,,,,,,,7,4.319,,,,,,2018_Jun_08_1140,59.1420432906,verb_norming,001,900,
CATCH,fånga,krama,omfamna,3,krama,omfamna,fånga,Leg,leg,0,54,54,6,0,1,1,1,,,,,,,,,1,1.572,,,,,,2018_Jun_08_1140,59.1420432906,verb_norming,001,900,
CATCH,fånga,krama,omfamna,3,krama,omfamna,fånga,,,0,54,54,6,,,,,,,,,,,,,,,3,1,3.11981354155,,,2018_Jun_08_1140,59.1420432906,verb_norming,001,900,
KICK,sparka,knäa,tåa,3,tåa,knäa,sparka,Arm,arm,0,55,55,36,0,0,0,0,,,,,,,,,1,8.996,,,,,,2018_Jun_08_1140,59.1420432906,verb_norming,001,900,
KICK,sparka,knäa,tåa,3,tåa,knäa,sparka,Leg,leg,0,55,55,36,0,1,1,1,,,,,,,,,7,1.975,,,,,,2018_Jun_08_1140,59.1420432906,verb_norming,001,900,
KICK,sparka,knäa,tåa,3,tåa,knäa,sparka,,,0,55,55,36,,,,,,,,,,,,,,,3,1,3.84094136389,,,2018_Jun_08_1140,59.1420432906,verb_norming,001,900,
WALK,gå,promenera,marschera,2,promenera,gå,marschera,Arm,arm,0,56,56,105,0,0,0,0,,,,,,,,,1,6.097,,,,,,2018_Jun_08_1140,59.1420432906,verb_norming,001,900,
WALK,gå,promenera,marschera,2,promenera,gå,marschera,Leg,leg,0,56,56,105,0,1,1,1,,,,,,,,,7,2.243,,,,,,2018_Jun_08_1140,59.1420432906,verb_norming,001,900,
WALK,gå,promenera,marschera,2,promenera,gå,marschera,,,0,56,56,105,,,,,,,,,,,,,,,1,0,15.1612159152,,,2018_Jun_08_1140,59.1420432906,verb_norming,001,900,
LIFT,lyfta,pressa,öka,3,pressa,öka,lyfta,Arm,arm,0,57,57,40,0,0,0,0,,,,,,,,,7,6.936,,,,,,2018_Jun_08_1140,59.1420432906,verb_norming,001,900,
LIFT,lyfta,pressa,öka,3,pressa,öka,lyfta,Leg,leg,0,57,57,40,0,1,1,1,,,,,,,,,1,1.354,,,,,,2018_Jun_08_1140,59.1420432906,verb_norming,001,900,
LIFT,lyfta,pressa,öka,3,pressa,öka,lyfta,,,0,57,57,40,,,,,,,,,,,,,,,3,1,1.74436479984,,,2018_Jun_08_1140,59.1420432906,verb_norming,001,900,
KNOCK,knacka,krocka,klicka,1,knacka,klicka,krocka,Arm,arm,0,58,58,38,0,0,0,0,,,,,,,,,7,38.597,,,,,,2018_Jun_08_1140,59.1420432906,verb_norming,001,900,
KNOCK,knacka,krocka,klicka,1,knacka,klicka,krocka,Leg,leg,0,58,58,38,0,1,1,1,,,,,,,,,1,1.319,,,,,,2018_Jun_08_1140,59.1420432906,verb_norming,001,900,
KNOCK,knacka,krocka,klicka,1,knacka,klicka,krocka,,,0,58,58,38,,,,,,,,,,,,,,,1,1,4.47793253643,,,2018_Jun_08_1140,59.1420432906,verb_norming,001,900,
SPRINT,spurta,springa,löpa,2,löpa,spurta,springa,Arm,arm,0,59,59,79,0,0,0,0,,,,,,,,,1,3.933,,,,,,2018_Jun_08_1140,59.1420432906,verb_norming,001,900,
SPRINT,spurta,springa,löpa,2,löpa,spurta,springa,Leg,leg,0,59,59,79,0,1,1,1,,,,,,,,,7,1.688,,,,,,2018_Jun_08_1140,59.1420432906,verb_norming,001,900,
SPRINT,spurta,springa,löpa,2,löpa,spurta,springa,,,0,59,59,79,,,,,,,,,,,,,,,1,0,7.78237479287,,,2018_Jun_08_1140,59.1420432906,verb_norming,001,900,
CLEAN,rengöra,rensa,plocka,2,rensa,rengöra,plocka,Arm,arm,0,60,60,10,0,0,0,0,,,,,,,,,7,4.085,,,,,,2018_Jun_08_1140,59.1420432906,verb_norming,001,900,
CLEAN,rengöra,rensa,plocka,2,rensa,rengöra,plocka,Leg,leg,0,60,60,10,0,1,1,1,,,,,,,,,1,3.649,,,,,,2018_Jun_08_1140,59.1420432906,verb_norming,001,900,
CLEAN,rengöra,rensa,plocka,2,rensa,rengöra,plocka,,,0,60,60,10,,,,,,,,,,,,,,,2,1,3.43848633289,,,2018_Jun_08_1140,59.1420432906,verb_norming,001,900,
SNATCH,rycka till sig,knuffa ifrån sig,plocka åt sig,2,plocka åt sig,rycka till sig,knuffa ifrån sig,Arm,arm,0,61,61,77,0,0,0,0,,,,,,,,,7,5.325,,,,,,2018_Jun_08_1140,59.1420432906,verb_norming,001,900,
SNATCH,rycka till sig,knuffa ifrån sig,plocka åt sig,2,plocka åt sig,rycka till sig,knuffa ifrån sig,Leg,leg,0,61,61,77,0,1,1,1,,,,,,,,,1,2.024,,,,,,2018_Jun_08_1140,59.1420432906,verb_norming,001,900,
SNATCH,rycka till sig,knuffa ifrån sig,plocka åt sig,2,plocka åt sig,rycka till sig,knuffa ifrån sig,,,0,61,61,77,,,,,,,,,,,,,,,2,1,8.41942997259,,,2018_Jun_08_1140,59.1420432906,verb_norming,001,900,
PLOD,lunka,pulsa,vingla,3,vingla,pulsa,lunka,Arm,arm,0,62,62,49,0,0,0,0,,,,,,,,,1,9.716,,,,,,2018_Jun_08_1140,59.1420432906,verb_norming,001,900,
PLOD,lunka,pulsa,vingla,3,vingla,pulsa,lunka,Leg,leg,0,62,62,49,0,1,1,1,,,,,,,,,7,2.443,,,,,,2018_Jun_08_1140,59.1420432906,verb_norming,001,900,
PLOD,lunka,pulsa,vingla,3,vingla,pulsa,lunka,,,0,62,62,49,,,,,,,,,,,,,,,2,0,11.337626029,,,2018_Jun_08_1140,59.1420432906,verb_norming,001,900,
GLIDE,glida,hasa,snava,2,hasa,glida,snava,Arm,arm,0,63,63,25,0,0,0,0,,,,,,,,,1,6.399,,,,,,2018_Jun_08_1140,59.1420432906,verb_norming,001,900,
GLIDE,glida,hasa,snava,2,hasa,glida,snava,Leg,leg,0,63,63,25,0,1,1,1,,,,,,,,,7,1.656,,,,,,2018_Jun_08_1140,59.1420432906,verb_norming,001,900,
GLIDE,glida,hasa,snava,2,hasa,glida,snava,,,0,63,63,25,,,,,,,,,,,,,,,2,1,5.4676329117,,,2018_Jun_08_1140,59.1420432906,verb_norming,001,900,
STAB,sticka,hacka,skära,3,hacka,skära,sticka,Arm,arm,0,64,64,81,0,0,0,0,,,,,,,,,7,6.213,,,,,,2018_Jun_08_1140,59.1420432906,verb_norming,001,900,
STAB,sticka,hacka,skära,3,hacka,skära,sticka,Leg,leg,0,64,64,81,0,1,1,1,,,,,,,,,1,1.134,,,,,,2018_Jun_08_1140,59.1420432906,verb_norming,001,900,
STAB,sticka,hacka,skära,3,hacka,skära,sticka,,,0,64,64,81,,,,,,,,,,,,,,,3,1,12.1089686705,,,2018_Jun_08_1140,59.1420432906,verb_norming,001,900,
JUMP,hoppa,kliva,lyfta,3,kliva,lyfta,hoppa,Arm,arm,0,65,65,35,0,0,0,0,,,,,,,,,1,4.301,,,,,,2018_Jun_08_1140,59.1420432906,verb_norming,001,900,
JUMP,hoppa,kliva,lyfta,3,kliva,lyfta,hoppa,Leg,leg,0,65,65,35,0,1,1,1,,,,,,,,,7,1.804,,,,,,2018_Jun_08_1140,59.1420432906,verb_norming,001,900,
JUMP,hoppa,kliva,lyfta,3,kliva,lyfta,hoppa,,,0,65,65,35,,,,,,,,,,,,,,,3,1,4.21001664977,,,2018_Jun_08_1140,59.1420432906,verb_norming,001,900,
RUSH,rusa,springa,löpa,1,rusa,springa,löpa,Arm,arm,0,66,66,62,0,0,0,0,,,,,,,,,1,5.561,,,,,,2018_Jun_08_1140,59.1420432906,verb_norming,001,900,
RUSH,rusa,springa,löpa,1,rusa,springa,löpa,Leg,leg,0,66,66,62,0,1,1,1,,,,,,,,,7,2.713,,,,,,2018_Jun_08_1140,59.1420432906,verb_norming,001,900,
RUSH,rusa,springa,löpa,1,rusa,springa,löpa,,,0,66,66,62,,,,,,,,,,,,,,,1,1,4.0086085708,,,2018_Jun_08_1140,59.1420432906,verb_norming,001,900,
TIPTOE,gå på tå,snava,sparka,3,sparka,snava,gå på tå,Arm,arm,0,67,67,95,0,0,0,0,,,,,,,,,1,7.151,,,,,,2018_Jun_08_1140,59.1420432906,verb_norming,001,900,
TIPTOE,gå på tå,snava,sparka,3,sparka,snava,gå på tå,Leg,leg,0,67,67,95,0,1,1,1,,,,,,,,,7,2.04,,,,,,2018_Jun_08_1140,59.1420432906,verb_norming,001,900,
TIPTOE,gå på tå,snava,sparka,3,sparka,snava,gå på tå,,,0,67,67,95,,,,,,,,,,,,,,,3,1,2.70040964596,,,2018_Jun_08_1140,59.1420432906,verb_norming,001,900,
TREAD,trampa,stampa,klampa,3,stampa,klampa,trampa,Arm,arm,0,68,68,98,0,0,0,0,,,,,,,,,1,8.294,,,,,,2018_Jun_08_1140,59.1420432906,verb_norming,001,900,
TREAD,trampa,stampa,klampa,3,stampa,klampa,trampa,Leg,leg,0,68,68,98,0,1,1,1,,,,,,,,,7,2.292,,,,,,2018_Jun_08_1140,59.1420432906,verb_norming,001,900,
TREAD,trampa,stampa,klampa,3,stampa,klampa,trampa,,,0,68,68,98,,,,,,,,,,,,,,,3,1,15.6809159033,,,2018_Jun_08_1140,59.1420432906,verb_norming,001,900,
STAMP,stampa,kliva,skutta,2,skutta,stampa,kliva,Arm,arm,0,69,69,83,0,0,0,0,,,,,,,,,1,4.418,,,,,,2018_Jun_08_1140,59.1420432906,verb_norming,001,900,
STAMP,stampa,kliva,skutta,2,skutta,stampa,kliva,Leg,leg,0,69,69,83,0,1,1,1,,,,,,,,,7,2.66,,,,,,2018_Jun_08_1140,59.1420432906,verb_norming,001,900,
STAMP,stampa,kliva,skutta,2,skutta,stampa,kliva,,,0,69,69,83,,,,,,,,,,,,,,,2,1,17.3414826592,,,2018_Jun_08_1140,59.1420432906,verb_norming,001,900,
CLAW,klösa,nypa,rispa,3,nypa,rispa,klösa,Arm,arm,0,70,70,9,0,0,0,0,,,,,,,,,1,15.523,,,,,,2018_Jun_08_1140,59.1420432906,verb_norming,001,900,
CLAW,klösa,nypa,rispa,3,nypa,rispa,klösa,Leg,leg,0,70,70,9,0,1,1,1,,,,,,,,,7,2.058,,,,,,2018_Jun_08_1140,59.1420432906,verb_norming,001,900,
CLAW,klösa,nypa,rispa,3,nypa,rispa,klösa,,,0,70,70,9,,,,,,,,,,,,,,,3,1,10.733733286,,,2018_Jun_08_1140,59.1420432906,verb_norming,001,900,
GRATE,riva,hugga,rispa,3,rispa,hugga,riva,Arm,arm,0,71,71,28,0,0,0,0,,,,,,,,,7,6.852,,,,,,2018_Jun_08_1140,59.1420432906,verb_norming,001,900,
GRATE,riva,hugga,rispa,3,rispa,hugga,riva,Leg,leg,0,71,71,28,0,1,1,1,,,,,,,,,1,1.504,,,,,,2018_Jun_08_1140,59.1420432906,verb_norming,001,900,
GRATE,riva,hugga,rispa,3,rispa,hugga,riva,,,0,71,71,28,,,,,,,,,,,,,,,1,0,11.3877879039,,,2018_Jun_08_1140,59.1420432906,verb_norming,001,900,
ROLL,vingla,snubbla,svassa,3,snubbla,svassa,vingla,Arm,arm,0,72,72,59,0,0,0,0,,,,,,,,,4,33.667,,,,,,2018_Jun_08_1140,59.1420432906,verb_norming,001,900,
ROLL,vingla,snubbla,svassa,3,snubbla,svassa,vingla,Leg,leg,0,72,72,59,0,1,1,1,,,,,,,,,4,2.879,,,,,,2018_Jun_08_1140,59.1420432906,verb_norming,001,900,
ROLL,vingla,snubbla,svassa,3,snubbla,svassa,vingla,,,0,72,72,59,,,,,,,,,,,,,,,2,0,54.80758493,,,2018_Jun_08_1140,59.1420432906,verb_norming,001,900,
CREEP,krypa,knäböja,klättra,1,krypa,knäböja,klättra,Arm,arm,0,73,73,15,0,0,0,0,,,,,,,,,1,7.824,,,,,,2018_Jun_08_1140,59.1420432906,verb_norming,001,900,
CREEP,krypa,knäböja,klättra,1,krypa,knäböja,klättra,Leg,leg,0,73,73,15,0,1,1,1,,,,,,,,,4,10.779,,,,,,2018_Jun_08_1140,59.1420432906,verb_norming,001,900,
CREEP,krypa,knäböja,klättra,1,krypa,knäböja,klättra,,,0,73,73,15,,,,,,,,,,,,,,,1,1,3.47202412044,,,2018_Jun_08_1140,59.1420432906,verb_norming,001,900,
CARVE,tälja,hacka,riva,3,hacka,riva,tälja,Arm,arm,0,74,74,5,0,0,0,0,,,,,,,,,7,6.447,,,,,,2018_Jun_08_1140,59.1420432906,verb_norming,001,900,
CARVE,tälja,hacka,riva,3,hacka,riva,tälja,Leg,leg,0,74,74,5,0,1,1,1,,,,,,,,,1,1.872,,,,,,2018_Jun_08_1140,59.1420432906,verb_norming,001,900,
CARVE,tälja,hacka,riva,3,hacka,riva,tälja,,,0,74,74,5,,,,,,,,,,,,,,,3,1,14.8426375542,,,2018_Jun_08_1140,59.1420432906,verb_norming,001,900,
PACE,gå fram och tillbaka,luffa runt,rusa fram,2,rusa fram,gå fram och tillbaka,luffa runt,Arm,arm,0,75,75,45,0,0,0,0,,,,,,,,,1,13.997,,,,,,2018_Jun_08_1140,59.1420432906,verb_norming,001,900,
PACE,gå fram och tillbaka,luffa runt,rusa fram,2,rusa fram,gå fram och tillbaka,luffa runt,Leg,leg,0,75,75,45,0,1,1,1,,,,,,,,,7,1.455,,,,,,2018_Jun_08_1140,59.1420432906,verb_norming,001,900,
PACE,gå fram och tillbaka,luffa runt,rusa fram,2,rusa fram,gå fram och tillbaka,luffa runt,,,0,75,75,45,,,,,,,,,,,,,,,3,0,14.6914664203,,,2018_Jun_08_1140,59.1420432906,verb_norming,001,900,
TROT,trava,promenera,flanera,3,promenera,flanera,trava,Arm,arm,0,76,76,100,0,0,0,0,,,,,,,,,1,5.274,,,,,,2018_Jun_08_1140,59.1420432906,verb_norming,001,900,
TROT,trava,promenera,flanera,3,promenera,flanera,trava,Leg,leg,0,76,76,100,0,1,1,1,,,,,,,,,7,2.443,,,,,,2018_Jun_08_1140,59.1420432906,verb_norming,001,900,
TROT,trava,promenera,flanera,3,promenera,flanera,trava,,,0,76,76,100,,,,,,,,,,,,,,,2,0,5.09871606335,,,2018_Jun_08_1140,59.1420432906,verb_norming,001,900,
BASH,slå,knuffa,trycka,2,trycka,slå,knuffa,Arm,arm,0,77,77,0,0,0,0,0,,,,,,,,,7,11.228,,,,,,2018_Jun_08_1140,59.1420432906,verb_norming,001,900,
BASH,slå,knuffa,trycka,2,trycka,slå,knuffa,Leg,leg,0,77,77,0,0,1,1,1,,,,,,,,,1,2.326,,,,,,2018_Jun_08_1140,59.1420432906,verb_norming,001,900,
BASH,slå,knuffa,trycka,2,trycka,slå,knuffa,,,0,77,77,0,,,,,,,,,,,,,,,3,0,11.2869690861,,,2018_Jun_08_1140,59.1420432906,verb_norming,001,900,
FILE,fila,putsa,riva,2,riva,fila,putsa,Arm,arm,0,78,78,21,0,0,0,0,,,,,,,,,7,18.994,,,,,,2018_Jun_08_1140,59.1420432906,verb_norming,001,900,
FILE,fila,putsa,riva,2,riva,fila,putsa,Leg,leg,0,78,78,21,0,1,1,1,,,,,,,,,1,1.035,,,,,,2018_Jun_08_1140,59.1420432906,verb_norming,001,900,
FILE,fila,putsa,riva,2,riva,fila,putsa,,,0,78,78,21,,,,,,,,,,,,,,,2,1,6.25586199103,,,2018_Jun_08_1140,59.1420432906,verb_norming,001,900,
TRAIPSE,traska,stappla,vandra,1,traska,vandra,stappla,Arm,arm,0,79,79,97,0,0,0,0,,,,,,,,,1,10.456,,,,,,2018_Jun_08_1140,59.1420432906,verb_norming,001,900,
TRAIPSE,traska,stappla,vandra,1,traska,vandra,stappla,Leg,leg,0,79,79,97,0,1,1,1,,,,,,,,,7,1.537,,,,,,2018_Jun_08_1140,59.1420432906,verb_norming,001,900,
TRAIPSE,traska,stappla,vandra,1,traska,vandra,stappla,,,0,79,79,97,,,,,,,,,,,,,,,1,1,18.4651433484,,,2018_Jun_08_1140,59.1420432906,verb_norming,001,900,
SKIP,hoppa,kliva,strutta,3,strutta,kliva,hoppa,Arm,arm,0,80,80,72,0,0,0,0,,,,,,,,,4,41.534,,,,,,2018_Jun_08_1140,59.1420432906,verb_norming,001,900,
SKIP,hoppa,kliva,strutta,3,strutta,kliva,hoppa,Leg,leg,0,80,80,72,0,1,1,1,,,,,,,,,4,2.763,,,,,,2018_Jun_08_1140,59.1420432906,verb_norming,001,900,
SKIP,hoppa,kliva,strutta,3,strutta,kliva,hoppa,,,0,80,80,72,,,,,,,,,,,,,,,1,0,13.0313552217,,,2018_Jun_08_1140,59.1420432906,verb_norming,001,900,
DANCE,dansa,snurra,svänga,2,svänga,dansa,snurra,Arm,arm,0,81,81,17,0,0,0,0,,,,,,,,,4,6.114,,,,,,2018_Jun_08_1140,59.1420432906,verb_norming,001,900,
DANCE,dansa,snurra,svänga,2,svänga,dansa,snurra,Leg,leg,0,81,81,17,0,1,1,1,,,,,,,,,4,6.033,,,,,,2018_Jun_08_1140,59.1420432906,verb_norming,001,900,
DANCE,dansa,snurra,svänga,2,svänga,dansa,snurra,,,0,81,81,17,,,,,,,,,,,,,,,2,1,3.89121386854,,,2018_Jun_08_1140,59.1420432906,verb_norming,001,900,
PINCH,nypa,plocka,pensla,3,plocka,pensla,nypa,Arm,arm,0,82,82,48,0,0,0,0,,,,,,,,,7,6.03,,,,,,2018_Jun_08_1140,59.1420432906,verb_norming,001,900,
PINCH,nypa,plocka,pensla,3,plocka,pensla,nypa,Leg,leg,0,82,82,48,0,1,1,1,,,,,,,,,1,1.22,,,,,,2018_Jun_08_1140,59.1420432906,verb_norming,001,900,
PINCH,nypa,plocka,pensla,3,plocka,pensla,nypa,,,0,82,82,48,,,,,,,,,,,,,,,3,1,7.11121958967,,,2018_Jun_08_1140,59.1420432906,verb_norming,001,900,
HIKE,vandra,flanera,lunka,2,flanera,vandra,lunka,Arm,arm,0,83,83,31,0,0,0,0,,,,,,,,,4,22.616,,,,,,2018_Jun_08_1140,59.1420432906,verb_norming,001,900,
HIKE,vandra,flanera,lunka,2,flanera,vandra,lunka,Leg,leg,0,83,83,31,0,1,1,1,,,,,,,,,4,0.767,,,,,,2018_Jun_08_1140,59.1420432906,verb_norming,001,900,
HIKE,vandra,flanera,lunka,2,flanera,vandra,lunka,,,0,83,83,31,,,,,,,,,,,,,,,2,1,39.9651488799,,,2018_Jun_08_1140,59.1420432906,verb_norming,001,900,
SCOOP,skyffla,dika,skrapa,1,skyffla,dika,skrapa,Arm,arm,0,84,84,63,0,0,0,0,,,,,,,,,7,10.355,,,,,,2018_Jun_08_1140,59.1420432906,verb_norming,001,900,
SCOOP,skyffla,dika,skrapa,1,skyffla,dika,skrapa,Leg,leg,0,84,84,63,0,1,1,1,,,,,,,,,1,0.999,,,,,,2018_Jun_08_1140,59.1420432906,verb_norming,001,900,
SCOOP,skyffla,dika,skrapa,1,skyffla,dika,skrapa,,,0,84,84,63,,,,,,,,,,,,,,,1,1,10.0796984234,,,2018_Jun_08_1140,59.1420432906,verb_norming,001,900,
HACK,hacka,skära,kåpa,3,skära,kåpa,hacka,Arm,arm,0,85,85,30,0,0,0,0,,,,,,,,,7,15.17,,,,,,2018_Jun_08_1140,59.1420432906,verb_norming,001,900,
HACK,hacka,skära,kåpa,3,skära,kåpa,hacka,Leg,leg,0,85,85,30,0,1,1,1,,,,,,,,,1,1.287,,,,,,2018_Jun_08_1140,59.1420432906,verb_norming,001,900,
HACK,hacka,skära,kåpa,3,skära,kåpa,hacka,,,0,85,85,30,,,,,,,,,,,,,,,3,1,16.4851602116,,,2018_Jun_08_1140,59.1420432906,verb_norming,001,900,
GRAB,gripa tag i,fästa ihop,smälla till,2,fästa ihop,gripa tag i,smälla till,Arm,arm,0,86,86,26,0,0,0,0,,,,,,,,,7,4.284,,,,,,2018_Jun_08_1140,59.1420432906,verb_norming,001,900,
GRAB,gripa tag i,fästa ihop,smälla till,2,fästa ihop,gripa tag i,smälla till,Leg,leg,0,86,86,26,0,1,1,1,,,,,,,,,1,1.151,,,,,,2018_Jun_08_1140,59.1420432906,verb_norming,001,900,
GRAB,gripa tag i,fästa ihop,smälla till,2,fästa ihop,gripa tag i,smälla till,,,0,86,86,26,,,,,,,,,,,,,,,2,1,4.39439723805,,,2018_Jun_08_1140,59.1420432906,verb_norming,001,900,
STROLL,strosa,trava,marschera,1,strosa,trava,marschera,Arm,arm,0,87,87,89,0,0,0,0,,,,,,,,,1,5.743,,,,,,2018_Jun_08_1140,59.1420432906,verb_norming,001,900,
STROLL,strosa,trava,marschera,1,strosa,trava,marschera,Leg,leg,0,87,87,89,0,1,1,1,,,,,,,,,7,2.174,,,,,,2018_Jun_08_1140,59.1420432906,verb_norming,001,900,
STROLL,strosa,trava,marschera,1,strosa,trava,marschera,,,0,87,87,89,,,,,,,,,,,,,,,1,1,5.63540837767,,,2018_Jun_08_1140,59.1420432906,verb_norming,001,900,
SKATE,åka skridskor,åka skidor,åka kälke,3,åka skidor,åka kälke,åka skridskor,Arm,arm,0,88,88,70,0,0,0,0,,,,,,,,,1,7.656,,,,,,2018_Jun_08_1140,59.1420432906,verb_norming,001,900,
SKATE,åka skridskor,åka skidor,åka kälke,3,åka skidor,åka kälke,åka skridskor,Leg,leg,0,88,88,70,0,1,1,1,,,,,,,,,7,1.354,,,,,,2018_Jun_08_1140,59.1420432906,verb_norming,001,900,
SKATE,åka skridskor,åka skidor,åka kälke,3,åka skidor,åka kälke,åka skridskor,,,0,88,88,70,,,,,,,,,,,,,,,3,1,13.7022460989,,,2018_Jun_08_1140,59.1420432906,verb_norming,001,900,
STIR,röra,sleva,vispa,2,sleva,röra,vispa,Arm,arm,0,89,89,85,0,0,0,0,,,,,,,,,7,7.087,,,,,,2018_Jun_08_1140,59.1420432906,verb_norming,001,900,
STIR,röra,sleva,vispa,2,sleva,röra,vispa,Leg,leg,0,89,89,85,0,1,1,1,,,,,,,,,1,1.237,,,,,,2018_Jun_08_1140,59.1420432906,verb_norming,001,900,
STIR,röra,sleva,vispa,2,sleva,röra,vispa,,,0,89,89,85,,,,,,,,,,,,,,,3,0,10.9852056488,,,2018_Jun_08_1140,59.1420432906,verb_norming,001,900,
TRIP,snubbla,stampa,stappla,3,stappla,stampa,snubbla,Arm,arm,0,90,90,99,0,0,0,0,,,,,,,,,1,3.23,,,,,,2018_Jun_08_1140,59.1420432906,verb_norming,001,900,
TRIP,snubbla,stampa,stappla,3,stappla,stampa,snubbla,Leg,leg,0,90,90,99,0,1,1,1,,,,,,,,,7,2.025,,,,,,2018_Jun_08_1140,59.1420432906,verb_norming,001,900,
TRIP,snubbla,stampa,stappla,3,stappla,stampa,snubbla,,,0,90,90,99,,,,,,,,,,,,,,,1,0,17.3412961691,,,2018_Jun_08_1140,59.1420432906,verb_norming,001,900,
RAMBLE,ströva,strutta,spurta,2,spurta,ströva,strutta,Arm,arm,0,91,91,57,0,0,0,0,,,,,,,,,1,8.375,,,,,,2018_Jun_08_1140,59.1420432906,verb_norming,001,900,
RAMBLE,ströva,strutta,spurta,2,spurta,ströva,strutta,Leg,leg,0,91,91,57,0,1,1,1,,,,,,,,,7,1.586,,,,,,2018_Jun_08_1140,59.1420432906,verb_norming,001,900,
RAMBLE,ströva,strutta,spurta,2,spurta,ströva,strutta,,,0,91,91,57,,,,,,,,,,,,,,,2,1,26.0790243725,,,2018_Jun_08_1140,59.1420432906,verb_norming,001,900,
TRUDGE,släpa sig fram,kasta sig fram,ta sig fram,2,ta sig fram,släpa sig fram,kasta sig fram,Arm,arm,0,92,92,101,0,0,0,0,,,,,,,,,1,6.632,,,,,,2018_Jun_08_1140,59.1420432906,verb_norming,001,900,
TRUDGE,släpa sig fram,kasta sig fram,ta sig fram,2,ta sig fram,släpa sig fram,kasta sig fram,Leg,leg,0,92,92,101,0,1,1,1,,,,,,,,,7,1.404,,,,,,2018_Jun_08_1140,59.1420432906,verb_norming,001,900,
TRUDGE,släpa sig fram,kasta sig fram,ta sig fram,2,ta sig fram,släpa sig fram,kasta sig fram,,,0,92,92,101,,,,,,,,,,,,,,,2,1,13.3847933951,,,2018_Jun_08_1140,59.1420432906,verb_norming,001,900,
SNEAK,smyga,hasa,glida,1,smyga,hasa,glida,Arm,arm,0,93,93,78,0,0,0,0,,,,,,,,,1,8.026,,,,,,2018_Jun_08_1140,59.1420432906,verb_norming,001,900,
SNEAK,smyga,hasa,glida,1,smyga,hasa,glida,Leg,leg,0,93,93,78,0,1,1,1,,,,,,,,,7,1.604,,,,,,2018_Jun_08_1140,59.1420432906,verb_norming,001,900,
SNEAK,smyga,hasa,glida,1,smyga,hasa,glida,,,0,93,93,78,,,,,,,,,,,,,,,1,1,8.70450215451,,,2018_Jun_08_1140,59.1420432906,verb_norming,001,900,
CLAP,klappa,knäppa,klämma,1,klappa,knäppa,klämma,Arm,arm,0,94,94,8,0,0,0,0,,,,,,,,,7,14.349,,,,,,2018_Jun_08_1140,59.1420432906,verb_norming,001,900,
CLAP,klappa,knäppa,klämma,1,klappa,knäppa,klämma,Leg,leg,0,94,94,8,0,1,1,1,,,,,,,,,1,1.186,,,,,,2018_Jun_08_1140,59.1420432906,verb_norming,001,900,
CLAP,klappa,knäppa,klämma,1,klappa,knäppa,klämma,,,0,94,94,8,,,,,,,,,,,,,,,1,1,2.49917896961,,,2018_Jun_08_1140,59.1420432906,verb_norming,001,900,
TWINE,tvinna,binda,knyta,3,knyta,binda,tvinna,Arm,arm,0,95,95,103,0,0,0,0,,,,,,,,,7,7.355,,,,,,2018_Jun_08_1140,59.1420432906,verb_norming,001,900,
TWINE,tvinna,binda,knyta,3,knyta,binda,tvinna,Leg,leg,0,95,95,103,0,1,1,1,,,,,,,,,1,1.605,,,,,,2018_Jun_08_1140,59.1420432906,verb_norming,001,900,
TWINE,tvinna,binda,knyta,3,knyta,binda,tvinna,,,0,95,95,103,,,,,,,,,,,,,,,3,1,3.15321620283,,,2018_Jun_08_1140,59.1420432906,verb_norming,001,900,
SCRATCH,repa,riva,klösa,3,riva,klösa,repa,Arm,arm,0,96,96,65,0,0,0,0,,,,,,,,,7,9.383,,,,,,2018_Jun_08_1140,59.1420432906,verb_norming,001,900,
SCRATCH,repa,riva,klösa,3,riva,klösa,repa,Leg,leg,0,96,96,65,0,1,1,1,,,,,,,,,1,1.051,,,,,,2018_Jun_08_1140,59.1420432906,verb_norming,001,900,
SCRATCH,repa,riva,klösa,3,riva,klösa,repa,,,0,96,96,65,,,,,,,,,,,,,,,3,1,17.0396773406,,,2018_Jun_08_1140,59.1420432906,verb_norming,001,900,
WOBBLE,vingla,ramla,glida,2,ramla,vingla,glida,Arm,arm,0,97,97,110,0,0,0,0,,,,,,,,,1,20.803,,,,,,2018_Jun_08_1140,59.1420432906,verb_norming,001,900,
WOBBLE,vingla,ramla,glida,2,ramla,vingla,glida,Leg,leg,0,97,97,110,0,1,1,1,,,,,,,,,7,2.391,,,,,,2018_Jun_08_1140,59.1420432906,verb_norming,001,900,
WOBBLE,vingla,ramla,glida,2,ramla,vingla,glida,,,0,97,97,110,,,,,,,,,,,,,,,2,1,2.38197589379,,,2018_Jun_08_1140,59.1420432906,verb_norming,001,900,
KNEEL,knäböja,krypa,kräla,1,knäböja,kräla,krypa,Arm,arm,0,98,98,37,0,0,0,0,,,,,,,,,7,8.495,,,,,,2018_Jun_08_1140,59.1420432906,verb_norming,001,900,
KNEEL,knäböja,krypa,kräla,1,knäböja,kräla,krypa,Leg,leg,0,98,98,37,0,1,1,1,,,,,,,,,1,2.427,,,,,,2018_Jun_08_1140,59.1420432906,verb_norming,001,900,
KNEEL,knäböja,krypa,kräla,1,knäböja,kräla,krypa,,,0,98,98,37,,,,,,,,,,,,,,,2,0,19.8908452346,,,2018_Jun_08_1140,59.1420432906,verb_norming,001,900,
FLEE,fly,lyfta,flyga,3,flyga,lyfta,fly,Arm,arm,0,99,99,22,0,0,0,0,,,,,,,,,1,18.709,,,,,,2018_Jun_08_1140,59.1420432906,verb_norming,001,900,
FLEE,fly,lyfta,flyga,3,flyga,lyfta,fly,Leg,leg,0,99,99,22,0,1,1,1,,,,,,,,,7,1.035,,,,,,2018_Jun_08_1140,59.1420432906,verb_norming,001,900,
FLEE,fly,lyfta,flyga,3,flyga,lyfta,fly,,,0,99,99,22,,,,,,,,,,,,,,,3,1,10.0124889074,,,2018_Jun_08_1140,59.1420432906,verb_norming,001,900,
PULL,dra,slänga,släpa,3,slänga,släpa,dra,Arm,arm,0,100,100,54,0,0,0,0,,,,,,,,,7,4.806,,,,,,2018_Jun_08_1140,59.1420432906,verb_norming,001,900,
PULL,dra,slänga,släpa,3,slänga,släpa,dra,Leg,leg,0,100,100,54,0,1,1,1,,,,,,,,,1,2.193,,,,,,2018_Jun_08_1140,59.1420432906,verb_norming,001,900,
PULL,dra,slänga,släpa,3,slänga,släpa,dra,,,0,100,100,54,,,,,,,,,,,,,,,3,1,5.09775990669,,,2018_Jun_08_1140,59.1420432906,verb_norming,001,900,
STOMP,stampa,stiga,kliva,3,kliva,stiga,stampa,Arm,arm,0,101,101,86,0,0,0,0,,,,,,,,,1,4.536,,,,,,2018_Jun_08_1140,59.1420432906,verb_norming,001,900,
STOMP,stampa,stiga,kliva,3,kliva,stiga,stampa,Leg,leg,0,101,101,86,0,1,1,1,,,,,,,,,7,1.772,,,,,,2018_Jun_08_1140,59.1420432906,verb_norming,001,900,
STOMP,stampa,stiga,kliva,3,kliva,stiga,stampa,,,0,101,101,86,,,,,,,,,,,,,,,3,1,23.9994899181,,,2018_Jun_08_1140,59.1420432906,verb_norming,001,900,
WHIP,piska,klappa,slå,1,piska,slå,klappa,Arm,arm,0,102,102,108,0,0,0,0,,,,,,,,,7,6.198,,,,,,2018_Jun_08_1140,59.1420432906,verb_norming,001,900,
WHIP,piska,klappa,slå,1,piska,slå,klappa,Leg,leg,0,102,102,108,0,1,1,1,,,,,,,,,1,1.134,,,,,,2018_Jun_08_1140,59.1420432906,verb_norming,001,900,
WHIP,piska,klappa,slå,1,piska,slå,klappa,,,0,102,102,108,,,,,,,,,,,,,,,1,1,6.4569045969,,,2018_Jun_08_1140,59.1420432906,verb_norming,001,900,
NIP,nypa,peta,nudda,3,nudda,peta,nypa,Arm,arm,0,103,103,44,0,0,0,0,,,,,,,,,7,4.689,,,,,,2018_Jun_08_1140,59.1420432906,verb_norming,001,900,
NIP,nypa,peta,nudda,3,nudda,peta,nypa,Leg,leg,0,103,103,44,0,1,1,1,,,,,,,,,1,1.439,,,,,,2018_Jun_08_1140,59.1420432906,verb_norming,001,900,
NIP,nypa,peta,nudda,3,nudda,peta,nypa,,,0,103,103,44,,,,,,,,,,,,,,,1,0,12.6959157097,,,2018_Jun_08_1140,59.1420432906,verb_norming,001,900,
FLIT,rusa,hasa,svassa,3,svassa,hasa,rusa,Arm,arm,0,104,104,23,0,0,0,0,,,,,,,,,7,16.747,,,,,,2018_Jun_08_1140,59.1420432906,verb_norming,001,900,
FLIT,rusa,hasa,svassa,3,svassa,hasa,rusa,Leg,leg,0,104,104,23,0,1,1,1,,,,,,,,,1,0.901,,,,,,2018_Jun_08_1140,59.1420432906,verb_norming,001,900,
FLIT,rusa,hasa,svassa,3,svassa,hasa,rusa,,,0,104,104,23,,,,,,,,,,,,,,,2,0,9.12367570327,,,2018_Jun_08_1140,59.1420432906,verb_norming,001,900,
HOP,skutta,kliva,studsa,3,kliva,studsa,skutta,Arm,arm,0,105,105,32,0,0,0,0,,,,,,,,,1,6.734,,,,,,2018_Jun_08_1140,59.1420432906,verb_norming,001,900,
HOP,skutta,kliva,studsa,3,kliva,studsa,skutta,Leg,leg,0,105,105,32,0,1,1,1,,,,,,,,,7,1.604,,,,,,2018_Jun_08_1140,59.1420432906,verb_norming,001,900,
HOP,skutta,kliva,studsa,3,kliva,studsa,skutta,,,0,105,105,32,,,,,,,,,,,,,,,3,1,9.19060706465,,,2018_Jun_08_1140,59.1420432906,verb_norming,001,900,
SLITHER,hasa,glida,trilla,2,trilla,hasa,glida,Arm,arm,0,106,106,76,0,0,0,0,,,,,,,,,1,11.194,,,,,,2018_Jun_08_1140,59.1420432906,verb_norming,001,900,
SLITHER,hasa,glida,trilla,2,trilla,hasa,glida,Leg,leg,0,106,106,76,0,1,1,1,,,,,,,,,7,5.142,,,,,,2018_Jun_08_1140,59.1420432906,verb_norming,001,900,
SLITHER,hasa,glida,trilla,2,trilla,hasa,glida,,,0,106,106,76,,,,,,,,,,,,,,,2,1,11.471597801,,,2018_Jun_08_1140,59.1420432906,verb_norming,001,900,
WASH,tvätta,skura,sopa,1,tvätta,sopa,skura,Arm,arm,0,107,107,107,0,0,0,0,,,,,,,,,7,3.967,,,,,,2018_Jun_08_1140,59.1420432906,verb_norming,001,900,
WASH,tvätta,skura,sopa,1,tvätta,sopa,skura,Leg,leg,0,107,107,107,0,1,1,1,,,,,,,,,1,1.438,,,,,,2018_Jun_08_1140,59.1420432906,verb_norming,001,900,
WASH,tvätta,skura,sopa,1,tvätta,sopa,skura,,,0,107,107,107,,,,,,,,,,,,,,,1,1,8.67087072683,,,2018_Jun_08_1140,59.1420432906,verb_norming,001,900,
SLAP,smälla till,knäppa fast,klämma åt,2,klämma åt,smälla till,knäppa fast,Arm,arm,0,108,108,73,0,0,0,0,,,,,,,,,1,27.798,,,,,,2018_Jun_08_1140,59.1420432906,verb_norming,001,900,
SLAP,smälla till,knäppa fast,klämma åt,2,klämma åt,smälla till,knäppa fast,Leg,leg,0,108,108,73,0,1,1,1,,,,,,,,,7,1.153,,,,,,2018_Jun_08_1140,59.1420432906,verb_norming,001,900,
SLAP,smälla till,knäppa fast,klämma åt,2,klämma åt,smälla till,knäppa fast,,,0,108,108,73,,,,,,,,,,,,,,,3,0,18.4484354985,,,2018_Jun_08_1140,59.1420432906,verb_norming,001,900,
TOSS,slänga,fånga,gripa,2,fånga,slänga,gripa,Arm,arm,0,109,109,96,0,0,0,0,,,,,,,,,4,25.383,,,,,,2018_Jun_08_1140,59.1420432906,verb_norming,001,900,
TOSS,slänga,fånga,gripa,2,fånga,slänga,gripa,Leg,leg,0,109,109,96,0,1,1,1,,,,,,,,,4,2.141,,,,,,2018_Jun_08_1140,59.1420432906,verb_norming,001,900,
TOSS,slänga,fånga,gripa,2,fånga,slänga,gripa,,,0,109,109,96,,,,,,,,,,,,,,,3,0,17.3247111972,,,2018_Jun_08_1140,59.1420432906,verb_norming,001,900,
POKE,peta,trycka,knuffa,2,knuffa,peta,trycka,Arm,arm,0,110,110,51,0,0,0,0,,,,,,,,,7,17.03,,,,,,2018_Jun_08_1140,59.1420432906,verb_norming,001,900,
POKE,peta,trycka,knuffa,2,knuffa,peta,trycka,Leg,leg,0,110,110,51,0,1,1,1,,,,,,,,,1,0.848,,,,,,2018_Jun_08_1140,59.1420432906,verb_norming,001,900,
POKE,peta,trycka,knuffa,2,knuffa,peta,trycka,,,0,110,110,51,,,,,,,,,,,,,,,1,0,11.0691178783,,,2018_Jun_08_1140,59.1420432906,verb_norming,001,900,
FOLD,vika ihop,knyta ihop,bunta ihop,1,vika ihop,knyta ihop,bunta ihop,Arm,arm,0,111,111,24,0,0,0,0,,,,,,,,,7,8.795,,,,,,2018_Jun_08_1140,59.1420432906,verb_norming,001,900,
FOLD,vika ihop,knyta ihop,bunta ihop,1,vika ihop,knyta ihop,bunta ihop,Leg,leg,0,111,111,24,0,1,1,1,,,,,,,,,1,0.916,,,,,,2018_Jun_08_1140,59.1420432906,verb_norming,001,900,
FOLD,vika ihop,knyta ihop,bunta ihop,1,vika ihop,knyta ihop,bunta ihop,,,0,111,111,24,,,,,,,,,,,,,,,1,1,4.81343724096,,,2018_Jun_08_1140,59.1420432906,verb_norming,001,900,
,,,,,,,,,,,,,,,,,,,,,,,,,,,,,,,space,249.433425814,2018_Jun_08_1140,59.1420432906,verb_norming,001,900,
