item,type,word1,word2,word3,word4,word_duration,follow_blank,SOA,training_block.thisRepN,training_block.thisTrialN,training_block.thisN,training_block.thisIndex,word_presentation_training.thisRepN,word_presentation_training.thisTrialN,word_presentation_training.thisN,word_presentation_training.thisIndex,experimental_blocks.thisRepN,experimental_blocks.thisTrialN,experimental_blocks.thisN,experimental_blocks.thisIndex,word_presentation.thisRepN,word_presentation.thisTrialN,word_presentation.thisN,word_presentation.thisIndex,key_resp_6.keys,key_resp_6.rt,key_resp_2.keys,key_resp_2.rt,key_resp_8.keys,key_resp_8.rt,key_resp_7.keys,key_resp_7.rt,key_resp_3.keys,key_resp_3.rt,date,frameRate,expName,session,participant,
,,,,,,,,,,,,,,,,,,,,,,,,,space,4.10932070996,,,,,,,,,2018_Jun_08_1450,59.1710794241,sheb_replic_pilot_control,001,901,
4,training,save,look,stay,print,,,,0,0,0,0,0,0,0,3,,,,,,,,,,,space,8.21814753734,,,,,,,2018_Jun_08_1450,59.1710794241,sheb_replic_pilot_control,001,901,
1,training,wait,bless,blush,sigh,,,,0,0,0,0,0,1,1,0,,,,,,,,,,,space,3.3041854375,,,,,,,2018_Jun_08_1450,59.1710794241,sheb_replic_pilot_control,001,901,
3,training,lick,ruin,chew,soothe,,,,0,0,0,0,0,2,2,2,,,,,,,,,,,space,5.48446363958,,,,,,,2018_Jun_08_1450,59.1710794241,sheb_replic_pilot_control,001,901,
2,training,like,thank,stare,yell,,,,0,0,0,0,0,3,3,1,,,,,,,,,,,space,5.81977474213,,,,,,,2018_Jun_08_1450,59.1710794241,sheb_replic_pilot_control,001,901,
,,,,,,,,,0,0,0,0,,,,,,,,,,,,,,,,,s,41.5759334578,space,1.44259346036,,,2018_Jun_08_1450,59.1710794241,sheb_replic_pilot_control,001,901,
,leg,skate,slide,dance,creep,0.3,0.4,0.7,0,0,0,0,,,,,0,0,0,3,0,0,0,0,,,space,3.74026834023,,,,,,,2018_Jun_08_1450,59.1710794241,sheb_replic_pilot_control,001,901,
,leg,run,jog,hike,strut,0.3,0.4,0.7,0,0,0,0,,,,,0,0,0,3,0,1,1,1,,,space,4.89727242483,,,,,,,2018_Jun_08_1450,59.1710794241,sheb_replic_pilot_control,001,901,
,leg,roll,sneak,trudge,stumble,0.3,0.4,0.7,0,0,0,0,,,,,0,0,0,3,0,2,2,2,,,space,4.76327576111,,,,,,,2018_Jun_08_1450,59.1710794241,sheb_replic_pilot_control,001,901,
,arm,twine,switch,wash,claw,0.3,0.4,0.7,0,0,0,0,,,,,0,0,0,3,0,3,3,3,,,space,4.04280697568,,,,,,,2018_Jun_08_1450,59.1710794241,sheb_replic_pilot_control,001,901,
,leg,march,stroll,limp,hop,0.3,0.4,0.7,0,0,0,0,,,,,0,0,0,3,0,4,4,4,,,space,6.85971719889,,,,,,,2018_Jun_08_1450,59.1710794241,sheb_replic_pilot_control,001,901,
,arm,punch,scratch,toss,slap,0.3,0.4,0.7,0,0,0,0,,,,,0,0,0,3,0,5,5,5,,,space,4.54462959992,,,,,,,2018_Jun_08_1450,59.1710794241,sheb_replic_pilot_control,001,901,
,arm,brush,whip,hack,grasp,0.3,0.4,0.7,0,0,0,0,,,,,0,0,0,3,0,6,6,6,,,space,3.57296305047,,,,,,,2018_Jun_08_1450,59.1710794241,sheb_replic_pilot_control,001,901,
,arm,dig,rub,scrub,scrape,0.3,0.4,0.7,0,0,0,0,,,,,0,0,0,3,0,7,7,7,,,space,4.86471133947,,,,,,,2018_Jun_08_1450,59.1710794241,sheb_replic_pilot_control,001,901,
,leg,flit,scuff,jump,sway,0.3,0.4,0.7,0,0,0,0,,,,,0,0,0,3,0,8,8,8,,,space,4.58023221173,,,,,,,2018_Jun_08_1450,59.1710794241,sheb_replic_pilot_control,001,901,
,leg,plod,glide,kick,wade,0.3,0.4,0.7,0,0,0,0,,,,,0,0,0,3,0,9,9,9,,,space,4.39414397507,,,,,,,2018_Jun_08_1450,59.1710794241,sheb_replic_pilot_control,001,901,
,arm,seize,cut,fold,grab,0.3,0.4,0.7,0,0,0,0,,,,,0,0,0,3,0,10,10,10,,,space,4.00810520568,,,,,,,2018_Jun_08_1450,59.1710794241,sheb_replic_pilot_control,001,901,
,arm,clutch,delve,lift,stir,0.3,0.4,0.7,0,0,0,0,,,,,0,0,0,3,0,11,11,11,,,space,4.830298392,,,,,,,2018_Jun_08_1450,59.1710794241,sheb_replic_pilot_control,001,901,
,leg,step,tread,climb,roam,0.3,0.4,0.7,0,0,0,0,,,,,0,0,0,3,0,12,12,12,,,space,6.44030224033,,,,,,,2018_Jun_08_1450,59.1710794241,sheb_replic_pilot_control,001,901,
,leg,leap,pace,trip,bounce,0.3,0.4,0.7,0,0,0,0,,,,,0,0,0,3,0,13,13,13,,,space,13.1831067664,,,,,,,2018_Jun_08_1450,59.1710794241,sheb_replic_pilot_control,001,901,
,arm,pinch,click,pull,skim,0.3,0.4,0.7,0,0,0,0,,,,,0,0,0,3,0,14,14,14,,,space,4.31046209234,,,,,,,2018_Jun_08_1450,59.1710794241,sheb_replic_pilot_control,001,901,
,arm,bash,snatch,scoop,braid,0.3,0.4,0.7,0,0,0,0,,,,,0,0,0,3,0,15,15,15,,,space,4.57955341953,,,,,,,2018_Jun_08_1450,59.1710794241,sheb_replic_pilot_control,001,901,
,arm,stab,squeeze,clap,chop,0.3,0.4,0.7,0,0,0,0,,,,,0,0,0,3,0,16,16,16,,,space,4.49485097785,,,,,,,2018_Jun_08_1450,59.1710794241,sheb_replic_pilot_control,001,901,
,leg,mount,walk,prance,wander,0.3,0.4,0.7,0,0,0,0,,,,,0,0,0,3,0,17,17,17,,,space,5.45075121515,,,,,,,2018_Jun_08_1450,59.1710794241,sheb_replic_pilot_control,001,901,
,arm,file,nip,grate,catch,0.3,0.4,0.7,0,0,0,0,,,,,0,0,0,3,0,18,18,18,,,space,5.61880681131,,,,,,,2018_Jun_08_1450,59.1710794241,sheb_replic_pilot_control,001,901,
,leg,stray,slither,trek,sprint,0.3,0.4,0.7,0,0,0,0,,,,,0,0,0,3,0,19,19,19,,,space,5.65213795839,,,,,,,2018_Jun_08_1450,59.1710794241,sheb_replic_pilot_control,001,901,
,arm,grip,poke,throw,push,0.3,0.4,0.7,0,0,0,0,,,,,0,0,0,3,0,20,20,20,,,space,5.8035595895,,,,,,,2018_Jun_08_1450,59.1710794241,sheb_replic_pilot_control,001,901,
,leg,trot,traipse,crawl,slip,0.3,0.4,0.7,0,0,0,0,,,,,0,0,0,3,0,21,21,21,,,space,4.36075119144,,,,,,,2018_Jun_08_1450,59.1710794241,sheb_replic_pilot_control,001,901,
,leg,stagger,flee,inch,stamp,0.3,0.4,0.7,0,0,0,0,,,,,0,0,0,3,0,22,22,22,,,space,4.63033205503,,,,,,,2018_Jun_08_1450,59.1710794241,sheb_replic_pilot_control,001,901,
,leg,wobble,rush,stomp,ramble,0.3,0.4,0.7,0,0,0,0,,,,,0,0,0,3,0,23,23,23,,,space,4.29368509889,,,,,,,2018_Jun_08_1450,59.1710794241,sheb_replic_pilot_control,001,901,
,arm,wrap,clean,dunk,peel,0.3,0.4,0.7,0,0,0,0,,,,,0,0,0,3,0,24,24,24,,,space,4.77990103383,,,,,,,2018_Jun_08_1450,59.1710794241,sheb_replic_pilot_control,001,901,
,leg,kneel,tiptoe,stride,skip,0.3,0.4,0.7,0,0,0,0,,,,,0,0,0,3,0,25,25,25,,,space,4.42780582592,,,,,,,2018_Jun_08_1450,59.1710794241,sheb_replic_pilot_control,001,901,
,arm,bind,carve,polish,tug,0.3,0.4,0.7,0,0,0,0,,,,,0,0,0,3,0,26,26,26,,,space,5.87007411399,,,,,,,2018_Jun_08_1450,59.1710794241,sheb_replic_pilot_control,001,901,
,arm,knock,wipe,shake,pat,0.3,0.4,0.7,0,0,0,0,,,,,0,0,0,3,0,27,27,27,,,space,4.20981435547,,,,,,,2018_Jun_08_1450,59.1710794241,sheb_replic_pilot_control,001,901,
,,,,,,0.3,0.4,0.7,0,0,0,0,,,,,0,0,0,3,,,,,,,,,,,,,,,2018_Jun_08_1450,59.1710794241,sheb_replic_pilot_control,001,901,
,leg,leap,wade,kneel,slither,0.25,0.4,0.65,0,0,0,0,,,,,0,1,1,2,0,0,0,0,,,space,4.17657131704,,,,,,,2018_Jun_08_1450,59.1710794241,sheb_replic_pilot_control,001,901,
,arm,claw,squeeze,carve,poke,0.25,0.4,0.65,0,0,0,0,,,,,0,1,1,2,0,1,1,1,,,space,6.03694834304,,,,,,,2018_Jun_08_1450,59.1710794241,sheb_replic_pilot_control,001,901,
,arm,dunk,hack,grate,file,0.25,0.4,0.65,0,0,0,0,,,,,0,1,1,2,0,2,2,2,,,space,4.24340153127,,,,,,,2018_Jun_08_1450,59.1710794241,sheb_replic_pilot_control,001,901,
,arm,skim,seize,pat,fold,0.25,0.4,0.65,0,0,0,0,,,,,0,1,1,2,0,3,3,3,,,space,4.36062317708,,,,,,,2018_Jun_08_1450,59.1710794241,sheb_replic_pilot_control,001,901,
,leg,trudge,slide,scuff,creep,0.25,0.4,0.65,0,0,0,0,,,,,0,1,1,2,0,4,4,4,,,space,7.12799934886,,,,,,,2018_Jun_08_1450,59.1710794241,sheb_replic_pilot_control,001,901,
,arm,shake,scratch,slap,rub,0.25,0.4,0.65,0,0,0,0,,,,,0,1,1,2,0,5,5,5,,,space,8.72170112123,,,,,,,2018_Jun_08_1450,59.1710794241,sheb_replic_pilot_control,001,901,
,arm,push,catch,delve,clutch,0.25,0.4,0.65,0,0,0,0,,,,,0,1,1,2,0,6,6,6,,,space,4.76308097383,,,,,,,2018_Jun_08_1450,59.1710794241,sheb_replic_pilot_control,001,901,
,arm,grasp,wipe,chop,knock,0.25,0.4,0.65,0,0,0,0,,,,,0,1,1,2,0,7,7,7,,,space,4.56214781234,,,,,,,2018_Jun_08_1450,59.1710794241,sheb_replic_pilot_control,001,901,
,leg,strut,roam,stride,hop,0.25,0.4,0.65,0,0,0,0,,,,,0,1,1,2,0,8,8,8,,,space,9.87837805802,,,,,,,2018_Jun_08_1450,59.1710794241,sheb_replic_pilot_control,001,901,
,leg,trip,rush,limp,stagger,0.25,0.4,0.65,0,0,0,0,,,,,0,1,1,2,0,9,9,9,,,space,4.10916898923,,,,,,,2018_Jun_08_1450,59.1710794241,sheb_replic_pilot_control,001,901,
,arm,throw,click,whip,pull,0.25,0.4,0.65,0,0,0,0,,,,,0,1,1,2,0,10,10,10,,,space,4.04207484415,,,,,,,2018_Jun_08_1450,59.1710794241,sheb_replic_pilot_control,001,901,
,arm,nip,polish,scoop,pinch,0.25,0.4,0.65,0,0,0,0,,,,,0,1,1,2,0,11,11,11,,,space,4.41098379038,,,,,,,2018_Jun_08_1450,59.1710794241,sheb_replic_pilot_control,001,901,
,leg,dance,ramble,trot,hike,0.25,0.4,0.65,0,0,0,0,,,,,0,1,1,2,0,12,12,12,,,space,4.36074526485,,,,,,,2018_Jun_08_1450,59.1710794241,sheb_replic_pilot_control,001,901,
,arm,scrape,wash,snatch,bind,0.25,0.4,0.65,0,0,0,0,,,,,0,1,1,2,0,13,13,13,,,space,4.34395444269,,,,,,,2018_Jun_08_1450,59.1710794241,sheb_replic_pilot_control,001,901,
,arm,punch,wrap,clean,grab,0.25,0.4,0.65,0,0,0,0,,,,,0,1,1,2,0,14,14,14,,,space,4.81338232122,,,,,,,2018_Jun_08_1450,59.1710794241,sheb_replic_pilot_control,001,901,
,arm,clap,bash,scrub,switch,0.25,0.4,0.65,0,0,0,0,,,,,0,1,1,2,0,15,15,15,,,space,4.79707510887,,,,,,,2018_Jun_08_1450,59.1710794241,sheb_replic_pilot_control,001,901,
,leg,stumble,skate,kick,trek,0.25,0.4,0.65,0,0,0,0,,,,,0,1,1,2,0,16,16,16,,,space,5.18254571575,,,,,,,2018_Jun_08_1450,59.1710794241,sheb_replic_pilot_control,001,901,
,leg,step,mount,tread,slip,0.25,0.4,0.65,0,0,0,0,,,,,0,1,1,2,0,17,17,17,,,space,5.14899449459,,,,,,,2018_Jun_08_1450,59.1710794241,sheb_replic_pilot_control,001,901,
,leg,wobble,walk,plod,inch,0.25,0.4,0.65,0,0,0,0,,,,,0,1,1,2,0,18,18,18,,,space,4.64538322522,,,,,,,2018_Jun_08_1450,59.1710794241,sheb_replic_pilot_control,001,901,
,arm,braid,peel,grip,stir,0.25,0.4,0.65,0,0,0,0,,,,,0,1,1,2,0,19,19,19,,,space,4.17637415911,,,,,,,2018_Jun_08_1450,59.1710794241,sheb_replic_pilot_control,001,901,
,leg,sprint,tiptoe,stamp,stomp,0.25,0.4,0.65,0,0,0,0,,,,,0,1,1,2,0,20,20,20,,,space,5.28282126271,,,,,,,2018_Jun_08_1450,59.1710794241,sheb_replic_pilot_control,001,901,
,arm,tug,twine,stab,toss,0.25,0.4,0.65,0,0,0,0,,,,,0,1,1,2,0,21,21,21,,,space,5.71865090246,,,,,,,2018_Jun_08_1450,59.1710794241,sheb_replic_pilot_control,001,901,
,leg,crawl,jump,stray,run,0.25,0.4,0.65,0,0,0,0,,,,,0,1,1,2,0,22,22,22,,,space,4.84782648206,,,,,,,2018_Jun_08_1450,59.1710794241,sheb_replic_pilot_control,001,901,
,leg,wander,roll,flee,glide,0.25,0.4,0.65,0,0,0,0,,,,,0,1,1,2,0,23,23,23,,,space,5.35022003456,,,,,,,2018_Jun_08_1450,59.1710794241,sheb_replic_pilot_control,001,901,
,leg,sneak,stroll,sway,march,0.25,0.4,0.65,0,0,0,0,,,,,0,1,1,2,0,24,24,24,,,space,5.03137063082,,,,,,,2018_Jun_08_1450,59.1710794241,sheb_replic_pilot_control,001,901,
,arm,dig,brush,cut,lift,0.25,0.4,0.65,0,0,0,0,,,,,0,1,1,2,0,25,25,25,,,space,6.12234024479,,,,,,,2018_Jun_08_1450,59.1710794241,sheb_replic_pilot_control,001,901,
,leg,prance,skip,traipse,flit,0.25,0.4,0.65,0,0,0,0,,,,,0,1,1,2,0,26,26,26,,,space,5.1154669798,,,,,,,2018_Jun_08_1450,59.1710794241,sheb_replic_pilot_control,001,901,
,leg,bounce,pace,jog,climb,0.25,0.4,0.65,0,0,0,0,,,,,0,1,1,2,0,27,27,27,,,space,5.38355789845,,,,,,,2018_Jun_08_1450,59.1710794241,sheb_replic_pilot_control,001,901,
,,,,,,0.25,0.4,0.65,0,0,0,0,,,,,0,1,1,2,,,,,,,,,,,,,,,2018_Jun_08_1450,59.1710794241,sheb_replic_pilot_control,001,901,
,arm,hack,clean,chop,scratch,0.4,0.4,0.8,0,0,0,0,,,,,0,2,2,5,0,0,0,0,,,space,4.29405017689,,,,,,,2018_Jun_08_1450,59.1710794241,sheb_replic_pilot_control,001,901,
,arm,slap,wrap,wipe,bind,0.4,0.4,0.8,0,0,0,0,,,,,0,2,2,5,0,1,1,1,,,space,4.07556956514,,,,,,,2018_Jun_08_1450,59.1710794241,sheb_replic_pilot_control,001,901,
,leg,slip,skate,stomp,slither,0.4,0.4,0.8,0,0,0,0,,,,,0,2,2,5,0,2,2,2,,,space,4.04211514497,,,,,,,2018_Jun_08_1450,59.1710794241,sheb_replic_pilot_control,001,901,
,leg,stride,roll,hike,hop,0.4,0.4,0.8,0,0,0,0,,,,,0,2,2,5,0,3,3,3,,,space,3.5053343269,,,,,,,2018_Jun_08_1450,59.1710794241,sheb_replic_pilot_control,001,901,
,leg,sneak,walk,rush,sway,0.4,0.4,0.8,0,0,0,0,,,,,0,2,2,5,0,4,4,4,,,space,4.93086197128,,,,,,,2018_Jun_08_1450,59.1710794241,sheb_replic_pilot_control,001,901,
,arm,peel,stab,catch,bash,0.4,0.4,0.8,0,0,0,0,,,,,0,2,2,5,0,5,5,5,,,space,4.81333648891,,,,,,,2018_Jun_08_1450,59.1710794241,sheb_replic_pilot_control,001,901,
,leg,skip,traipse,kneel,trek,0.4,0.4,0.8,0,0,0,0,,,,,0,2,2,5,0,6,6,6,,,space,7.37953176771,,,,,,,2018_Jun_08_1450,59.1710794241,sheb_replic_pilot_control,001,901,
,leg,stray,creep,glide,stroll,0.4,0.4,0.8,0,0,0,0,,,,,0,2,2,5,0,7,7,7,,,space,8.06730947788,,,,,,,2018_Jun_08_1450,59.1710794241,sheb_replic_pilot_control,001,901,
,leg,step,inch,crawl,kick,0.4,0.4,0.8,0,0,0,0,,,,,0,2,2,5,0,8,8,8,,,space,5.03259229875,,,,,,,2018_Jun_08_1450,59.1710794241,sheb_replic_pilot_control,001,901,
,arm,grab,shake,delve,twine,0.4,0.4,0.8,0,0,0,0,,,,,0,2,2,5,0,9,9,9,,,space,4.62928581419,,,,,,,2018_Jun_08_1450,59.1710794241,sheb_replic_pilot_control,001,901,
,arm,clutch,dunk,brush,clap,0.4,0.4,0.8,0,0,0,0,,,,,0,2,2,5,0,10,10,10,,,space,6.90995967547,,,,,,,2018_Jun_08_1450,59.1710794241,sheb_replic_pilot_control,001,901,
,leg,plod,ramble,dance,trip,0.4,0.4,0.8,0,0,0,0,,,,,0,2,2,5,0,11,11,11,,,space,5.06594241092,,,,,,,2018_Jun_08_1450,59.1710794241,sheb_replic_pilot_control,001,901,
,arm,stir,pat,poke,click,0.4,0.4,0.8,0,0,0,0,,,,,0,2,2,5,0,12,12,12,,,space,4.86367734691,,,,,,,2018_Jun_08_1450,59.1710794241,sheb_replic_pilot_control,001,901,
,arm,scrub,wash,claw,skim,0.4,0.4,0.8,0,0,0,0,,,,,0,2,2,5,0,13,13,13,,,space,4.96435827269,,,,,,,2018_Jun_08_1450,59.1710794241,sheb_replic_pilot_control,001,901,
,leg,limp,pace,sprint,flee,0.4,0.4,0.8,0,0,0,0,,,,,0,2,2,5,0,14,14,14,,,space,7.26218684881,,,,,,,2018_Jun_08_1450,59.1710794241,sheb_replic_pilot_control,001,901,
,arm,scoop,nip,lift,snatch,0.4,0.4,0.8,0,0,0,0,,,,,0,2,2,5,0,15,15,15,,,space,4.41110469283,,,,,,,2018_Jun_08_1450,59.1710794241,sheb_replic_pilot_control,001,901,
,leg,trot,strut,tiptoe,flit,0.4,0.4,0.8,0,0,0,0,,,,,0,2,2,5,0,16,16,16,,,space,6.62478911214,,,,,,,2018_Jun_08_1450,59.1710794241,sheb_replic_pilot_control,001,901,
,arm,tug,knock,grate,whip,0.4,0.4,0.8,0,0,0,0,,,,,0,2,2,5,0,17,17,17,,,space,4.76377952134,,,,,,,2018_Jun_08_1450,59.1710794241,sheb_replic_pilot_control,001,901,
,arm,push,scrape,pull,polish,0.4,0.4,0.8,0,0,0,0,,,,,0,2,2,5,0,18,18,18,,,space,4.4781648588,,,,,,,2018_Jun_08_1450,59.1710794241,sheb_replic_pilot_control,001,901,
,leg,roam,stagger,scuff,climb,0.4,0.4,0.8,0,0,0,0,,,,,0,2,2,5,0,19,19,19,,,space,5.85357567032,,,,,,,2018_Jun_08_1450,59.1710794241,sheb_replic_pilot_control,001,901,
,leg,stumble,prance,march,wobble,0.4,0.4,0.8,0,0,0,0,,,,,0,2,2,5,0,20,20,20,,,space,4.56219799081,,,,,,,2018_Jun_08_1450,59.1710794241,sheb_replic_pilot_control,001,901,
,leg,wander,slide,trudge,leap,0.4,0.4,0.8,0,0,0,0,,,,,0,2,2,5,0,21,21,21,,,space,4.84702836783,,,,,,,2018_Jun_08_1450,59.1710794241,sheb_replic_pilot_control,001,901,
,arm,file,carve,braid,punch,0.4,0.4,0.8,0,0,0,0,,,,,0,2,2,5,0,22,22,22,,,space,5.56821466587,,,,,,,2018_Jun_08_1450,59.1710794241,sheb_replic_pilot_control,001,901,
,leg,bounce,mount,run,tread,0.4,0.4,0.8,0,0,0,0,,,,,0,2,2,5,0,23,23,23,,,space,5.01476866935,,,,,,,2018_Jun_08_1450,59.1710794241,sheb_replic_pilot_control,001,901,
,arm,squeeze,switch,fold,throw,0.4,0.4,0.8,0,0,0,0,,,,,0,2,2,5,0,24,24,24,,,space,5.29931615043,,,,,,,2018_Jun_08_1450,59.1710794241,sheb_replic_pilot_control,001,901,
,leg,stamp,wade,jog,jump,0.4,0.4,0.8,0,0,0,0,,,,,0,2,2,5,0,25,25,25,,,space,4.84711963732,,,,,,,2018_Jun_08_1450,59.1710794241,sheb_replic_pilot_control,001,901,
,arm,seize,toss,grasp,dig,0.4,0.4,0.8,0,0,0,0,,,,,0,2,2,5,0,26,26,26,,,space,6.97692501598,,,,,,,2018_Jun_08_1450,59.1710794241,sheb_replic_pilot_control,001,901,
,arm,grip,rub,pinch,cut,0.4,0.4,0.8,0,0,0,0,,,,,0,2,2,5,0,27,27,27,,,space,4.44531890196,,,,,,,2018_Jun_08_1450,59.1710794241,sheb_replic_pilot_control,001,901,
,,,,,,0.4,0.4,0.8,0,0,0,0,,,,,0,2,2,5,,,,,,,,,,,,,,,2018_Jun_08_1450,59.1710794241,sheb_replic_pilot_control,001,901,
,leg,jump,strut,dance,run,0.1,0.4,0.5,0,0,0,0,,,,,0,3,3,0,0,0,0,0,,,space,4.12615104272,,,,,,,2018_Jun_08_1450,59.1710794241,sheb_replic_pilot_control,001,901,
,arm,polish,grasp,seize,scrape,0.1,0.4,0.5,0,0,0,0,,,,,0,3,3,0,0,1,1,1,,,space,4.72919667826,,,,,,,2018_Jun_08_1450,59.1710794241,sheb_replic_pilot_control,001,901,
,arm,lift,wrap,clutch,clean,0.1,0.4,0.5,0,0,0,0,,,,,0,3,3,0,0,2,2,2,,,space,3.50585349626,,,,,,,2018_Jun_08_1450,59.1710794241,sheb_replic_pilot_control,001,901,
,arm,grab,pat,punch,delve,0.1,0.4,0.5,0,0,0,0,,,,,0,3,3,0,0,3,3,3,,,space,4.31002391972,,,,,,,2018_Jun_08_1450,59.1710794241,sheb_replic_pilot_control,001,901,
,leg,slip,mount,sneak,stride,0.1,0.4,0.5,0,0,0,0,,,,,0,3,3,0,0,4,4,4,,,space,6.05460286705,,,,,,,2018_Jun_08_1450,59.1710794241,sheb_replic_pilot_control,001,901,
,arm,whip,click,slap,stir,0.1,0.4,0.5,0,0,0,0,,,,,0,3,3,0,0,5,5,5,,,space,4.9311634372,,,,,,,2018_Jun_08_1450,59.1710794241,sheb_replic_pilot_control,001,901,
,arm,file,hack,peel,wash,0.1,0.4,0.5,0,0,0,0,,,,,0,3,3,0,0,6,6,6,,,space,4.6960820493,,,,,,,2018_Jun_08_1450,59.1710794241,sheb_replic_pilot_control,001,901,
,arm,chop,knock,toss,throw,0.1,0.4,0.5,0,0,0,0,,,,,0,3,3,0,0,7,7,7,,,space,5.31685885942,,,,,,,2018_Jun_08_1450,59.1710794241,sheb_replic_pilot_control,001,901,
,leg,tiptoe,stumble,bounce,traipse,0.1,0.4,0.5,0,0,0,0,,,,,0,3,3,0,0,8,8,8,,,space,3.82414382493,,,,,,,2018_Jun_08_1450,59.1710794241,sheb_replic_pilot_control,001,901,
,leg,sprint,skip,tread,climb,0.1,0.4,0.5,0,0,0,0,,,,,0,3,3,0,0,9,9,9,,,space,2.95205150919,,,,,,,2018_Jun_08_1450,59.1710794241,sheb_replic_pilot_control,001,901,
,arm,switch,fold,shake,rub,0.1,0.4,0.5,0,0,0,0,,,,,0,3,3,0,0,10,10,10,,,space,5.28314445947,,,,,,,2018_Jun_08_1450,59.1710794241,sheb_replic_pilot_control,001,901,
,leg,creep,rush,trip,hop,0.1,0.4,0.5,0,0,0,0,,,,,0,3,3,0,0,11,11,11,,,space,5.08251592475,,,,,,,2018_Jun_08_1450,59.1710794241,sheb_replic_pilot_control,001,901,
,arm,claw,scrub,squeeze,bash,0.1,0.4,0.5,0,0,0,0,,,,,0,3,3,0,0,12,12,12,,,space,5.70235001181,,,,,,,2018_Jun_08_1450,59.1710794241,sheb_replic_pilot_control,001,901,
,leg,wobble,trek,wander,hike,0.1,0.4,0.5,0,0,0,0,,,,,0,3,3,0,0,13,13,13,,,space,6.03788790525,,,,,,,2018_Jun_08_1450,59.1710794241,sheb_replic_pilot_control,001,901,
,leg,plod,trudge,jog,stagger,0.1,0.4,0.5,0,0,0,0,,,,,0,3,3,0,0,14,14,14,,,space,5.70191500005,,,,,,,2018_Jun_08_1450,59.1710794241,sheb_replic_pilot_control,001,901,
,arm,catch,stab,push,braid,0.1,0.4,0.5,0,0,0,0,,,,,0,3,3,0,0,15,15,15,,,space,4.79676099955,,,,,,,2018_Jun_08_1450,59.1710794241,sheb_replic_pilot_control,001,901,
,arm,nip,snatch,poke,twine,0.1,0.4,0.5,0,0,0,0,,,,,0,3,3,0,0,16,16,16,,,space,4.31049251551,,,,,,,2018_Jun_08_1450,59.1710794241,sheb_replic_pilot_control,001,901,
,leg,stomp,prance,leap,roll,0.1,0.4,0.5,0,0,0,0,,,,,0,3,3,0,0,17,17,17,,,space,6.38999496635,,,,,,,2018_Jun_08_1450,59.1710794241,sheb_replic_pilot_control,001,901,
,leg,stray,scuff,sway,pace,0.1,0.4,0.5,0,0,0,0,,,,,0,3,3,0,0,18,18,18,,,space,6.2893681701,,,,,,,2018_Jun_08_1450,59.1710794241,sheb_replic_pilot_control,001,901,
,leg,kick,march,slide,limp,0.1,0.4,0.5,0,0,0,0,,,,,0,3,3,0,0,19,19,19,,,space,5.75271813213,,,,,,,2018_Jun_08_1450,59.1710794241,sheb_replic_pilot_control,001,901,
,arm,bind,tug,pinch,carve,0.1,0.4,0.5,0,0,0,0,,,,,0,3,3,0,0,20,20,20,,,space,6.10560118153,,,,,,,2018_Jun_08_1450,59.1710794241,sheb_replic_pilot_control,001,901,
,leg,glide,stamp,skate,flee,0.1,0.4,0.5,0,0,0,0,,,,,0,3,3,0,0,21,21,21,,,space,4.59495899984,,,,,,,2018_Jun_08_1450,59.1710794241,sheb_replic_pilot_control,001,901,
,arm,wipe,brush,scratch,scoop,0.1,0.4,0.5,0,0,0,0,,,,,0,3,3,0,0,22,22,22,,,space,6.42292112972,,,,,,,2018_Jun_08_1450,59.1710794241,sheb_replic_pilot_control,001,901,
,leg,inch,wade,stroll,crawl,0.1,0.4,0.5,0,0,0,0,,,,,0,3,3,0,0,23,23,23,,,space,6.32229946984,,,,,,,2018_Jun_08_1450,59.1710794241,sheb_replic_pilot_control,001,901,
,arm,clap,skim,dunk,dig,0.1,0.4,0.5,0,0,0,0,,,,,0,3,3,0,0,24,24,24,,,space,6.35646547603,,,,,,,2018_Jun_08_1450,59.1710794241,sheb_replic_pilot_control,001,901,
,leg,trot,kneel,ramble,slither,0.1,0.4,0.5,0,0,0,0,,,,,0,3,3,0,0,25,25,25,,,space,8.00007586036,,,,,,,2018_Jun_08_1450,59.1710794241,sheb_replic_pilot_control,001,901,
,arm,grate,grip,cut,pull,0.1,0.4,0.5,0,0,0,0,,,,,0,3,3,0,0,26,26,26,,,space,3.7232645559,,,,,,,2018_Jun_08_1450,59.1710794241,sheb_replic_pilot_control,001,901,
,leg,roam,step,flit,walk,0.1,0.4,0.5,0,0,0,0,,,,,0,3,3,0,0,27,27,27,,,space,4.77997294314,,,,,,,2018_Jun_08_1450,59.1710794241,sheb_replic_pilot_control,001,901,
,,,,,,0.1,0.4,0.5,0,0,0,0,,,,,0,3,3,0,,,,,,,,,,,,,,,2018_Jun_08_1450,59.1710794241,sheb_replic_pilot_control,001,901,
,leg,sprint,glide,march,step,0.2,0.4,0.6,0,0,0,0,,,,,0,4,4,1,0,0,0,0,,,space,4.14268623126,,,,,,,2018_Jun_08_1450,59.1710794241,sheb_replic_pilot_control,001,901,
,leg,plod,roam,rush,jog,0.2,0.4,0.6,0,0,0,0,,,,,0,4,4,1,0,1,1,1,,,space,7.37952544602,,,,,,,2018_Jun_08_1450,59.1710794241,sheb_replic_pilot_control,001,901,
,leg,stamp,jump,trek,crawl,0.2,0.4,0.6,0,0,0,0,,,,,0,4,4,1,0,2,2,2,,,space,7.81546018398,,,,,,,2018_Jun_08_1450,59.1710794241,sheb_replic_pilot_control,001,901,
,arm,rub,catch,dig,shake,0.2,0.4,0.6,0,0,0,0,,,,,0,4,4,1,0,3,3,3,,,space,4.67930624117,,,,,,,2018_Jun_08_1450,59.1710794241,sheb_replic_pilot_control,001,901,
,arm,snatch,bind,toss,carve,0.2,0.4,0.6,0,0,0,0,,,,,0,4,4,1,0,4,4,4,,,space,6.52440530612,,,,,,,2018_Jun_08_1450,59.1710794241,sheb_replic_pilot_control,001,901,
,arm,knock,punch,delve,grab,0.2,0.4,0.6,0,0,0,0,,,,,0,4,4,1,0,5,5,5,,,space,6.22247118294,,,,,,,2018_Jun_08_1450,59.1710794241,sheb_replic_pilot_control,001,901,
,leg,stumble,trip,pace,stomp,0.2,0.4,0.6,0,0,0,0,,,,,0,4,4,1,0,6,6,6,,,space,4.47829484869,,,,,,,2018_Jun_08_1450,59.1710794241,sheb_replic_pilot_control,001,901,
,arm,scrape,hack,peel,scratch,0.2,0.4,0.6,0,0,0,0,,,,,0,4,4,1,0,7,7,7,,,space,4.16028227957,,,,,,,2018_Jun_08_1450,59.1710794241,sheb_replic_pilot_control,001,901,
,arm,grate,skim,seize,push,0.2,0.4,0.6,0,0,0,0,,,,,0,4,4,1,0,8,8,8,,,space,5.78621996503,,,,,,,2018_Jun_08_1450,59.1710794241,sheb_replic_pilot_control,001,901,
,leg,skate,stroll,roll,stride,0.2,0.4,0.6,0,0,0,0,,,,,0,4,4,1,0,9,9,9,,,space,4.36061448475,,,,,,,2018_Jun_08_1450,59.1710794241,sheb_replic_pilot_control,001,901,
,arm,twine,stir,tug,cut,0.2,0.4,0.6,0,0,0,0,,,,,0,4,4,1,0,10,10,10,,,space,4.86422298838,,,,,,,2018_Jun_08_1450,59.1710794241,sheb_replic_pilot_control,001,901,
,leg,slide,kneel,trudge,ramble,0.2,0.4,0.6,0,0,0,0,,,,,0,4,4,1,0,11,11,11,,,space,5.63523176526,,,,,,,2018_Jun_08_1450,59.1710794241,sheb_replic_pilot_control,001,901,
,leg,flit,slither,trot,slip,0.2,0.4,0.6,0,0,0,0,,,,,0,4,4,1,0,12,12,12,,,space,5.26614778705,,,,,,,2018_Jun_08_1450,59.1710794241,sheb_replic_pilot_control,001,901,
,leg,wade,creep,tiptoe,kick,0.2,0.4,0.6,0,0,0,0,,,,,0,4,4,1,0,13,13,13,,,space,6.10475288882,,,,,,,2018_Jun_08_1450,59.1710794241,sheb_replic_pilot_control,001,901,
,arm,scrub,switch,stab,clean,0.2,0.4,0.6,0,0,0,0,,,,,0,4,4,1,0,14,14,14,,,space,5.53459509136,,,,,,,2018_Jun_08_1450,59.1710794241,sheb_replic_pilot_control,001,901,
,leg,walk,run,skip,tread,0.2,0.4,0.6,0,0,0,0,,,,,0,4,4,1,0,15,15,15,,,space,3.47202609597,,,,,,,2018_Jun_08_1450,59.1710794241,sheb_replic_pilot_control,001,901,
,leg,bounce,dance,prance,flee,0.2,0.4,0.6,0,0,0,0,,,,,0,4,4,1,0,16,16,16,,,space,5.19929979304,,,,,,,2018_Jun_08_1450,59.1710794241,sheb_replic_pilot_control,001,901,
,arm,pinch,file,wash,clap,0.2,0.4,0.6,0,0,0,0,,,,,0,4,4,1,0,17,17,17,,,space,5.56823797712,,,,,,,2018_Jun_08_1450,59.1710794241,sheb_replic_pilot_control,001,901,
,arm,wrap,scoop,fold,polish,0.2,0.4,0.6,0,0,0,0,,,,,0,4,4,1,0,18,18,18,,,space,5.71945415308,,,,,,,2018_Jun_08_1450,59.1710794241,sheb_replic_pilot_control,001,901,
,leg,stray,climb,mount,limp,0.2,0.4,0.6,0,0,0,0,,,,,0,4,4,1,0,19,19,19,,,space,5.50139788524,,,,,,,2018_Jun_08_1450,59.1710794241,sheb_replic_pilot_control,001,901,
,arm,throw,pull,wipe,squeeze,0.2,0.4,0.6,0,0,0,0,,,,,0,4,4,1,0,20,20,20,,,space,5.19709984251,,,,,,,2018_Jun_08_1450,59.1710794241,sheb_replic_pilot_control,001,901,
,arm,click,lift,dunk,poke,0.2,0.4,0.6,0,0,0,0,,,,,0,4,4,1,0,21,21,21,,,space,4.88091266339,,,,,,,2018_Jun_08_1450,59.1710794241,sheb_replic_pilot_control,001,901,
,arm,grip,nip,brush,bash,0.2,0.4,0.6,0,0,0,0,,,,,0,4,4,1,0,22,22,22,,,space,4.26007579714,,,,,,,2018_Jun_08_1450,59.1710794241,sheb_replic_pilot_control,001,901,
,leg,sneak,traipse,sway,wobble,0.2,0.4,0.6,0,0,0,0,,,,,0,4,4,1,0,23,23,23,,,space,6.37222270074,,,,,,,2018_Jun_08_1450,59.1710794241,sheb_replic_pilot_control,001,901,
,arm,grasp,braid,pat,clutch,0.2,0.4,0.6,0,0,0,0,,,,,0,4,4,1,0,24,24,24,,,space,6.64191537935,,,,,,,2018_Jun_08_1450,59.1710794241,sheb_replic_pilot_control,001,901,
,arm,slap,chop,whip,claw,0.2,0.4,0.6,0,0,0,0,,,,,0,4,4,1,0,25,25,25,,,space,4.54577382707,,,,,,,2018_Jun_08_1450,59.1710794241,sheb_replic_pilot_control,001,901,
,leg,leap,inch,stagger,hike,0.2,0.4,0.6,0,0,0,0,,,,,0,4,4,1,0,26,26,26,,,space,6.34038703009,,,,,,,2018_Jun_08_1450,59.1710794241,sheb_replic_pilot_control,001,901,
,leg,wander,hop,scuff,strut,0.2,0.4,0.6,0,0,0,0,,,,,0,4,4,1,0,27,27,27,,,space,4.74624906063,,,,,,,2018_Jun_08_1450,59.1710794241,sheb_replic_pilot_control,001,901,
,,,,,,0.2,0.4,0.6,0,0,0,0,,,,,0,4,4,1,,,,,,,,,,,,,,,2018_Jun_08_1450,59.1710794241,sheb_replic_pilot_control,001,901,
,leg,roll,limp,trek,stray,0.35,0.4,0.75,0,0,0,0,,,,,0,5,5,4,0,0,0,0,,,space,4.19300535843,,,,,,,2018_Jun_08_1450,59.1710794241,sheb_replic_pilot_control,001,901,
,leg,ramble,march,wander,stagger,0.35,0.4,0.75,0,0,0,0,,,,,0,5,5,4,0,1,1,1,,,space,4.44521973033,,,,,,,2018_Jun_08_1450,59.1710794241,sheb_replic_pilot_control,001,901,
,arm,stir,fold,cut,delve,0.35,0.4,0.75,0,0,0,0,,,,,0,5,5,4,0,2,2,2,,,space,4.66209226042,,,,,,,2018_Jun_08_1450,59.1710794241,sheb_replic_pilot_control,001,901,
,leg,wobble,sneak,step,stride,0.35,0.4,0.75,0,0,0,0,,,,,0,5,5,4,0,3,3,3,,,space,6.05416864549,,,,,,,2018_Jun_08_1450,59.1710794241,sheb_replic_pilot_control,001,901,
,arm,shake,throw,grab,chop,0.35,0.4,0.75,0,0,0,0,,,,,0,5,5,4,0,4,4,4,,,space,5.68577531267,,,,,,,2018_Jun_08_1450,59.1710794241,sheb_replic_pilot_control,001,901,
,leg,flee,leap,kick,traipse,0.35,0.4,0.75,0,0,0,0,,,,,0,5,5,4,0,5,5,5,,,space,4.4448064494,,,,,,,2018_Jun_08_1450,59.1710794241,sheb_replic_pilot_control,001,901,
,leg,sprint,tread,glide,rush,0.35,0.4,0.75,0,0,0,0,,,,,0,5,5,4,0,6,6,6,,,space,4.59547737899,,,,,,,2018_Jun_08_1450,59.1710794241,sheb_replic_pilot_control,001,901,
,arm,braid,hack,clean,skim,0.35,0.4,0.75,0,0,0,0,,,,,0,5,5,4,0,7,7,7,,,space,4.8806262115,,,,,,,2018_Jun_08_1450,59.1710794241,sheb_replic_pilot_control,001,901,
,leg,dance,stomp,sway,slip,0.35,0.4,0.75,0,0,0,0,,,,,0,5,5,4,0,8,8,8,,,space,7.14470206237,,,,,,,2018_Jun_08_1450,59.1710794241,sheb_replic_pilot_control,001,901,
,arm,dunk,scratch,bash,nip,0.35,0.4,0.75,0,0,0,0,,,,,0,5,5,4,0,9,9,9,,,space,5.45082272934,,,,,,,2018_Jun_08_1450,59.1710794241,sheb_replic_pilot_control,001,901,
,arm,bind,scrub,poke,carve,0.35,0.4,0.75,0,0,0,0,,,,,0,5,5,4,0,10,10,10,,,space,7.56333352562,,,,,,,2018_Jun_08_1450,59.1710794241,sheb_replic_pilot_control,001,901,
,arm,pat,scoop,slap,peel,0.35,0.4,0.75,0,0,0,0,,,,,0,5,5,4,0,11,11,11,,,space,6.62475592323,,,,,,,2018_Jun_08_1450,59.1710794241,sheb_replic_pilot_control,001,901,
,leg,pace,trudge,tiptoe,strut,0.35,0.4,0.75,0,0,0,0,,,,,0,5,5,4,0,12,12,12,,,space,15.5803428414,,,,,,,2018_Jun_08_1450,59.1710794241,sheb_replic_pilot_control,001,901,
,leg,inch,crawl,skate,wade,0.35,0.4,0.75,0,0,0,0,,,,,0,5,5,4,0,13,13,13,,,space,11.3878985336,,,,,,,2018_Jun_08_1450,59.1710794241,sheb_replic_pilot_control,001,901,
,arm,push,snatch,file,catch,0.35,0.4,0.75,0,0,0,0,,,,,0,5,5,4,0,14,14,14,,,space,5.81981543806,,,,,,,2018_Jun_08_1450,59.1710794241,sheb_replic_pilot_control,001,901,
,leg,stamp,prance,hike,roam,0.35,0.4,0.75,0,0,0,0,,,,,0,5,5,4,0,15,15,15,,,space,5.31602123458,,,,,,,2018_Jun_08_1450,59.1710794241,sheb_replic_pilot_control,001,901,
,leg,trot,stumble,slither,walk,0.35,0.4,0.75,0,0,0,0,,,,,0,5,5,4,0,16,16,16,,,space,5.903602419,,,,,,,2018_Jun_08_1450,59.1710794241,sheb_replic_pilot_control,001,901,
,arm,click,knock,squeeze,punch,0.35,0.4,0.75,0,0,0,0,,,,,0,5,5,4,0,17,17,17,,,space,5.43351668888,,,,,,,2018_Jun_08_1450,59.1710794241,sheb_replic_pilot_control,001,901,
,arm,pinch,stab,rub,polish,0.35,0.4,0.75,0,0,0,0,,,,,0,5,5,4,0,18,18,18,,,space,5.6348820964,,,,,,,2018_Jun_08_1450,59.1710794241,sheb_replic_pilot_control,001,901,
,arm,grip,switch,twine,tug,0.35,0.4,0.75,0,0,0,0,,,,,0,5,5,4,0,19,19,19,,,space,5.5179022555,,,,,,,2018_Jun_08_1450,59.1710794241,sheb_replic_pilot_control,001,901,
,leg,plod,creep,kneel,skip,0.35,0.4,0.75,0,0,0,0,,,,,0,5,5,4,0,20,20,20,,,space,7.53044805817,,,,,,,2018_Jun_08_1450,59.1710794241,sheb_replic_pilot_control,001,901,
,leg,trip,slide,jump,stroll,0.35,0.4,0.75,0,0,0,0,,,,,0,5,5,4,0,21,21,21,,,space,6.82590086157,,,,,,,2018_Jun_08_1450,59.1710794241,sheb_replic_pilot_control,001,901,
,arm,grate,clap,clutch,toss,0.35,0.4,0.75,0,0,0,0,,,,,0,5,5,4,0,22,22,22,,,space,4.94770178659,,,,,,,2018_Jun_08_1450,59.1710794241,sheb_replic_pilot_control,001,901,
,arm,scrape,brush,wash,wipe,0.35,0.4,0.75,0,0,0,0,,,,,0,5,5,4,0,23,23,23,,,space,4.39433125534,,,,,,,2018_Jun_08_1450,59.1710794241,sheb_replic_pilot_control,001,901,
,arm,wrap,lift,dig,claw,0.35,0.4,0.75,0,0,0,0,,,,,0,5,5,4,0,24,24,24,,,space,4.51166155531,,,,,,,2018_Jun_08_1450,59.1710794241,sheb_replic_pilot_control,001,901,
,leg,climb,jog,bounce,mount,0.35,0.4,0.75,0,0,0,0,,,,,0,5,5,4,0,25,25,25,,,space,5.43381578417,,,,,,,2018_Jun_08_1450,59.1710794241,sheb_replic_pilot_control,001,901,
,leg,hop,run,scuff,flit,0.35,0.4,0.75,0,0,0,0,,,,,0,5,5,4,0,26,26,26,,,space,5.45066429182,,,,,,,2018_Jun_08_1450,59.1710794241,sheb_replic_pilot_control,001,901,
,arm,whip,pull,grasp,seize,0.35,0.4,0.75,0,0,0,0,,,,,0,5,5,4,0,27,27,27,,,space,6.80962723324,,,,,,,2018_Jun_08_1450,59.1710794241,sheb_replic_pilot_control,001,901,
,,,,,,0.35,0.4,0.75,0,0,0,0,,,,,0,5,5,4,,,,,,,,,,,,,,,2018_Jun_08_1450,59.1710794241,sheb_replic_pilot_control,001,901,
,,,,,,,,,0,0,0,0,,,,,,,,,,,,,,,,,,,,,space,2.96871431698,2018_Jun_08_1450,59.1710794241,sheb_replic_pilot_control,001,901,
