word,target,distrOne,distrTwo,corrAns,w1,w2,w3,category,category_lowercase,trials.thisRepN,trials.thisTrialN,trials.thisN,trials.thisIndex,ArmLeg_loop.thisRepN,ArmLeg_loop.thisTrialN,ArmLeg_loop.thisN,ArmLeg_loop.thisIndex,key_resp_3.keys,key_resp_3.rt,key_resp_6.keys,key_resp_6.rt,key_resp_5.keys,key_resp_5.rt,key_resp_4.keys,key_resp_4.rt,rating.response,rating.rt,answer.keys,answer.corr,answer.rt,key_resp_7.keys,key_resp_7.rt,date,frameRate,expName,session,participant,
,,,,,,,,,,,,,,,,,,space,19.6388446151,,,,,,,,,,,,,,2018_Jun_08_1550,59.56797925,verb_norming,001,901,
,,,,,,,,,,,,,,,,,,,,space,86.6554604052,,,,,,,,,,,,2018_Jun_08_1550,59.56797925,verb_norming,001,901,
,,,,,,,,,,,,,,,,,,,,,,space,20.1924494442,,,,,,,,,,2018_Jun_08_1550,59.56797925,verb_norming,001,901,
,,,,,,,,,,,,,,,,,,,,,,,,space,4.91419797816,,,,,,,,2018_Jun_08_1550,59.56797925,verb_norming,001,901,
KICK,sparka,knäa,tåa,3,tåa,knäa,sparka,Leg,leg,0,0,0,36,0,0,0,0,,,,,,,,,7,15.247,,,,,,2018_Jun_08_1550,59.56797925,verb_norming,001,901,
KICK,sparka,knäa,tåa,3,tåa,knäa,sparka,Arm,arm,0,0,0,36,0,1,1,1,,,,,,,,,1,2.679,,,,,,2018_Jun_08_1550,59.56797925,verb_norming,001,901,
KICK,sparka,knäa,tåa,3,tåa,knäa,sparka,,,0,0,0,36,,,,,,,,,,,,,,,2,0,2.24739210246,,,2018_Jun_08_1550,59.56797925,verb_norming,001,901,
SCRUB,skrubba,sopa,skrapa,1,skrubba,sopa,skrapa,Leg,leg,0,1,1,66,0,0,0,0,,,,,,,,,2,39.687,,,,,,2018_Jun_08_1550,59.56797925,verb_norming,001,901,
SCRUB,skrubba,sopa,skrapa,1,skrubba,sopa,skrapa,Arm,arm,0,1,1,66,0,1,1,1,,,,,,,,,7,3.182,,,,,,2018_Jun_08_1550,59.56797925,verb_norming,001,901,
SCRUB,skrubba,sopa,skrapa,1,skrubba,sopa,skrapa,,,0,1,1,66,,,,,,,,,,,,,,,1,1,6.33987181179,,,2018_Jun_08_1550,59.56797925,verb_norming,001,901,
TRIP,snubbla,stampa,stappla,2,stampa,snubbla,stappla,Leg,leg,0,2,2,99,0,0,0,0,,,,,,,,,7,12.52,,,,,,2018_Jun_08_1550,59.56797925,verb_norming,001,901,
TRIP,snubbla,stampa,stappla,2,stampa,snubbla,stappla,Arm,arm,0,2,2,99,0,1,1,1,,,,,,,,,1,4.07,,,,,,2018_Jun_08_1550,59.56797925,verb_norming,001,901,
TRIP,snubbla,stampa,stappla,2,stampa,snubbla,stappla,,,0,2,2,99,,,,,,,,,,,,,,,2,1,2.34824292385,,,2018_Jun_08_1550,59.56797925,verb_norming,001,901,
WASH,tvätta,skura,sopa,2,skura,tvätta,sopa,Leg,leg,0,3,3,107,0,0,0,0,,,,,,,,,2,12.336,,,,,,2018_Jun_08_1550,59.56797925,verb_norming,001,901,
WASH,tvätta,skura,sopa,2,skura,tvätta,sopa,Arm,arm,0,3,3,107,0,1,1,1,,,,,,,,,7,4.088,,,,,,2018_Jun_08_1550,59.56797925,verb_norming,001,901,
WASH,tvätta,skura,sopa,2,skura,tvätta,sopa,,,0,3,3,107,,,,,,,,,,,,,,,2,1,2.18063932902,,,2018_Jun_08_1550,59.56797925,verb_norming,001,901,
SWITCH,slå på/av,knäppa,nypa,2,nypa,slå på/av,knäppa,Leg,leg,0,4,4,93,0,0,0,0,,,,,,,,,6,19.546,,,,,,2018_Jun_08_1550,59.56797925,verb_norming,001,901,
SWITCH,slå på/av,knäppa,nypa,2,nypa,slå på/av,knäppa,Arm,arm,0,4,4,93,0,1,1,1,,,,,,,,,5,4.674,,,,,,2018_Jun_08_1550,59.56797925,verb_norming,001,901,
SWITCH,slå på/av,knäppa,nypa,2,nypa,slå på/av,knäppa,,,0,4,4,93,,,,,,,,,,,,,,,2,1,40.3344118412,,,2018_Jun_08_1550,59.56797925,verb_norming,001,901,
STRIDE,kliva,tassa,lunka,2,tassa,kliva,lunka,Leg,leg,0,5,5,88,0,0,0,0,,,,,,,,,7,4.198,,,,,,2018_Jun_08_1550,59.56797925,verb_norming,001,901,
STRIDE,kliva,tassa,lunka,2,tassa,kliva,lunka,Arm,arm,0,5,5,88,0,1,1,1,,,,,,,,,1,3.332,,,,,,2018_Jun_08_1550,59.56797925,verb_norming,001,901,
STRIDE,kliva,tassa,lunka,2,tassa,kliva,lunka,,,0,5,5,88,,,,,,,,,,,,,,,2,1,5.66907022852,,,2018_Jun_08_1550,59.56797925,verb_norming,001,901,
WOBBLE,vingla,ramla,glida,2,glida,vingla,ramla,Leg,leg,0,6,6,110,0,0,0,0,,,,,,,,,7,7.001,,,,,,2018_Jun_08_1550,59.56797925,verb_norming,001,901,
WOBBLE,vingla,ramla,glida,2,glida,vingla,ramla,Arm,arm,0,6,6,110,0,1,1,1,,,,,,,,,2,3.231,,,,,,2018_Jun_08_1550,59.56797925,verb_norming,001,901,
WOBBLE,vingla,ramla,glida,2,glida,vingla,ramla,,,0,6,6,110,,,,,,,,,,,,,,,2,1,3.8409615143,,,2018_Jun_08_1550,59.56797925,verb_norming,001,901,
PAT,klappa,slå,borsta,1,klappa,slå,borsta,Leg,leg,0,7,7,46,0,0,0,0,,,,,,,,,1,6.03,,,,,,2018_Jun_08_1550,59.56797925,verb_norming,001,901,
PAT,klappa,slå,borsta,1,klappa,slå,borsta,Arm,arm,0,7,7,46,0,1,1,1,,,,,,,,,7,7.493,,,,,,2018_Jun_08_1550,59.56797925,verb_norming,001,901,
PAT,klappa,slå,borsta,1,klappa,slå,borsta,,,0,7,7,46,,,,,,,,,,,,,,,1,1,1.25926503952,,,2018_Jun_08_1550,59.56797925,verb_norming,001,901,
GLIDE,glida,hasa,snava,1,glida,hasa,snava,Leg,leg,0,8,8,25,0,0,0,0,,,,,,,,,2,17.983,,,,,,2018_Jun_08_1550,59.56797925,verb_norming,001,901,
GLIDE,glida,hasa,snava,1,glida,hasa,snava,Arm,arm,0,8,8,25,0,1,1,1,,,,,,,,,1,2.493,,,,,,2018_Jun_08_1550,59.56797925,verb_norming,001,901,
GLIDE,glida,hasa,snava,1,glida,hasa,snava,,,0,8,8,25,,,,,,,,,,,,,,,1,1,4.84701769996,,,2018_Jun_08_1550,59.56797925,verb_norming,001,901,
CLEAN,rengöra,rensa,plocka,3,rensa,plocka,rengöra,Leg,leg,0,9,9,10,0,0,0,0,,,,,,,,,2,11.511,,,,,,2018_Jun_08_1550,59.56797925,verb_norming,001,901,
CLEAN,rengöra,rensa,plocka,3,rensa,plocka,rengöra,Arm,arm,0,9,9,10,0,1,1,1,,,,,,,,,6,4.522,,,,,,2018_Jun_08_1550,59.56797925,verb_norming,001,901,
CLEAN,rengöra,rensa,plocka,3,rensa,plocka,rengöra,,,0,9,9,10,,,,,,,,,,,,,,,3,1,2.44899259808,,,2018_Jun_08_1550,59.56797925,verb_norming,001,901,
PEEL,skala,rensa,plocka,3,plocka,rensa,skala,Leg,leg,0,10,10,47,0,0,0,0,,,,,,,,,2,37.291,,,,,,2018_Jun_08_1550,59.56797925,verb_norming,001,901,
PEEL,skala,rensa,plocka,3,plocka,rensa,skala,Arm,arm,0,10,10,47,0,1,1,1,,,,,,,,,1,4.792,,,,,,2018_Jun_08_1550,59.56797925,verb_norming,001,901,
PEEL,skala,rensa,plocka,3,plocka,rensa,skala,,,0,10,10,47,,,,,,,,,,,,,,,3,1,2.11344245636,,,2018_Jun_08_1550,59.56797925,verb_norming,001,901,
KNEEL,knäböja,krypa,kräla,2,kräla,knäböja,krypa,Leg,leg,0,11,11,37,0,0,0,0,,,,,,,,,7,3.227,,,,,,2018_Jun_08_1550,59.56797925,verb_norming,001,901,
KNEEL,knäböja,krypa,kräla,2,kräla,knäböja,krypa,Arm,arm,0,11,11,37,0,1,1,1,,,,,,,,,1,2.306,,,,,,2018_Jun_08_1550,59.56797925,verb_norming,001,901,
KNEEL,knäböja,krypa,kräla,2,kräla,knäböja,krypa,,,0,11,11,37,,,,,,,,,,,,,,,2,1,2.28190027049,,,2018_Jun_08_1550,59.56797925,verb_norming,001,901,
SLAP,smälla till,knäppa fast,klämma åt,3,klämma åt,knäppa fast,smälla till,Leg,leg,0,12,12,73,0,0,0,0,,,,,,,,,1,4.101,,,,,,2018_Jun_08_1550,59.56797925,verb_norming,001,901,
SLAP,smälla till,knäppa fast,klämma åt,3,klämma åt,knäppa fast,smälla till,Arm,arm,0,12,12,73,0,1,1,1,,,,,,,,,7,1.253,,,,,,2018_Jun_08_1550,59.56797925,verb_norming,001,901,
SLAP,smälla till,knäppa fast,klämma åt,3,klämma åt,knäppa fast,smälla till,,,0,12,12,73,,,,,,,,,,,,,,,3,1,2.38189766279,,,2018_Jun_08_1550,59.56797925,verb_norming,001,901,
TUG,rycka,pressa,slå,1,rycka,slå,pressa,Leg,leg,0,13,13,102,0,0,0,0,,,,,,,,,2,4.838,,,,,,2018_Jun_08_1550,59.56797925,verb_norming,001,901,
TUG,rycka,pressa,slå,1,rycka,slå,pressa,Arm,arm,0,13,13,102,0,1,1,1,,,,,,,,,6,5.243,,,,,,2018_Jun_08_1550,59.56797925,verb_norming,001,901,
TUG,rycka,pressa,slå,1,rycka,slå,pressa,,,0,13,13,102,,,,,,,,,,,,,,,1,1,2.76748640638,,,2018_Jun_08_1550,59.56797925,verb_norming,001,901,
FOLD,vika ihop,knyta ihop,bunta ihop,3,knyta ihop,bunta ihop,vika ihop,Leg,leg,0,14,14,24,0,0,0,0,,,,,,,,,6,11.816,,,,,,2018_Jun_08_1550,59.56797925,verb_norming,001,901,
FOLD,vika ihop,knyta ihop,bunta ihop,3,knyta ihop,bunta ihop,vika ihop,Arm,arm,0,14,14,24,0,1,1,1,,,,,,,,,6,4.508,,,,,,2018_Jun_08_1550,59.56797925,verb_norming,001,901,
FOLD,vika ihop,knyta ihop,bunta ihop,3,knyta ihop,bunta ihop,vika ihop,,,0,14,14,24,,,,,,,,,,,,,,,3,1,12.2261587078,,,2018_Jun_08_1550,59.56797925,verb_norming,001,901,
DANCE,dansa,snurra,svänga,2,svänga,dansa,snurra,Leg,leg,0,15,15,17,0,0,0,0,,,,,,,,,7,6.631,,,,,,2018_Jun_08_1550,59.56797925,verb_norming,001,901,
DANCE,dansa,snurra,svänga,2,svänga,dansa,snurra,Arm,arm,0,15,15,17,0,1,1,1,,,,,,,,,6,3.533,,,,,,2018_Jun_08_1550,59.56797925,verb_norming,001,901,
DANCE,dansa,snurra,svänga,2,svänga,dansa,snurra,,,0,15,15,17,,,,,,,,,,,,,,,2,1,1.15750903015,,,2018_Jun_08_1550,59.56797925,verb_norming,001,901,
CRAWL,kravla,huka,klättra,1,kravla,klättra,huka,Leg,leg,0,16,16,14,0,0,0,0,,,,,,,,,6,4.419,,,,,,2018_Jun_08_1550,59.56797925,verb_norming,001,901,
CRAWL,kravla,huka,klättra,1,kravla,klättra,huka,Arm,arm,0,16,16,14,0,1,1,1,,,,,,,,,6,2.175,,,,,,2018_Jun_08_1550,59.56797925,verb_norming,001,901,
CRAWL,kravla,huka,klättra,1,kravla,klättra,huka,,,0,16,16,14,,,,,,,,,,,,,,,1,1,3.22014558868,,,2018_Jun_08_1550,59.56797925,verb_norming,001,901,
PULL,dra,slänga,släpa,1,dra,slänga,släpa,Leg,leg,0,17,17,54,0,0,0,0,,,,,,,,,1,10.609,,,,,,2018_Jun_08_1550,59.56797925,verb_norming,001,901,
PULL,dra,slänga,släpa,1,dra,slänga,släpa,Arm,arm,0,17,17,54,0,1,1,1,,,,,,,,,7,4.323,,,,,,2018_Jun_08_1550,59.56797925,verb_norming,001,901,
PULL,dra,slänga,släpa,1,dra,slänga,släpa,,,0,17,17,54,,,,,,,,,,,,,,,1,1,1.09043898654,,,2018_Jun_08_1550,59.56797925,verb_norming,001,901,
TRAIPSE,traska,stappla,vandra,1,traska,stappla,vandra,Leg,leg,0,18,18,97,0,0,0,0,,,,,,,,,7,5.073,,,,,,2018_Jun_08_1550,59.56797925,verb_norming,001,901,
TRAIPSE,traska,stappla,vandra,1,traska,stappla,vandra,Arm,arm,0,18,18,97,0,1,1,1,,,,,,,,,1,4.434,,,,,,2018_Jun_08_1550,59.56797925,verb_norming,001,901,
TRAIPSE,traska,stappla,vandra,1,traska,stappla,vandra,,,0,18,18,97,,,,,,,,,,,,,,,1,1,8.62068712104,,,2018_Jun_08_1550,59.56797925,verb_norming,001,901,
STAMP,stampa,kliva,skutta,2,kliva,stampa,skutta,Leg,leg,0,19,19,83,0,0,0,0,,,,,,,,,1,27.476,,,,,,2018_Jun_08_1550,59.56797925,verb_norming,001,901,
STAMP,stampa,kliva,skutta,2,kliva,stampa,skutta,Arm,arm,0,19,19,83,0,1,1,1,,,,,,,,,3,30.684,,,,,,2018_Jun_08_1550,59.56797925,verb_norming,001,901,
STAMP,stampa,kliva,skutta,2,kliva,stampa,skutta,,,0,19,19,83,,,,,,,,,,,,,,,2,1,28.6952325713,,,2018_Jun_08_1550,59.56797925,verb_norming,001,901,
PLUCK,plocka,rensa,picka,2,rensa,plocka,picka,Leg,leg,0,20,20,50,0,0,0,0,,,,,,,,,1,6.885,,,,,,2018_Jun_08_1550,59.56797925,verb_norming,001,901,
PLUCK,plocka,rensa,picka,2,rensa,plocka,picka,Arm,arm,0,20,20,50,0,1,1,1,,,,,,,,,5,3.182,,,,,,2018_Jun_08_1550,59.56797925,verb_norming,001,901,
PLUCK,plocka,rensa,picka,2,rensa,plocka,picka,,,0,20,20,50,,,,,,,,,,,,,,,1,0,24.1839570346,,,2018_Jun_08_1550,59.56797925,verb_norming,001,901,
SCRATCH,repa,riva,klösa,1,repa,klösa,riva,Leg,leg,0,21,21,65,0,0,0,0,,,,,,,,,2,7.639,,,,,,2018_Jun_08_1550,59.56797925,verb_norming,001,901,
SCRATCH,repa,riva,klösa,1,repa,klösa,riva,Arm,arm,0,21,21,65,0,1,1,1,,,,,,,,,6,1.753,,,,,,2018_Jun_08_1550,59.56797925,verb_norming,001,901,
SCRATCH,repa,riva,klösa,1,repa,klösa,riva,,,0,21,21,65,,,,,,,,,,,,,,,3,0,20.9973638524,,,2018_Jun_08_1550,59.56797925,verb_norming,001,901,
MARCH,marschera,trava,traska,1,marschera,trava,traska,Leg,leg,0,22,22,42,0,0,0,0,,,,,,,,,7,2.992,,,,,,2018_Jun_08_1550,59.56797925,verb_norming,001,901,
MARCH,marschera,trava,traska,1,marschera,trava,traska,Arm,arm,0,22,22,42,0,1,1,1,,,,,,,,,3,6.367,,,,,,2018_Jun_08_1550,59.56797925,verb_norming,001,901,
MARCH,marschera,trava,traska,1,marschera,trava,traska,,,0,22,22,42,,,,,,,,,,,,,,,1,1,3.57249880085,,,2018_Jun_08_1550,59.56797925,verb_norming,001,901,
SCUFF,hasa sig fram,dra sig fram,kasta sig fram,3,dra sig fram,kasta sig fram,hasa sig fram,Leg,leg,0,23,23,67,0,0,0,0,,,,,,,,,6,5.174,,,,,,2018_Jun_08_1550,59.56797925,verb_norming,001,901,
SCUFF,hasa sig fram,dra sig fram,kasta sig fram,3,dra sig fram,kasta sig fram,hasa sig fram,Arm,arm,0,23,23,67,0,1,1,1,,,,,,,,,1,2.158,,,,,,2018_Jun_08_1550,59.56797925,verb_norming,001,901,
SCUFF,hasa sig fram,dra sig fram,kasta sig fram,3,dra sig fram,kasta sig fram,hasa sig fram,,,0,23,23,67,,,,,,,,,,,,,,,3,1,12.6623415723,,,2018_Jun_08_1550,59.56797925,verb_norming,001,901,
ROLL,vingla,snubbla,svassa,2,svassa,vingla,snubbla,Leg,leg,0,24,24,59,0,0,0,0,,,,,,,,,1,26.121,,,,,,2018_Jun_08_1550,59.56797925,verb_norming,001,901,
ROLL,vingla,snubbla,svassa,2,svassa,vingla,snubbla,Arm,arm,0,24,24,59,0,1,1,1,,,,,,,,,2,3.953,,,,,,2018_Jun_08_1550,59.56797925,verb_norming,001,901,
ROLL,vingla,snubbla,svassa,2,svassa,vingla,snubbla,,,0,24,24,59,,,,,,,,,,,,,,,1,0,11.874179661,,,2018_Jun_08_1550,59.56797925,verb_norming,001,901,
SKATE,åka skridskor,åka skidor,åka kälke,1,åka skridskor,åka skidor,åka kälke,Leg,leg,0,25,25,70,0,0,0,0,,,,,,,,,6,15.22,,,,,,2018_Jun_08_1550,59.56797925,verb_norming,001,901,
SKATE,åka skridskor,åka skidor,åka kälke,1,åka skridskor,åka skidor,åka kälke,Arm,arm,0,25,25,70,0,1,1,1,,,,,,,,,2,1.941,,,,,,2018_Jun_08_1550,59.56797925,verb_norming,001,901,
SKATE,åka skridskor,åka skidor,åka kälke,1,åka skridskor,åka skidor,åka kälke,,,0,25,25,70,,,,,,,,,,,,,,,1,1,5.45085473294,,,2018_Jun_08_1550,59.56797925,verb_norming,001,901,
GRASP,gripa,klämma,omfamna,1,gripa,omfamna,klämma,Leg,leg,0,26,26,27,0,0,0,0,,,,,,,,,1,5.391,,,,,,2018_Jun_08_1550,59.56797925,verb_norming,001,901,
GRASP,gripa,klämma,omfamna,1,gripa,omfamna,klämma,Arm,arm,0,26,26,27,0,1,1,1,,,,,,,,,7,4.17,,,,,,2018_Jun_08_1550,59.56797925,verb_norming,001,901,
GRASP,gripa,klämma,omfamna,1,gripa,omfamna,klämma,,,0,26,26,27,,,,,,,,,,,,,,,1,1,12.0250825179,,,2018_Jun_08_1550,59.56797925,verb_norming,001,901,
TREAD,trampa,stampa,klampa,2,stampa,trampa,klampa,Leg,leg,0,27,27,98,0,0,0,0,,,,,,,,,7,4.704,,,,,,2018_Jun_08_1550,59.56797925,verb_norming,001,901,
TREAD,trampa,stampa,klampa,2,stampa,trampa,klampa,Arm,arm,0,27,27,98,0,1,1,1,,,,,,,,,1,1.806,,,,,,2018_Jun_08_1550,59.56797925,verb_norming,001,901,
TREAD,trampa,stampa,klampa,2,stampa,trampa,klampa,,,0,27,27,98,,,,,,,,,,,,,,,2,1,6.4739656716,,,2018_Jun_08_1550,59.56797925,verb_norming,001,901,
STIR,röra,sleva,vispa,2,vispa,röra,sleva,Leg,leg,0,28,28,85,0,0,0,0,,,,,,,,,1,5.46,,,,,,2018_Jun_08_1550,59.56797925,verb_norming,001,901,
STIR,röra,sleva,vispa,2,vispa,röra,sleva,Arm,arm,0,28,28,85,0,1,1,1,,,,,,,,,6,3.232,,,,,,2018_Jun_08_1550,59.56797925,verb_norming,001,901,
STIR,röra,sleva,vispa,2,vispa,röra,sleva,,,0,28,28,85,,,,,,,,,,,,,,,1,0,5.78626303159,,,2018_Jun_08_1550,59.56797925,verb_norming,001,901,
PUSH,knuffa,kasta,klämma,3,kasta,klämma,knuffa,Leg,leg,0,29,29,56,0,0,0,0,,,,,,,,,3,8.294,,,,,,2018_Jun_08_1550,59.56797925,verb_norming,001,901,
PUSH,knuffa,kasta,klämma,3,kasta,klämma,knuffa,Arm,arm,0,29,29,56,0,1,1,1,,,,,,,,,6,2.326,,,,,,2018_Jun_08_1550,59.56797925,verb_norming,001,901,
PUSH,knuffa,kasta,klämma,3,kasta,klämma,knuffa,,,0,29,29,56,,,,,,,,,,,,,,,3,1,2.24762007866,,,2018_Jun_08_1550,59.56797925,verb_norming,001,901,
NIP,nypa,peta,nudda,1,nypa,peta,nudda,Leg,leg,0,30,30,44,0,0,0,0,,,,,,,,,1,4.402,,,,,,2018_Jun_08_1550,59.56797925,verb_norming,001,901,
NIP,nypa,peta,nudda,1,nypa,peta,nudda,Arm,arm,0,30,30,44,0,1,1,1,,,,,,,,,6,3.936,,,,,,2018_Jun_08_1550,59.56797925,verb_norming,001,901,
NIP,nypa,peta,nudda,1,nypa,peta,nudda,,,0,30,30,44,,,,,,,,,,,,,,,1,1,3.38814507978,,,2018_Jun_08_1550,59.56797925,verb_norming,001,901,
MOUNT,gå uppför,ströva runt,kliva över,2,kliva över,gå uppför,ströva runt,Leg,leg,0,31,31,43,0,0,0,0,,,,,,,,,6,6.715,,,,,,2018_Jun_08_1550,59.56797925,verb_norming,001,901,
MOUNT,gå uppför,ströva runt,kliva över,2,kliva över,gå uppför,ströva runt,Arm,arm,0,31,31,43,0,1,1,1,,,,,,,,,2,2.777,,,,,,2018_Jun_08_1550,59.56797925,verb_norming,001,901,
MOUNT,gå uppför,ströva runt,kliva över,2,kliva över,gå uppför,ströva runt,,,0,31,31,43,,,,,,,,,,,,,,,1,0,13.2662173257,,,2018_Jun_08_1550,59.56797925,verb_norming,001,901,
SLITHER,hasa,glida,trilla,3,trilla,glida,hasa,Leg,leg,0,32,32,76,0,0,0,0,,,,,,,,,4,18.052,,,,,,2018_Jun_08_1550,59.56797925,verb_norming,001,901,
SLITHER,hasa,glida,trilla,3,trilla,glida,hasa,Arm,arm,0,32,32,76,0,1,1,1,,,,,,,,,4,1.541,,,,,,2018_Jun_08_1550,59.56797925,verb_norming,001,901,
SLITHER,hasa,glida,trilla,3,trilla,glida,hasa,,,0,32,32,76,,,,,,,,,,,,,,,3,1,6.021052041,,,2018_Jun_08_1550,59.56797925,verb_norming,001,901,
TROT,trava,promenera,flanera,1,trava,promenera,flanera,Leg,leg,0,33,33,100,0,0,0,0,,,,,,,,,7,3.515,,,,,,2018_Jun_08_1550,59.56797925,verb_norming,001,901,
TROT,trava,promenera,flanera,1,trava,promenera,flanera,Arm,arm,0,33,33,100,0,1,1,1,,,,,,,,,1,2.427,,,,,,2018_Jun_08_1550,59.56797925,verb_norming,001,901,
TROT,trava,promenera,flanera,1,trava,promenera,flanera,,,0,33,33,100,,,,,,,,,,,,,,,1,1,3.72359644499,,,2018_Jun_08_1550,59.56797925,verb_norming,001,901,
PRANCE,kråma sig,promenera,traska,1,kråma sig,traska,promenera,Leg,leg,0,34,34,53,0,0,0,0,,,,,,,,,7,4.231,,,,,,2018_Jun_08_1550,59.56797925,verb_norming,001,901,
PRANCE,kråma sig,promenera,traska,1,kråma sig,traska,promenera,Arm,arm,0,34,34,53,0,1,1,1,,,,,,,,,1,2.24,,,,,,2018_Jun_08_1550,59.56797925,verb_norming,001,901,
PRANCE,kråma sig,promenera,traska,1,kråma sig,traska,promenera,,,0,34,34,53,,,,,,,,,,,,,,,1,1,3.10294132754,,,2018_Jun_08_1550,59.56797925,verb_norming,001,901,
CREEP,krypa,knäböja,klättra,1,krypa,knäböja,klättra,Leg,leg,0,35,35,15,0,0,0,0,,,,,,,,,4,6.515,,,,,,2018_Jun_08_1550,59.56797925,verb_norming,001,901,
CREEP,krypa,knäböja,klättra,1,krypa,knäböja,klättra,Arm,arm,0,35,35,15,0,1,1,1,,,,,,,,,4,1.001,,,,,,2018_Jun_08_1550,59.56797925,verb_norming,001,901,
CREEP,krypa,knäböja,klättra,1,krypa,knäböja,klättra,,,0,35,35,15,,,,,,,,,,,,,,,1,1,2.53281553367,,,2018_Jun_08_1550,59.56797925,verb_norming,001,901,
CATCH,fånga,krama,omfamna,1,fånga,omfamna,krama,Leg,leg,0,36,36,6,0,0,0,0,,,,,,,,,1,5.342,,,,,,2018_Jun_08_1550,59.56797925,verb_norming,001,901,
CATCH,fånga,krama,omfamna,1,fånga,omfamna,krama,Arm,arm,0,36,36,6,0,1,1,1,,,,,,,,,7,2.007,,,,,,2018_Jun_08_1550,59.56797925,verb_norming,001,901,
CATCH,fånga,krama,omfamna,1,fånga,omfamna,krama,,,0,36,36,6,,,,,,,,,,,,,,,1,1,1.09035798979,,,2018_Jun_08_1550,59.56797925,verb_norming,001,901,
THROW,kasta,greppa,träffa,2,greppa,kasta,träffa,Leg,leg,0,37,37,94,0,0,0,0,,,,,,,,,1,5.994,,,,,,2018_Jun_08_1550,59.56797925,verb_norming,001,901,
THROW,kasta,greppa,träffa,2,greppa,kasta,träffa,Arm,arm,0,37,37,94,0,1,1,1,,,,,,,,,7,1.571,,,,,,2018_Jun_08_1550,59.56797925,verb_norming,001,901,
THROW,kasta,greppa,träffa,2,greppa,kasta,träffa,,,0,37,37,94,,,,,,,,,,,,,,,2,1,1.91216318196,,,2018_Jun_08_1550,59.56797925,verb_norming,001,901,
CUT,skära,sticka,spetsa,3,spetsa,sticka,skära,Leg,leg,0,38,38,16,0,0,0,0,,,,,,,,,1,10.877,,,,,,2018_Jun_08_1550,59.56797925,verb_norming,001,901,
CUT,skära,sticka,spetsa,3,spetsa,sticka,skära,Arm,arm,0,38,38,16,0,1,1,1,,,,,,,,,7,1.22,,,,,,2018_Jun_08_1550,59.56797925,verb_norming,001,901,
CUT,skära,sticka,spetsa,3,spetsa,sticka,skära,,,0,38,38,16,,,,,,,,,,,,,,,3,1,2.09667534056,,,2018_Jun_08_1550,59.56797925,verb_norming,001,901,
RAMBLE,ströva,strutta,spurta,2,spurta,ströva,strutta,Leg,leg,0,39,39,57,0,0,0,0,,,,,,,,,5,8.878,,,,,,2018_Jun_08_1550,59.56797925,verb_norming,001,901,
RAMBLE,ströva,strutta,spurta,2,spurta,ströva,strutta,Arm,arm,0,39,39,57,0,1,1,1,,,,,,,,,1,4.638,,,,,,2018_Jun_08_1550,59.56797925,verb_norming,001,901,
RAMBLE,ströva,strutta,spurta,2,spurta,ströva,strutta,,,0,39,39,57,,,,,,,,,,,,,,,2,1,3.00233073064,,,2018_Jun_08_1550,59.56797925,verb_norming,001,901,
PLOD,lunka,pulsa,vingla,2,pulsa,lunka,vingla,Leg,leg,0,40,40,49,0,0,0,0,,,,,,,,,6,2.927,,,,,,2018_Jun_08_1550,59.56797925,verb_norming,001,901,
PLOD,lunka,pulsa,vingla,2,pulsa,lunka,vingla,Arm,arm,0,40,40,49,0,1,1,1,,,,,,,,,1,1.656,,,,,,2018_Jun_08_1550,59.56797925,verb_norming,001,901,
PLOD,lunka,pulsa,vingla,2,pulsa,lunka,vingla,,,0,40,40,49,,,,,,,,,,,,,,,2,1,1.61011724377,,,2018_Jun_08_1550,59.56797925,verb_norming,001,901,
TWINE,tvinna,binda,knyta,3,knyta,binda,tvinna,Leg,leg,0,41,41,103,0,0,0,0,,,,,,,,,1,5.542,,,,,,2018_Jun_08_1550,59.56797925,verb_norming,001,901,
TWINE,tvinna,binda,knyta,3,knyta,binda,tvinna,Arm,arm,0,41,41,103,0,1,1,1,,,,,,,,,5,3.666,,,,,,2018_Jun_08_1550,59.56797925,verb_norming,001,901,
TWINE,tvinna,binda,knyta,3,knyta,binda,tvinna,,,0,41,41,103,,,,,,,,,,,,,,,3,1,5.01495673984,,,2018_Jun_08_1550,59.56797925,verb_norming,001,901,
STRAY,ströva,vandra,promenera,2,vandra,ströva,promenera,Leg,leg,0,42,42,87,0,0,0,0,,,,,,,,,5,13.258,,,,,,2018_Jun_08_1550,59.56797925,verb_norming,001,901,
STRAY,ströva,vandra,promenera,2,vandra,ströva,promenera,Arm,arm,0,42,42,87,0,1,1,1,,,,,,,,,1,4.137,,,,,,2018_Jun_08_1550,59.56797925,verb_norming,001,901,
STRAY,ströva,vandra,promenera,2,vandra,ströva,promenera,,,0,42,42,87,,,,,,,,,,,,,,,2,1,4.93040167272,,,2018_Jun_08_1550,59.56797925,verb_norming,001,901,
JUMP,hoppa,kliva,lyfta,3,lyfta,kliva,hoppa,Leg,leg,0,43,43,35,0,0,0,0,,,,,,,,,7,3.158,,,,,,2018_Jun_08_1550,59.56797925,verb_norming,001,901,
JUMP,hoppa,kliva,lyfta,3,lyfta,kliva,hoppa,Arm,arm,0,43,43,35,0,1,1,1,,,,,,,,,2,1.922,,,,,,2018_Jun_08_1550,59.56797925,verb_norming,001,901,
JUMP,hoppa,kliva,lyfta,3,lyfta,kliva,hoppa,,,0,43,43,35,,,,,,,,,,,,,,,3,1,2.66692164178,,,2018_Jun_08_1550,59.56797925,verb_norming,001,901,
CLIMB,klättra,kliva,krypa,3,kliva,krypa,klättra,Leg,leg,0,44,44,12,0,0,0,0,,,,,,,,,7,4.954,,,,,,2018_Jun_08_1550,59.56797925,verb_norming,001,901,
CLIMB,klättra,kliva,krypa,3,kliva,krypa,klättra,Arm,arm,0,44,44,12,0,1,1,1,,,,,,,,,7,3.934,,,,,,2018_Jun_08_1550,59.56797925,verb_norming,001,901,
CLIMB,klättra,kliva,krypa,3,kliva,krypa,klättra,,,0,44,44,12,,,,,,,,,,,,,,,3,1,1.35860379002,,,2018_Jun_08_1550,59.56797925,verb_norming,001,901,
RUB,gnugga,riva,klappa,1,gnugga,klappa,riva,Leg,leg,0,45,45,60,0,0,0,0,,,,,,,,,2,5.04,,,,,,2018_Jun_08_1550,59.56797925,verb_norming,001,901,
RUB,gnugga,riva,klappa,1,gnugga,klappa,riva,Arm,arm,0,45,45,60,0,1,1,1,,,,,,,,,7,3.367,,,,,,2018_Jun_08_1550,59.56797925,verb_norming,001,901,
RUB,gnugga,riva,klappa,1,gnugga,klappa,riva,,,0,45,45,60,,,,,,,,,,,,,,,1,1,1.22440206625,,,2018_Jun_08_1550,59.56797925,verb_norming,001,901,
WIPE,torka,putsa,gnugga,1,torka,gnugga,putsa,Leg,leg,0,46,46,109,0,0,0,0,,,,,,,,,1,6.533,,,,,,2018_Jun_08_1550,59.56797925,verb_norming,001,901,
WIPE,torka,putsa,gnugga,1,torka,gnugga,putsa,Arm,arm,0,46,46,109,0,1,1,1,,,,,,,,,7,1.941,,,,,,2018_Jun_08_1550,59.56797925,verb_norming,001,901,
WIPE,torka,putsa,gnugga,1,torka,gnugga,putsa,,,0,46,46,109,,,,,,,,,,,,,,,1,1,4.47798073937,,,2018_Jun_08_1550,59.56797925,verb_norming,001,901,
FLEE,fly,lyfta,flyga,2,lyfta,fly,flyga,Leg,leg,0,47,47,22,0,0,0,0,,,,,,,,,6,6.48,,,,,,2018_Jun_08_1550,59.56797925,verb_norming,001,901,
FLEE,fly,lyfta,flyga,2,lyfta,fly,flyga,Arm,arm,0,47,47,22,0,1,1,1,,,,,,,,,1,1.287,,,,,,2018_Jun_08_1550,59.56797925,verb_norming,001,901,
FLEE,fly,lyfta,flyga,2,lyfta,fly,flyga,,,0,47,47,22,,,,,,,,,,,,,,,2,1,1.99602088689,,,2018_Jun_08_1550,59.56797925,verb_norming,001,901,
RUSH,rusa,springa,löpa,1,rusa,löpa,springa,Leg,leg,0,48,48,62,0,0,0,0,,,,,,,,,5,7.12,,,,,,2018_Jun_08_1550,59.56797925,verb_norming,001,901,
RUSH,rusa,springa,löpa,1,rusa,löpa,springa,Arm,arm,0,48,48,62,0,1,1,1,,,,,,,,,1,1.572,,,,,,2018_Jun_08_1550,59.56797925,verb_norming,001,901,
RUSH,rusa,springa,löpa,1,rusa,löpa,springa,,,0,48,48,62,,,,,,,,,,,,,,,1,1,4.5283567618,,,2018_Jun_08_1550,59.56797925,verb_norming,001,901,
KNOCK,knacka,krocka,klicka,3,klicka,krocka,knacka,Leg,leg,0,49,49,38,0,0,0,0,,,,,,,,,1,4.367,,,,,,2018_Jun_08_1550,59.56797925,verb_norming,001,901,
KNOCK,knacka,krocka,klicka,3,klicka,krocka,knacka,Arm,arm,0,49,49,38,0,1,1,1,,,,,,,,,7,1.419,,,,,,2018_Jun_08_1550,59.56797925,verb_norming,001,901,
KNOCK,knacka,krocka,klicka,3,klicka,krocka,knacka,,,0,49,49,38,,,,,,,,,,,,,,,3,1,1.77821156033,,,2018_Jun_08_1550,59.56797925,verb_norming,001,901,
SEIZE,fånga,klämma,fästa,3,klämma,fästa,fånga,Leg,leg,0,50,50,68,0,0,0,0,,,,,,,,,1,3.175,,,,,,2018_Jun_08_1550,59.56797925,verb_norming,001,901,
SEIZE,fånga,klämma,fästa,3,klämma,fästa,fånga,Arm,arm,0,50,50,68,0,1,1,1,,,,,,,,,6,2.928,,,,,,2018_Jun_08_1550,59.56797925,verb_norming,001,901,
SEIZE,fånga,klämma,fästa,3,klämma,fästa,fånga,,,0,50,50,68,,,,,,,,,,,,,,,3,1,1.5434474426,,,2018_Jun_08_1550,59.56797925,verb_norming,001,901,
INCH,röra sig långsamt framåt,dra sig snabbt tillbaka,hasa sig bakåt,1,röra sig långsamt framåt,hasa sig bakåt,dra sig snabbt tillbaka,Leg,leg,0,51,51,33,0,0,0,0,,,,,,,,,5,4.15,,,,,,2018_Jun_08_1550,59.56797925,verb_norming,001,901,
INCH,röra sig långsamt framåt,dra sig snabbt tillbaka,hasa sig bakåt,1,röra sig långsamt framåt,hasa sig bakåt,dra sig snabbt tillbaka,Arm,arm,0,51,51,33,0,1,1,1,,,,,,,,,1,2.543,,,,,,2018_Jun_08_1550,59.56797925,verb_norming,001,901,
INCH,röra sig långsamt framåt,dra sig snabbt tillbaka,hasa sig bakåt,1,röra sig långsamt framåt,hasa sig bakåt,dra sig snabbt tillbaka,,,0,51,51,33,,,,,,,,,,,,,,,1,1,3.50557415627,,,2018_Jun_08_1550,59.56797925,verb_norming,001,901,
HOP,skutta,kliva,studsa,2,studsa,skutta,kliva,Leg,leg,0,52,52,32,0,0,0,0,,,,,,,,,7,2.206,,,,,,2018_Jun_08_1550,59.56797925,verb_norming,001,901,
HOP,skutta,kliva,studsa,2,studsa,skutta,kliva,Arm,arm,0,52,52,32,0,1,1,1,,,,,,,,,1,1.506,,,,,,2018_Jun_08_1550,59.56797925,verb_norming,001,901,
HOP,skutta,kliva,studsa,2,studsa,skutta,kliva,,,0,52,52,32,,,,,,,,,,,,,,,2,1,6.82590086157,,,2018_Jun_08_1550,59.56797925,verb_norming,001,901,
STAB,sticka,hacka,skära,2,hacka,sticka,skära,Leg,leg,0,53,53,81,0,0,0,0,,,,,,,,,1,3.665,,,,,,2018_Jun_08_1550,59.56797925,verb_norming,001,901,
STAB,sticka,hacka,skära,2,hacka,sticka,skära,Arm,arm,0,53,53,81,0,1,1,1,,,,,,,,,5,2.024,,,,,,2018_Jun_08_1550,59.56797925,verb_norming,001,901,
STAB,sticka,hacka,skära,2,hacka,sticka,skära,,,0,53,53,81,,,,,,,,,,,,,,,2,1,2.3313225069,,,2018_Jun_08_1550,59.56797925,verb_norming,001,901,
BRAID,fläta,knyta,binda,2,binda,fläta,knyta,Leg,leg,0,54,54,3,0,0,0,0,,,,,,,,,1,3.044,,,,,,2018_Jun_08_1550,59.56797925,verb_norming,001,901,
BRAID,fläta,knyta,binda,2,binda,fläta,knyta,Arm,arm,0,54,54,3,0,1,1,1,,,,,,,,,6,2.141,,,,,,2018_Jun_08_1550,59.56797925,verb_norming,001,901,
BRAID,fläta,knyta,binda,2,binda,fläta,knyta,,,0,54,54,3,,,,,,,,,,,,,,,2,1,0.872420253771,,,2018_Jun_08_1550,59.56797925,verb_norming,001,901,
SNATCH,rycka till sig,knuffa ifrån sig,plocka åt sig,1,rycka till sig,plocka åt sig,knuffa ifrån sig,Leg,leg,0,55,55,77,0,0,0,0,,,,,,,,,1,4.216,,,,,,2018_Jun_08_1550,59.56797925,verb_norming,001,901,
SNATCH,rycka till sig,knuffa ifrån sig,plocka åt sig,1,rycka till sig,plocka åt sig,knuffa ifrån sig,Arm,arm,0,55,55,77,0,1,1,1,,,,,,,,,6,3.263,,,,,,2018_Jun_08_1550,59.56797925,verb_norming,001,901,
SNATCH,rycka till sig,knuffa ifrån sig,plocka åt sig,1,rycka till sig,plocka åt sig,knuffa ifrån sig,,,0,55,55,77,,,,,,,,,,,,,,,1,1,12.0753340819,,,2018_Jun_08_1550,59.56797925,verb_norming,001,901,
STOMP,stampa,stiga,kliva,1,stampa,kliva,stiga,Leg,leg,0,56,56,86,0,0,0,0,,,,,,,,,7,2.875,,,,,,2018_Jun_08_1550,59.56797925,verb_norming,001,901,
STOMP,stampa,stiga,kliva,1,stampa,kliva,stiga,Arm,arm,0,56,56,86,0,1,1,1,,,,,,,,,1,1.117,,,,,,2018_Jun_08_1550,59.56797925,verb_norming,001,901,
STOMP,stampa,stiga,kliva,1,stampa,kliva,stiga,,,0,56,56,86,,,,,,,,,,,,,,,1,1,4.7465987295,,,2018_Jun_08_1550,59.56797925,verb_norming,001,901,
POKE,peta,trycka,knuffa,1,peta,trycka,knuffa,Leg,leg,0,57,57,51,0,0,0,0,,,,,,,,,2,14.399,,,,,,2018_Jun_08_1550,59.56797925,verb_norming,001,901,
POKE,peta,trycka,knuffa,1,peta,trycka,knuffa,Arm,arm,0,57,57,51,0,1,1,1,,,,,,,,,7,1.84,,,,,,2018_Jun_08_1550,59.56797925,verb_norming,001,901,
POKE,peta,trycka,knuffa,1,peta,trycka,knuffa,,,0,57,57,51,,,,,,,,,,,,,,,1,1,2.26440023295,,,2018_Jun_08_1550,59.56797925,verb_norming,001,901,
CLUTCH,gripa tag i,sätta ihop,dra ut,1,gripa tag i,sätta ihop,dra ut,Leg,leg,0,58,58,13,0,0,0,0,,,,,,,,,1,2.842,,,,,,2018_Jun_08_1550,59.56797925,verb_norming,001,901,
CLUTCH,gripa tag i,sätta ihop,dra ut,1,gripa tag i,sätta ihop,dra ut,Arm,arm,0,58,58,13,0,1,1,1,,,,,,,,,7,1.001,,,,,,2018_Jun_08_1550,59.56797925,verb_norming,001,901,
CLUTCH,gripa tag i,sätta ihop,dra ut,1,gripa tag i,sätta ihop,dra ut,,,0,58,58,13,,,,,,,,,,,,,,,1,1,1.72768105142,,,2018_Jun_08_1550,59.56797925,verb_norming,001,901,
STROLL,strosa,trava,marschera,2,marschera,strosa,trava,Leg,leg,0,59,59,89,0,0,0,0,,,,,,,,,7,8.075,,,,,,2018_Jun_08_1550,59.56797925,verb_norming,001,901,
STROLL,strosa,trava,marschera,2,marschera,strosa,trava,Arm,arm,0,59,59,89,0,1,1,1,,,,,,,,,2,2.242,,,,,,2018_Jun_08_1550,59.56797925,verb_norming,001,901,
STROLL,strosa,trava,marschera,2,marschera,strosa,trava,,,0,59,59,89,,,,,,,,,,,,,,,2,1,2.73421531542,,,2018_Jun_08_1550,59.56797925,verb_norming,001,901,
STUMBLE,snubbla,glida,svaja,2,svaja,snubbla,glida,Leg,leg,0,60,60,91,0,0,0,0,,,,,,,,,7,2.052,,,,,,2018_Jun_08_1550,59.56797925,verb_norming,001,901,
STUMBLE,snubbla,glida,svaja,2,svaja,snubbla,glida,Arm,arm,0,60,60,91,0,1,1,1,,,,,,,,,1,1.888,,,,,,2018_Jun_08_1550,59.56797925,verb_norming,001,901,
STUMBLE,snubbla,glida,svaja,2,svaja,snubbla,glida,,,0,60,60,91,,,,,,,,,,,,,,,2,1,1.17437334203,,,2018_Jun_08_1550,59.56797925,verb_norming,001,901,
GRAB,gripa tag i,fästa ihop,smälla till,2,smälla till,gripa tag i,fästa ihop,Leg,leg,0,61,61,26,0,0,0,0,,,,,,,,,2,4.888,,,,,,2018_Jun_08_1550,59.56797925,verb_norming,001,901,
GRAB,gripa tag i,fästa ihop,smälla till,2,smälla till,gripa tag i,fästa ihop,Arm,arm,0,61,61,26,0,1,1,1,,,,,,,,,7,0.766,,,,,,2018_Jun_08_1550,59.56797925,verb_norming,001,901,
GRAB,gripa tag i,fästa ihop,smälla till,2,smälla till,gripa tag i,fästa ihop,,,0,61,61,26,,,,,,,,,,,,,,,2,1,4.29353258795,,,2018_Jun_08_1550,59.56797925,verb_norming,001,901,
SQUEEZE,klämma,knuffa,knäppa,1,klämma,knuffa,knäppa,Leg,leg,0,62,62,80,0,0,0,0,,,,,,,,,4,7.516,,,,,,2018_Jun_08_1550,59.56797925,verb_norming,001,901,
SQUEEZE,klämma,knuffa,knäppa,1,klämma,knuffa,knäppa,Arm,arm,0,62,62,80,0,1,1,1,,,,,,,,,6,2.943,,,,,,2018_Jun_08_1550,59.56797925,verb_norming,001,901,
SQUEEZE,klämma,knuffa,knäppa,1,klämma,knuffa,knäppa,,,0,62,62,80,,,,,,,,,,,,,,,1,1,2.26452390115,,,2018_Jun_08_1550,59.56797925,verb_norming,001,901,
SCOOP,skyffla,dika,skrapa,1,skyffla,dika,skrapa,Leg,leg,0,63,63,63,0,0,0,0,,,,,,,,,1,4.571,,,,,,2018_Jun_08_1550,59.56797925,verb_norming,001,901,
SCOOP,skyffla,dika,skrapa,1,skyffla,dika,skrapa,Arm,arm,0,63,63,63,0,1,1,1,,,,,,,,,6,1.907,,,,,,2018_Jun_08_1550,59.56797925,verb_norming,001,901,
SCOOP,skyffla,dika,skrapa,1,skyffla,dika,skrapa,,,0,63,63,63,,,,,,,,,,,,,,,2,0,6.32292373742,,,2018_Jun_08_1550,59.56797925,verb_norming,001,901,
STEP,gå,klampa,traska,2,klampa,gå,traska,Leg,leg,0,64,64,84,0,0,0,0,,,,,,,,,7,32.477,,,,,,2018_Jun_08_1550,59.56797925,verb_norming,001,901,
STEP,gå,klampa,traska,2,klampa,gå,traska,Arm,arm,0,64,64,84,0,1,1,1,,,,,,,,,1,1.572,,,,,,2018_Jun_08_1550,59.56797925,verb_norming,001,901,
STEP,gå,klampa,traska,2,klampa,gå,traska,,,0,64,64,84,,,,,,,,,,,,,,,2,1,24.8548273663,,,2018_Jun_08_1550,59.56797925,verb_norming,001,901,
CLAW,klösa,nypa,rispa,2,nypa,klösa,rispa,Leg,leg,0,65,65,9,0,0,0,0,,,,,,,,,1,3.229,,,,,,2018_Jun_08_1550,59.56797925,verb_norming,001,901,
CLAW,klösa,nypa,rispa,2,nypa,klösa,rispa,Arm,arm,0,65,65,9,0,1,1,1,,,,,,,,,6,2.997,,,,,,2018_Jun_08_1550,59.56797925,verb_norming,001,901,
CLAW,klösa,nypa,rispa,2,nypa,klösa,rispa,,,0,65,65,9,,,,,,,,,,,,,,,2,1,1.19096937691,,,2018_Jun_08_1550,59.56797925,verb_norming,001,901,
LIMP,halta,hasa,halka,2,halka,halta,hasa,Leg,leg,0,66,66,41,0,0,0,0,,,,,,,,,7,2.338,,,,,,2018_Jun_08_1550,59.56797925,verb_norming,001,901,
LIMP,halta,hasa,halka,2,halka,halta,hasa,Arm,arm,0,66,66,41,0,1,1,1,,,,,,,,,2,10.325,,,,,,2018_Jun_08_1550,59.56797925,verb_norming,001,901,
LIMP,halta,hasa,halka,2,halka,halta,hasa,,,0,66,66,41,,,,,,,,,,,,,,,2,1,1.71099453726,,,2018_Jun_08_1550,59.56797925,verb_norming,001,901,
TRUDGE,släpa sig fram,kasta sig fram,ta sig fram,2,kasta sig fram,släpa sig fram,ta sig fram,Leg,leg,0,67,67,101,0,0,0,0,,,,,,,,,7,5.407,,,,,,2018_Jun_08_1550,59.56797925,verb_norming,001,901,
TRUDGE,släpa sig fram,kasta sig fram,ta sig fram,2,kasta sig fram,släpa sig fram,ta sig fram,Arm,arm,0,67,67,101,0,1,1,1,,,,,,,,,1,2.039,,,,,,2018_Jun_08_1550,59.56797925,verb_norming,001,901,
TRUDGE,släpa sig fram,kasta sig fram,ta sig fram,2,kasta sig fram,släpa sig fram,ta sig fram,,,0,67,67,101,,,,,,,,,,,,,,,2,1,2.01281289437,,,2018_Jun_08_1550,59.56797925,verb_norming,001,901,
PINCH,nypa,plocka,pensla,2,plocka,nypa,pensla,Leg,leg,0,68,68,48,0,0,0,0,,,,,,,,,1,2.354,,,,,,2018_Jun_08_1550,59.56797925,verb_norming,001,901,
PINCH,nypa,plocka,pensla,2,plocka,nypa,pensla,Arm,arm,0,68,68,48,0,1,1,1,,,,,,,,,7,3.532,,,,,,2018_Jun_08_1550,59.56797925,verb_norming,001,901,
PINCH,nypa,plocka,pensla,2,plocka,nypa,pensla,,,0,68,68,48,,,,,,,,,,,,,,,2,1,5.03154882365,,,2018_Jun_08_1550,59.56797925,verb_norming,001,901,
WRAP,slå in,slå ihop,slå till,3,slå till,slå ihop,slå in,Leg,leg,0,69,69,111,0,0,0,0,,,,,,,,,3,7.405,,,,,,2018_Jun_08_1550,59.56797925,verb_norming,001,901,
WRAP,slå in,slå ihop,slå till,3,slå till,slå ihop,slå in,Arm,arm,0,69,69,111,0,1,1,1,,,,,,,,,6,1.488,,,,,,2018_Jun_08_1550,59.56797925,verb_norming,001,901,
WRAP,slå in,slå ihop,slå till,3,slå till,slå ihop,slå in,,,0,69,69,111,,,,,,,,,,,,,,,3,1,5.76952120258,,,2018_Jun_08_1550,59.56797925,verb_norming,001,901,
ROAM,ströva omkring,ta sig fram,luffa runt,3,luffa runt,ta sig fram,ströva omkring,Leg,leg,0,70,70,58,0,0,0,0,,,,,,,,,5,6.632,,,,,,2018_Jun_08_1550,59.56797925,verb_norming,001,901,
ROAM,ströva omkring,ta sig fram,luffa runt,3,luffa runt,ta sig fram,ströva omkring,Arm,arm,0,70,70,58,0,1,1,1,,,,,,,,,1,1.52,,,,,,2018_Jun_08_1550,59.56797925,verb_norming,001,901,
ROAM,ströva omkring,ta sig fram,luffa runt,3,luffa runt,ta sig fram,ströva omkring,,,0,70,70,58,,,,,,,,,,,,,,,3,1,7.06084396234,,,2018_Jun_08_1550,59.56797925,verb_norming,001,901,
SKIM,skumma,vispa,sleva,2,sleva,skumma,vispa,Leg,leg,0,71,71,71,0,0,0,0,,,,,,,,,1,6.33,,,,,,2018_Jun_08_1550,59.56797925,verb_norming,001,901,
SKIM,skumma,vispa,sleva,2,sleva,skumma,vispa,Arm,arm,0,71,71,71,0,1,1,1,,,,,,,,,5,2.341,,,,,,2018_Jun_08_1550,59.56797925,verb_norming,001,901,
SKIM,skumma,vispa,sleva,2,sleva,skumma,vispa,,,0,71,71,71,,,,,,,,,,,,,,,2,1,3.01900894757,,,2018_Jun_08_1550,59.56797925,verb_norming,001,901,
RUN,springa,rusa,jogga,3,jogga,rusa,springa,Leg,leg,0,72,72,61,0,0,0,0,,,,,,,,,7,3.915,,,,,,2018_Jun_08_1550,59.56797925,verb_norming,001,901,
RUN,springa,rusa,jogga,3,jogga,rusa,springa,Arm,arm,0,72,72,61,0,1,1,1,,,,,,,,,1,0.949,,,,,,2018_Jun_08_1550,59.56797925,verb_norming,001,901,
RUN,springa,rusa,jogga,3,jogga,rusa,springa,,,0,72,72,61,,,,,,,,,,,,,,,3,1,2.06319839934,,,2018_Jun_08_1550,59.56797925,verb_norming,001,901,
POLISH,polera,sopa,tvätta,1,polera,sopa,tvätta,Leg,leg,0,73,73,52,0,0,0,0,,,,,,,,,2,5.928,,,,,,2018_Jun_08_1550,59.56797925,verb_norming,001,901,
POLISH,polera,sopa,tvätta,1,polera,sopa,tvätta,Arm,arm,0,73,73,52,0,1,1,1,,,,,,,,,6,2.56,,,,,,2018_Jun_08_1550,59.56797925,verb_norming,001,901,
POLISH,polera,sopa,tvätta,1,polera,sopa,tvätta,,,0,73,73,52,,,,,,,,,,,,,,,1,1,1.40898376351,,,2018_Jun_08_1550,59.56797925,verb_norming,001,901,
WANDER,vandra,marschera,spatsera,2,spatsera,vandra,marschera,Leg,leg,0,74,74,106,0,0,0,0,,,,,,,,,7,5.122,,,,,,2018_Jun_08_1550,59.56797925,verb_norming,001,901,
WANDER,vandra,marschera,spatsera,2,spatsera,vandra,marschera,Arm,arm,0,74,74,106,0,1,1,1,,,,,,,,,1,4.974,,,,,,2018_Jun_08_1550,59.56797925,verb_norming,001,901,
WANDER,vandra,marschera,spatsera,2,spatsera,vandra,marschera,,,0,74,74,106,,,,,,,,,,,,,,,2,1,1.5926085139,,,2018_Jun_08_1550,59.56797925,verb_norming,001,901,
SNEAK,smyga,hasa,glida,2,hasa,smyga,glida,Leg,leg,0,75,75,78,0,0,0,0,,,,,,,,,7,2.64,,,,,,2018_Jun_08_1550,59.56797925,verb_norming,001,901,
SNEAK,smyga,hasa,glida,2,hasa,smyga,glida,Arm,arm,0,75,75,78,0,1,1,1,,,,,,,,,2,3.096,,,,,,2018_Jun_08_1550,59.56797925,verb_norming,001,901,
SNEAK,smyga,hasa,glida,2,hasa,smyga,glida,,,0,75,75,78,,,,,,,,,,,,,,,2,1,1.89541424104,,,2018_Jun_08_1550,59.56797925,verb_norming,001,901,
SPRINT,spurta,springa,löpa,2,springa,spurta,löpa,Leg,leg,0,76,76,79,0,0,0,0,,,,,,,,,7,2.858,,,,,,2018_Jun_08_1550,59.56797925,verb_norming,001,901,
SPRINT,spurta,springa,löpa,2,springa,spurta,löpa,Arm,arm,0,76,76,79,0,1,1,1,,,,,,,,,3,2.325,,,,,,2018_Jun_08_1550,59.56797925,verb_norming,001,901,
SPRINT,spurta,springa,löpa,2,springa,spurta,löpa,,,0,76,76,79,,,,,,,,,,,,,,,2,1,3.38814863574,,,2018_Jun_08_1550,59.56797925,verb_norming,001,901,
GRIP,gripa om,hålla om,kasta om,2,kasta om,gripa om,hålla om,Leg,leg,0,77,77,29,0,0,0,0,,,,,,,,,2,4.016,,,,,,2018_Jun_08_1550,59.56797925,verb_norming,001,901,
GRIP,gripa om,hålla om,kasta om,2,kasta om,gripa om,hålla om,Arm,arm,0,77,77,29,0,1,1,1,,,,,,,,,7,0.967,,,,,,2018_Jun_08_1550,59.56797925,verb_norming,001,901,
GRIP,gripa om,hålla om,kasta om,2,kasta om,gripa om,hålla om,,,0,77,77,29,,,,,,,,,,,,,,,2,1,6.3389334349,,,2018_Jun_08_1550,59.56797925,verb_norming,001,901,
CLICK,klicka,klappa,klämma,1,klicka,klämma,klappa,Leg,leg,0,78,78,11,0,0,0,0,,,,,,,,,1,2.91,,,,,,2018_Jun_08_1550,59.56797925,verb_norming,001,901,
CLICK,klicka,klappa,klämma,1,klicka,klämma,klappa,Arm,arm,0,78,78,11,0,1,1,1,,,,,,,,,6,1.622,,,,,,2018_Jun_08_1550,59.56797925,verb_norming,001,901,
CLICK,klicka,klappa,klämma,1,klicka,klämma,klappa,,,0,78,78,11,,,,,,,,,,,,,,,1,1,3.0525973087,,,2018_Jun_08_1550,59.56797925,verb_norming,001,901,
HIKE,vandra,flanera,lunka,3,lunka,flanera,vandra,Leg,leg,0,79,79,31,0,0,0,0,,,,,,,,,7,1.972,,,,,,2018_Jun_08_1550,59.56797925,verb_norming,001,901,
HIKE,vandra,flanera,lunka,3,lunka,flanera,vandra,Arm,arm,0,79,79,31,0,1,1,1,,,,,,,,,1,2.812,,,,,,2018_Jun_08_1550,59.56797925,verb_norming,001,901,
HIKE,vandra,flanera,lunka,3,lunka,flanera,vandra,,,0,79,79,31,,,,,,,,,,,,,,,3,1,2.48242173147,,,2018_Jun_08_1550,59.56797925,verb_norming,001,901,
CHOP,hacka,tälja,riva,3,riva,tälja,hacka,Leg,leg,0,80,80,7,0,0,0,0,,,,,,,,,3,5.946,,,,,,2018_Jun_08_1550,59.56797925,verb_norming,001,901,
CHOP,hacka,tälja,riva,3,riva,tälja,hacka,Arm,arm,0,80,80,7,0,1,1,1,,,,,,,,,6,1.639,,,,,,2018_Jun_08_1550,59.56797925,verb_norming,001,901,
CHOP,hacka,tälja,riva,3,riva,tälja,hacka,,,0,80,80,7,,,,,,,,,,,,,,,3,1,1.64368703491,,,2018_Jun_08_1550,59.56797925,verb_norming,001,901,
DUNK,dunka,dumpa,dunsa,1,dunka,dumpa,dunsa,Leg,leg,0,81,81,20,0,0,0,0,,,,,,,,,2,5.659,,,,,,2018_Jun_08_1550,59.56797925,verb_norming,001,901,
DUNK,dunka,dumpa,dunsa,1,dunka,dumpa,dunsa,Arm,arm,0,81,81,20,0,1,1,1,,,,,,,,,6,1.436,,,,,,2018_Jun_08_1550,59.56797925,verb_norming,001,901,
DUNK,dunka,dumpa,dunsa,1,dunka,dumpa,dunsa,,,0,81,81,20,,,,,,,,,,,,,,,1,1,3.23699370122,,,2018_Jun_08_1550,59.56797925,verb_norming,001,901,
TIPTOE,gå på tå,snava,sparka,1,gå på tå,sparka,snava,Leg,leg,0,82,82,95,0,0,0,0,,,,,,,,,7,2.909,,,,,,2018_Jun_08_1550,59.56797925,verb_norming,001,901,
TIPTOE,gå på tå,snava,sparka,1,gå på tå,sparka,snava,Arm,arm,0,82,82,95,0,1,1,1,,,,,,,,,1,1.571,,,,,,2018_Jun_08_1550,59.56797925,verb_norming,001,901,
TIPTOE,gå på tå,snava,sparka,1,gå på tå,sparka,snava,,,0,82,82,95,,,,,,,,,,,,,,,1,1,2.09688198103,,,2018_Jun_08_1550,59.56797925,verb_norming,001,901,
GRATE,riva,hugga,rispa,1,riva,hugga,rispa,Leg,leg,0,83,83,28,0,0,0,0,,,,,,,,,1,3.513,,,,,,2018_Jun_08_1550,59.56797925,verb_norming,001,901,
GRATE,riva,hugga,rispa,1,riva,hugga,rispa,Arm,arm,0,83,83,28,0,1,1,1,,,,,,,,,5,2.376,,,,,,2018_Jun_08_1550,59.56797925,verb_norming,001,901,
GRATE,riva,hugga,rispa,1,riva,hugga,rispa,,,0,83,83,28,,,,,,,,,,,,,,,1,1,1.57670391463,,,2018_Jun_08_1550,59.56797925,verb_norming,001,901,
SHAKE,skaka,röra,vispa,2,vispa,skaka,röra,Leg,leg,0,84,84,69,0,0,0,0,,,,,,,,,5,5.393,,,,,,2018_Jun_08_1550,59.56797925,verb_norming,001,901,
SHAKE,skaka,röra,vispa,2,vispa,skaka,röra,Arm,arm,0,84,84,69,0,1,1,1,,,,,,,,,6,1.169,,,,,,2018_Jun_08_1550,59.56797925,verb_norming,001,901,
SHAKE,skaka,röra,vispa,2,vispa,skaka,röra,,,0,84,84,69,,,,,,,,,,,,,,,2,1,1.25835708579,,,2018_Jun_08_1550,59.56797925,verb_norming,001,901,
SLIDE,glida,ramla,hasa,2,ramla,glida,hasa,Leg,leg,0,85,85,74,0,0,0,0,,,,,,,,,5,5.476,,,,,,2018_Jun_08_1550,59.56797925,verb_norming,001,901,
SLIDE,glida,ramla,hasa,2,ramla,glida,hasa,Arm,arm,0,85,85,74,0,1,1,1,,,,,,,,,6,3.4,,,,,,2018_Jun_08_1550,59.56797925,verb_norming,001,901,
SLIDE,glida,ramla,hasa,2,ramla,glida,hasa,,,0,85,85,74,,,,,,,,,,,,,,,2,1,1.25815084043,,,2018_Jun_08_1550,59.56797925,verb_norming,001,901,
WHIP,piska,klappa,slå,3,klappa,slå,piska,Leg,leg,0,86,86,108,0,0,0,0,,,,,,,,,1,3.564,,,,,,2018_Jun_08_1550,59.56797925,verb_norming,001,901,
WHIP,piska,klappa,slå,3,klappa,slå,piska,Arm,arm,0,86,86,108,0,1,1,1,,,,,,,,,6,2.008,,,,,,2018_Jun_08_1550,59.56797925,verb_norming,001,901,
WHIP,piska,klappa,slå,3,klappa,slå,piska,,,0,86,86,108,,,,,,,,,,,,,,,3,1,1.25812634386,,,2018_Jun_08_1550,59.56797925,verb_norming,001,901,
WALK,gå,promenera,marschera,2,marschera,gå,promenera,Leg,leg,0,87,87,105,0,0,0,0,,,,,,,,,7,2.189,,,,,,2018_Jun_08_1550,59.56797925,verb_norming,001,901,
WALK,gå,promenera,marschera,2,marschera,gå,promenera,Arm,arm,0,87,87,105,0,1,1,1,,,,,,,,,1,0.901,,,,,,2018_Jun_08_1550,59.56797925,verb_norming,001,901,
WALK,gå,promenera,marschera,2,marschera,gå,promenera,,,0,87,87,105,,,,,,,,,,,,,,,2,1,1.02337763526,,,2018_Jun_08_1550,59.56797925,verb_norming,001,901,
SKIP,hoppa,kliva,strutta,2,strutta,hoppa,kliva,Leg,leg,0,88,88,72,0,0,0,0,,,,,,,,,7,5.728,,,,,,2018_Jun_08_1550,59.56797925,verb_norming,001,901,
SKIP,hoppa,kliva,strutta,2,strutta,hoppa,kliva,Arm,arm,0,88,88,72,0,1,1,1,,,,,,,,,1,2.091,,,,,,2018_Jun_08_1550,59.56797925,verb_norming,001,901,
SKIP,hoppa,kliva,strutta,2,strutta,hoppa,kliva,,,0,88,88,72,,,,,,,,,,,,,,,2,1,6.18865721626,,,2018_Jun_08_1550,59.56797925,verb_norming,001,901,
BOUNCE,studsa,dunka,kasta,3,dunka,kasta,studsa,Leg,leg,0,89,89,2,0,0,0,0,,,,,,,,,7,3.294,,,,,,2018_Jun_08_1550,59.56797925,verb_norming,001,901,
BOUNCE,studsa,dunka,kasta,3,dunka,kasta,studsa,Arm,arm,0,89,89,2,0,1,1,1,,,,,,,,,1,12.151,,,,,,2018_Jun_08_1550,59.56797925,verb_norming,001,901,
BOUNCE,studsa,dunka,kasta,3,dunka,kasta,studsa,,,0,89,89,2,,,,,,,,,,,,,,,3,1,1.74458487392,,,2018_Jun_08_1550,59.56797925,verb_norming,001,901,
FLIT,rusa,hasa,svassa,3,svassa,hasa,rusa,Leg,leg,0,90,90,23,0,0,0,0,,,,,,,,,6,3.631,,,,,,2018_Jun_08_1550,59.56797925,verb_norming,001,901,
FLIT,rusa,hasa,svassa,3,svassa,hasa,rusa,Arm,arm,0,90,90,23,0,1,1,1,,,,,,,,,1,2.914,,,,,,2018_Jun_08_1550,59.56797925,verb_norming,001,901,
FLIT,rusa,hasa,svassa,3,svassa,hasa,rusa,,,0,90,90,23,,,,,,,,,,,,,,,3,1,8.08386007556,,,2018_Jun_08_1550,59.56797925,verb_norming,001,901,
PUNCH,slå,knuffa,kasta,1,slå,kasta,knuffa,Leg,leg,0,91,91,55,0,0,0,0,,,,,,,,,1,4.87,,,,,,2018_Jun_08_1550,59.56797925,verb_norming,001,901,
PUNCH,slå,knuffa,kasta,1,slå,kasta,knuffa,Arm,arm,0,91,91,55,0,1,1,1,,,,,,,,,7,1.386,,,,,,2018_Jun_08_1550,59.56797925,verb_norming,001,901,
PUNCH,slå,knuffa,kasta,1,slå,kasta,knuffa,,,0,91,91,55,,,,,,,,,,,,,,,1,1,0.737126456854,,,2018_Jun_08_1550,59.56797925,verb_norming,001,901,
STRUT,svassa,lunka,strosa,2,strosa,svassa,lunka,Leg,leg,0,92,92,90,0,0,0,0,,,,,,,,,6,1.986,,,,,,2018_Jun_08_1550,59.56797925,verb_norming,001,901,
STRUT,svassa,lunka,strosa,2,strosa,svassa,lunka,Arm,arm,0,92,92,90,0,1,1,1,,,,,,,,,1,1.303,,,,,,2018_Jun_08_1550,59.56797925,verb_norming,001,901,
STRUT,svassa,lunka,strosa,2,strosa,svassa,lunka,,,0,92,92,90,,,,,,,,,,,,,,,2,1,4.67792732103,,,2018_Jun_08_1550,59.56797925,verb_norming,001,901,
FILE,fila,putsa,riva,1,fila,putsa,riva,Leg,leg,0,93,93,21,0,0,0,0,,,,,,,,,1,5.711,,,,,,2018_Jun_08_1550,59.56797925,verb_norming,001,901,
FILE,fila,putsa,riva,1,fila,putsa,riva,Arm,arm,0,93,93,21,0,1,1,1,,,,,,,,,5,1.387,,,,,,2018_Jun_08_1550,59.56797925,verb_norming,001,901,
FILE,fila,putsa,riva,1,fila,putsa,riva,,,0,93,93,21,,,,,,,,,,,,,,,1,1,3.06929607115,,,2018_Jun_08_1550,59.56797925,verb_norming,001,901,
SWAY,vingla,tassa,ramla,3,tassa,ramla,vingla,Leg,leg,0,94,94,92,0,0,0,0,,,,,,,,,6,4.218,,,,,,2018_Jun_08_1550,59.56797925,verb_norming,001,901,
SWAY,vingla,tassa,ramla,3,tassa,ramla,vingla,Arm,arm,0,94,94,92,0,1,1,1,,,,,,,,,3,2.947,,,,,,2018_Jun_08_1550,59.56797925,verb_norming,001,901,
SWAY,vingla,tassa,ramla,3,tassa,ramla,vingla,,,0,94,94,92,,,,,,,,,,,,,,,3,1,1.99603590092,,,2018_Jun_08_1550,59.56797925,verb_norming,001,901,
WADE,vada,pulsa,plöja,3,plöja,pulsa,vada,Leg,leg,0,95,95,104,0,0,0,0,,,,,,,,,7,4.118,,,,,,2018_Jun_08_1550,59.56797925,verb_norming,001,901,
WADE,vada,pulsa,plöja,3,plöja,pulsa,vada,Arm,arm,0,95,95,104,0,1,1,1,,,,,,,,,2,1.203,,,,,,2018_Jun_08_1550,59.56797925,verb_norming,001,901,
WADE,vada,pulsa,plöja,3,plöja,pulsa,vada,,,0,95,95,104,,,,,,,,,,,,,,,3,1,1.07357862571,,,2018_Jun_08_1550,59.56797925,verb_norming,001,901,
CLAP,klappa,knäppa,klämma,3,klämma,knäppa,klappa,Leg,leg,0,96,96,8,0,0,0,0,,,,,,,,,1,2.441,,,,,,2018_Jun_08_1550,59.56797925,verb_norming,001,901,
CLAP,klappa,knäppa,klämma,3,klämma,knäppa,klappa,Arm,arm,0,96,96,8,0,1,1,1,,,,,,,,,7,1.471,,,,,,2018_Jun_08_1550,59.56797925,verb_norming,001,901,
CLAP,klappa,knäppa,klämma,3,klämma,knäppa,klappa,,,0,96,96,8,,,,,,,,,,,,,,,3,1,1.27505782377,,,2018_Jun_08_1550,59.56797925,verb_norming,001,901,
PACE,gå fram och tillbaka,luffa runt,rusa fram,3,luffa runt,rusa fram,gå fram och tillbaka,Leg,leg,0,97,97,45,0,0,0,0,,,,,,,,,7,2.021,,,,,,2018_Jun_08_1550,59.56797925,verb_norming,001,901,
PACE,gå fram och tillbaka,luffa runt,rusa fram,3,luffa runt,rusa fram,gå fram och tillbaka,Arm,arm,0,97,97,45,0,1,1,1,,,,,,,,,1,1.756,,,,,,2018_Jun_08_1550,59.56797925,verb_norming,001,901,
PACE,gå fram och tillbaka,luffa runt,rusa fram,3,luffa runt,rusa fram,gå fram och tillbaka,,,0,97,97,45,,,,,,,,,,,,,,,3,1,2.09665914121,,,2018_Jun_08_1550,59.56797925,verb_norming,001,901,
BIND,binda,linda,vinda,2,vinda,binda,linda,Leg,leg,0,98,98,1,0,0,0,0,,,,,,,,,2,3.932,,,,,,2018_Jun_08_1550,59.56797925,verb_norming,001,901,
BIND,binda,linda,vinda,2,vinda,binda,linda,Arm,arm,0,98,98,1,0,1,1,1,,,,,,,,,7,2.057,,,,,,2018_Jun_08_1550,59.56797925,verb_norming,001,901,
BIND,binda,linda,vinda,2,vinda,binda,linda,,,0,98,98,1,,,,,,,,,,,,,,,2,1,1.20784119581,,,2018_Jun_08_1550,59.56797925,verb_norming,001,901,
SLIP,halka,snava,ramla,1,halka,snava,ramla,Leg,leg,0,99,99,75,0,0,0,0,,,,,,,,,7,5.527,,,,,,2018_Jun_08_1550,59.56797925,verb_norming,001,901,
SLIP,halka,snava,ramla,1,halka,snava,ramla,Arm,arm,0,99,99,75,0,1,1,1,,,,,,,,,1,1.857,,,,,,2018_Jun_08_1550,59.56797925,verb_norming,001,901,
SLIP,halka,snava,ramla,1,halka,snava,ramla,,,0,99,99,75,,,,,,,,,,,,,,,1,1,3.42150190876,,,2018_Jun_08_1550,59.56797925,verb_norming,001,901,
SCRAPE,skrapa,rispa,klösa,3,rispa,klösa,skrapa,Leg,leg,0,100,100,64,0,0,0,0,,,,,,,,,1,3.379,,,,,,2018_Jun_08_1550,59.56797925,verb_norming,001,901,
SCRAPE,skrapa,rispa,klösa,3,rispa,klösa,skrapa,Arm,arm,0,100,100,64,0,1,1,1,,,,,,,,,6,3.047,,,,,,2018_Jun_08_1550,59.56797925,verb_norming,001,901,
SCRAPE,skrapa,rispa,klösa,3,rispa,klösa,skrapa,,,0,100,100,64,,,,,,,,,,,,,,,3,1,2.02942473348,,,2018_Jun_08_1550,59.56797925,verb_norming,001,901,
HACK,hacka,skära,kåpa,3,kåpa,skära,hacka,Leg,leg,0,101,101,30,0,0,0,0,,,,,,,,,2,4.587,,,,,,2018_Jun_08_1550,59.56797925,verb_norming,001,901,
HACK,hacka,skära,kåpa,3,kåpa,skära,hacka,Arm,arm,0,101,101,30,0,1,1,1,,,,,,,,,6,1.924,,,,,,2018_Jun_08_1550,59.56797925,verb_norming,001,901,
HACK,hacka,skära,kåpa,3,kåpa,skära,hacka,,,0,101,101,30,,,,,,,,,,,,,,,3,1,1.25824803652,,,2018_Jun_08_1550,59.56797925,verb_norming,001,901,
CARVE,tälja,hacka,riva,1,tälja,hacka,riva,Leg,leg,0,102,102,5,0,0,0,0,,,,,,,,,3,6.495,,,,,,2018_Jun_08_1550,59.56797925,verb_norming,001,901,
CARVE,tälja,hacka,riva,1,tälja,hacka,riva,Arm,arm,0,102,102,5,0,1,1,1,,,,,,,,,6,3.18,,,,,,2018_Jun_08_1550,59.56797925,verb_norming,001,901,
CARVE,tälja,hacka,riva,1,tälja,hacka,riva,,,0,102,102,5,,,,,,,,,,,,,,,1,1,4.52854957356,,,2018_Jun_08_1550,59.56797925,verb_norming,001,901,
BASH,slå,knuffa,trycka,3,knuffa,trycka,slå,Leg,leg,0,103,103,0,0,0,0,0,,,,,,,,,1,5.627,,,,,,2018_Jun_08_1550,59.56797925,verb_norming,001,901,
BASH,slå,knuffa,trycka,3,knuffa,trycka,slå,Arm,arm,0,103,103,0,0,1,1,1,,,,,,,,,5,1.639,,,,,,2018_Jun_08_1550,59.56797925,verb_norming,001,901,
BASH,slå,knuffa,trycka,3,knuffa,trycka,slå,,,0,103,103,0,,,,,,,,,,,,,,,3,1,3.15321027624,,,2018_Jun_08_1550,59.56797925,verb_norming,001,901,
TOSS,slänga,fånga,gripa,1,slänga,gripa,fånga,Leg,leg,0,104,104,96,0,0,0,0,,,,,,,,,1,3.833,,,,,,2018_Jun_08_1550,59.56797925,verb_norming,001,901,
TOSS,slänga,fånga,gripa,1,slänga,gripa,fånga,Arm,arm,0,104,104,96,0,1,1,1,,,,,,,,,6,1.338,,,,,,2018_Jun_08_1550,59.56797925,verb_norming,001,901,
TOSS,slänga,fånga,gripa,1,slänga,gripa,fånga,,,0,104,104,96,,,,,,,,,,,,,,,1,1,1.24130707405,,,2018_Jun_08_1550,59.56797925,verb_norming,001,901,
JOG,jogga,spurta,rusa,2,spurta,jogga,rusa,Leg,leg,0,105,105,34,0,0,0,0,,,,,,,,,7,3.262,,,,,,2018_Jun_08_1550,59.56797925,verb_norming,001,901,
JOG,jogga,spurta,rusa,2,spurta,jogga,rusa,Arm,arm,0,105,105,34,0,1,1,1,,,,,,,,,2,2.473,,,,,,2018_Jun_08_1550,59.56797925,verb_norming,001,901,
JOG,jogga,spurta,rusa,2,spurta,jogga,rusa,,,0,105,105,34,,,,,,,,,,,,,,,2,1,1.15759792901,,,2018_Jun_08_1550,59.56797925,verb_norming,001,901,
LIFT,lyfta,pressa,öka,2,pressa,lyfta,öka,Leg,leg,0,106,106,40,0,0,0,0,,,,,,,,,5,10.726,,,,,,2018_Jun_08_1550,59.56797925,verb_norming,001,901,
LIFT,lyfta,pressa,öka,2,pressa,lyfta,öka,Arm,arm,0,106,106,40,0,1,1,1,,,,,,,,,6,0.633,,,,,,2018_Jun_08_1550,59.56797925,verb_norming,001,901,
LIFT,lyfta,pressa,öka,2,pressa,lyfta,öka,,,0,106,106,40,,,,,,,,,,,,,,,2,1,0.872388250176,,,2018_Jun_08_1550,59.56797925,verb_norming,001,901,
DELVE,gräva,plöja,rensa,2,plöja,gräva,rensa,Leg,leg,0,107,107,18,0,0,0,0,,,,,,,,,1,6.296,,,,,,2018_Jun_08_1550,59.56797925,verb_norming,001,901,
DELVE,gräva,plöja,rensa,2,plöja,gräva,rensa,Arm,arm,0,107,107,18,0,1,1,1,,,,,,,,,1,0.983,,,,,,2018_Jun_08_1550,59.56797925,verb_norming,001,901,
DELVE,gräva,plöja,rensa,2,plöja,gräva,rensa,,,0,107,107,18,,,,,,,,,,,,,,,2,1,13.3163444313,,,2018_Jun_08_1550,59.56797925,verb_norming,001,901,
STAGGER,ragla,lunka,halka,2,halka,ragla,lunka,Leg,leg,0,108,108,82,0,0,0,0,,,,,,,,,7,5.205,,,,,,2018_Jun_08_1550,59.56797925,verb_norming,001,901,
STAGGER,ragla,lunka,halka,2,halka,ragla,lunka,Arm,arm,0,108,108,82,0,1,1,1,,,,,,,,,2,2.524,,,,,,2018_Jun_08_1550,59.56797925,verb_norming,001,901,
STAGGER,ragla,lunka,halka,2,halka,ragla,lunka,,,0,108,108,82,,,,,,,,,,,,,,,2,1,3.32094346585,,,2018_Jun_08_1550,59.56797925,verb_norming,001,901,
DIG,gräva,dränera,dika,1,gräva,dränera,dika,Leg,leg,0,109,109,19,0,0,0,0,,,,,,,,,2,4.62,,,,,,2018_Jun_08_1550,59.56797925,verb_norming,001,901,
DIG,gräva,dränera,dika,1,gräva,dränera,dika,Arm,arm,0,109,109,19,0,1,1,1,,,,,,,,,6,1.453,,,,,,2018_Jun_08_1550,59.56797925,verb_norming,001,901,
DIG,gräva,dränera,dika,1,gräva,dränera,dika,,,0,109,109,19,,,,,,,,,,,,,,,1,1,0.822058060043,,,2018_Jun_08_1550,59.56797925,verb_norming,001,901,
LEAP,hoppa,stega,kliva,2,kliva,hoppa,stega,Leg,leg,0,110,110,39,0,0,0,0,,,,,,,,,7,2.105,,,,,,2018_Jun_08_1550,59.56797925,verb_norming,001,901,
LEAP,hoppa,stega,kliva,2,kliva,hoppa,stega,Arm,arm,0,110,110,39,0,1,1,1,,,,,,,,,1,3.903,,,,,,2018_Jun_08_1550,59.56797925,verb_norming,001,901,
LEAP,hoppa,stega,kliva,2,kliva,hoppa,stega,,,0,110,110,39,,,,,,,,,,,,,,,2,1,4.26015995474,,,2018_Jun_08_1550,59.56797925,verb_norming,001,901,
BRUSH,borsta,skrubba,putsa,1,borsta,skrubba,putsa,Leg,leg,0,111,111,4,0,0,0,0,,,,,,,,,2,5.543,,,,,,2018_Jun_08_1550,59.56797925,verb_norming,001,901,
BRUSH,borsta,skrubba,putsa,1,borsta,skrubba,putsa,Arm,arm,0,111,111,4,0,1,1,1,,,,,,,,,6,1.739,,,,,,2018_Jun_08_1550,59.56797925,verb_norming,001,901,
BRUSH,borsta,skrubba,putsa,1,borsta,skrubba,putsa,,,0,111,111,4,,,,,,,,,,,,,,,1,1,3.622862575,,,2018_Jun_08_1550,59.56797925,verb_norming,001,901,
,,,,,,,,,,,,,,,,,,,,,,,,,,,,,,,space,566.302263247,2018_Jun_08_1550,59.56797925,verb_norming,001,901,
