word,target,distrOne,distrTwo,corrAns,w1,w2,w3,category,category_lowercase,trials.thisRepN,trials.thisTrialN,trials.thisN,trials.thisIndex,ArmLeg_loop.thisRepN,ArmLeg_loop.thisTrialN,ArmLeg_loop.thisN,ArmLeg_loop.thisIndex,key_resp_3.keys,key_resp_3.rt,key_resp_6.keys,key_resp_6.rt,key_resp_5.keys,key_resp_5.rt,key_resp_4.keys,key_resp_4.rt,rating.response,rating.rt,answer.keys,answer.corr,answer.rt,key_resp_7.keys,key_resp_7.rt,date,frameRate,expName,session,participant,
,,,,,,,,,,,,,,,,,,space,57.3747219366,,,,,,,,,,,,,,2018_Jun_11_1400,59.1284337224,verb_norming,001,902,
,,,,,,,,,,,,,,,,,,,,space,16.4194139788,,,,,,,,,,,,2018_Jun_11_1400,59.1284337224,verb_norming,001,902,
,,,,,,,,,,,,,,,,,,,,,,space,11.2035605544,,,,,,,,,,2018_Jun_11_1400,59.1284337224,verb_norming,001,902,
,,,,,,,,,,,,,,,,,,,,,,,,space,63.0437168942,,,,,,,,2018_Jun_11_1400,59.1284337224,verb_norming,001,902,
GRAB,gripa tag i,fästa ihop,smälla till,3,fästa ihop,smälla till,gripa tag i,Arm,arm,0,0,0,26,0,0,0,0,,,,,,,,,7,4.859,,,,,,2018_Jun_11_1400,59.1284337224,verb_norming,001,902,
GRAB,gripa tag i,fästa ihop,smälla till,3,fästa ihop,smälla till,gripa tag i,Leg,leg,0,0,0,26,0,1,1,1,,,,,,,,,1,3.718,,,,,,2018_Jun_11_1400,59.1284337224,verb_norming,001,902,
GRAB,gripa tag i,fästa ihop,smälla till,3,fästa ihop,smälla till,gripa tag i,,,0,0,0,26,,,,,,,,,,,,,,,3,1,3.16999815876,,,2018_Jun_11_1400,59.1284337224,verb_norming,001,902,
CARVE,tälja,hacka,riva,1,tälja,riva,hacka,Arm,arm,0,1,1,5,0,0,0,0,,,,,,,,,7,5.089,,,,,,2018_Jun_11_1400,59.1284337224,verb_norming,001,902,
CARVE,tälja,hacka,riva,1,tälja,riva,hacka,Leg,leg,0,1,1,5,0,1,1,1,,,,,,,,,1,2.964,,,,,,2018_Jun_11_1400,59.1284337224,verb_norming,001,902,
CARVE,tälja,hacka,riva,1,tälja,riva,hacka,,,0,1,1,5,,,,,,,,,,,,,,,1,1,2.83460653096,,,2018_Jun_11_1400,59.1284337224,verb_norming,001,902,
TUG,rycka,pressa,slå,3,slå,pressa,rycka,Arm,arm,0,2,2,102,0,0,0,0,,,,,,,,,7,4.991,,,,,,2018_Jun_11_1400,59.1284337224,verb_norming,001,902,
TUG,rycka,pressa,slå,3,slå,pressa,rycka,Leg,leg,0,2,2,102,0,1,1,1,,,,,,,,,1,1.506,,,,,,2018_Jun_11_1400,59.1284337224,verb_norming,001,902,
TUG,rycka,pressa,slå,3,slå,pressa,rycka,,,0,2,2,102,,,,,,,,,,,,,,,3,1,6.33983273921,,,2018_Jun_11_1400,59.1284337224,verb_norming,001,902,
HOP,skutta,kliva,studsa,1,skutta,studsa,kliva,Arm,arm,0,3,3,32,0,0,0,0,,,,,,,,,1,3.763,,,,,,2018_Jun_11_1400,59.1284337224,verb_norming,001,902,
HOP,skutta,kliva,studsa,1,skutta,studsa,kliva,Leg,leg,0,3,3,32,0,1,1,1,,,,,,,,,7,4.791,,,,,,2018_Jun_11_1400,59.1284337224,verb_norming,001,902,
HOP,skutta,kliva,studsa,1,skutta,studsa,kliva,,,0,3,3,32,,,,,,,,,,,,,,,1,1,4.37771929173,,,2018_Jun_11_1400,59.1284337224,verb_norming,001,902,
FOLD,vika ihop,knyta ihop,bunta ihop,3,knyta ihop,bunta ihop,vika ihop,Arm,arm,0,4,4,24,0,0,0,0,,,,,,,,,7,5.96,,,,,,2018_Jun_11_1400,59.1284337224,verb_norming,001,902,
FOLD,vika ihop,knyta ihop,bunta ihop,3,knyta ihop,bunta ihop,vika ihop,Leg,leg,0,4,4,24,0,1,1,1,,,,,,,,,1,1.671,,,,,,2018_Jun_11_1400,59.1284337224,verb_norming,001,902,
FOLD,vika ihop,knyta ihop,bunta ihop,3,knyta ihop,bunta ihop,vika ihop,,,0,4,4,24,,,,,,,,,,,,,,,3,1,2.41547743133,,,2018_Jun_11_1400,59.1284337224,verb_norming,001,902,
BIND,binda,linda,vinda,3,vinda,linda,binda,Arm,arm,0,5,5,1,0,0,0,0,,,,,,,,,7,6.212,,,,,,2018_Jun_11_1400,59.1284337224,verb_norming,001,902,
BIND,binda,linda,vinda,3,vinda,linda,binda,Leg,leg,0,5,5,1,0,1,1,1,,,,,,,,,1,1.604,,,,,,2018_Jun_11_1400,59.1284337224,verb_norming,001,902,
BIND,binda,linda,vinda,3,vinda,linda,binda,,,0,5,5,1,,,,,,,,,,,,,,,3,1,2.26447016039,,,2018_Jun_11_1400,59.1284337224,verb_norming,001,902,
STAMP,stampa,kliva,skutta,1,stampa,skutta,kliva,Arm,arm,0,6,6,83,0,0,0,0,,,,,,,,,1,2.941,,,,,,2018_Jun_11_1400,59.1284337224,verb_norming,001,902,
STAMP,stampa,kliva,skutta,1,stampa,skutta,kliva,Leg,leg,0,6,6,83,0,1,1,1,,,,,,,,,7,1.503,,,,,,2018_Jun_11_1400,59.1284337224,verb_norming,001,902,
STAMP,stampa,kliva,skutta,1,stampa,skutta,kliva,,,0,6,6,83,,,,,,,,,,,,,,,1,1,9.62713274103,,,2018_Jun_11_1400,59.1284337224,verb_norming,001,902,
WHIP,piska,klappa,slå,2,klappa,piska,slå,Arm,arm,0,7,7,108,0,0,0,0,,,,,,,,,7,6.601,,,,,,2018_Jun_11_1400,59.1284337224,verb_norming,001,902,
WHIP,piska,klappa,slå,2,klappa,piska,slå,Leg,leg,0,7,7,108,0,1,1,1,,,,,,,,,1,1.857,,,,,,2018_Jun_11_1400,59.1284337224,verb_norming,001,902,
WHIP,piska,klappa,slå,2,klappa,piska,slå,,,0,7,7,108,,,,,,,,,,,,,,,2,1,2.43212962356,,,2018_Jun_11_1400,59.1284337224,verb_norming,001,902,
JUMP,hoppa,kliva,lyfta,3,kliva,lyfta,hoppa,Arm,arm,0,8,8,35,0,0,0,0,,,,,,,,,1,3.427,,,,,,2018_Jun_11_1400,59.1284337224,verb_norming,001,902,
JUMP,hoppa,kliva,lyfta,3,kliva,lyfta,hoppa,Leg,leg,0,8,8,35,0,1,1,1,,,,,,,,,7,2.357,,,,,,2018_Jun_11_1400,59.1284337224,verb_norming,001,902,
JUMP,hoppa,kliva,lyfta,3,kliva,lyfta,hoppa,,,0,8,8,35,,,,,,,,,,,,,,,3,1,1.91357494455,,,2018_Jun_11_1400,59.1284337224,verb_norming,001,902,
STUMBLE,snubbla,glida,svaja,1,snubbla,glida,svaja,Arm,arm,0,9,9,91,0,0,0,0,,,,,,,,,1,2.64,,,,,,2018_Jun_11_1400,59.1284337224,verb_norming,001,902,
STUMBLE,snubbla,glida,svaja,1,snubbla,glida,svaja,Leg,leg,0,9,9,91,0,1,1,1,,,,,,,,,7,1.368,,,,,,2018_Jun_11_1400,59.1284337224,verb_norming,001,902,
STUMBLE,snubbla,glida,svaja,1,snubbla,glida,svaja,,,0,9,9,91,,,,,,,,,,,,,,,1,1,1.62732476773,,,2018_Jun_11_1400,59.1284337224,verb_norming,001,902,
TROT,trava,promenera,flanera,1,trava,promenera,flanera,Arm,arm,0,10,10,100,0,0,0,0,,,,,,,,,1,3.564,,,,,,2018_Jun_11_1400,59.1284337224,verb_norming,001,902,
TROT,trava,promenera,flanera,1,trava,promenera,flanera,Leg,leg,0,10,10,100,0,1,1,1,,,,,,,,,7,1.135,,,,,,2018_Jun_11_1400,59.1284337224,verb_norming,001,902,
TROT,trava,promenera,flanera,1,trava,promenera,flanera,,,0,10,10,100,,,,,,,,,,,,,,,2,0,5.87001214589,,,2018_Jun_11_1400,59.1284337224,verb_norming,001,902,
SPRINT,spurta,springa,löpa,2,löpa,spurta,springa,Arm,arm,0,11,11,79,0,0,0,0,,,,,,,,,1,3.931,,,,,,2018_Jun_11_1400,59.1284337224,verb_norming,001,902,
SPRINT,spurta,springa,löpa,2,löpa,spurta,springa,Leg,leg,0,11,11,79,0,1,1,1,,,,,,,,,7,2.24,,,,,,2018_Jun_11_1400,59.1284337224,verb_norming,001,902,
SPRINT,spurta,springa,löpa,2,löpa,spurta,springa,,,0,11,11,79,,,,,,,,,,,,,,,2,1,7.79900217235,,,2018_Jun_11_1400,59.1284337224,verb_norming,001,902,
DUNK,dunka,dumpa,dunsa,2,dunsa,dunka,dumpa,Arm,arm,0,12,12,20,0,0,0,0,,,,,,,,,7,5.776,,,,,,2018_Jun_11_1400,59.1284337224,verb_norming,001,902,
DUNK,dunka,dumpa,dunsa,2,dunsa,dunka,dumpa,Leg,leg,0,12,12,20,0,1,1,1,,,,,,,,,1,3.801,,,,,,2018_Jun_11_1400,59.1284337224,verb_norming,001,902,
DUNK,dunka,dumpa,dunsa,2,dunsa,dunka,dumpa,,,0,12,12,20,,,,,,,,,,,,,,,2,1,3.95829029854,,,2018_Jun_11_1400,59.1284337224,verb_norming,001,902,
TRUDGE,släpa sig fram,kasta sig fram,ta sig fram,1,släpa sig fram,kasta sig fram,ta sig fram,Arm,arm,0,13,13,101,0,0,0,0,,,,,,,,,1,3.042,,,,,,2018_Jun_11_1400,59.1284337224,verb_norming,001,902,
TRUDGE,släpa sig fram,kasta sig fram,ta sig fram,1,släpa sig fram,kasta sig fram,ta sig fram,Leg,leg,0,13,13,101,0,1,1,1,,,,,,,,,7,1.62,,,,,,2018_Jun_11_1400,59.1284337224,verb_norming,001,902,
TRUDGE,släpa sig fram,kasta sig fram,ta sig fram,1,släpa sig fram,kasta sig fram,ta sig fram,,,0,13,13,101,,,,,,,,,,,,,,,3,0,5.97101345056,,,2018_Jun_11_1400,59.1284337224,verb_norming,001,902,
PLOD,lunka,pulsa,vingla,3,pulsa,vingla,lunka,Arm,arm,0,14,14,49,0,0,0,0,,,,,,,,,4,6.046,,,,,,2018_Jun_11_1400,59.1284337224,verb_norming,001,902,
PLOD,lunka,pulsa,vingla,3,pulsa,vingla,lunka,Leg,leg,0,14,14,49,0,1,1,1,,,,,,,,,4,1.437,,,,,,2018_Jun_11_1400,59.1284337224,verb_norming,001,902,
PLOD,lunka,pulsa,vingla,3,pulsa,vingla,lunka,,,0,14,14,49,,,,,,,,,,,,,,,1,0,4.86419365775,,,2018_Jun_11_1400,59.1284337224,verb_norming,001,902,
SLIP,halka,snava,ramla,2,ramla,halka,snava,Arm,arm,0,15,15,75,0,0,0,0,,,,,,,,,1,6.215,,,,,,2018_Jun_11_1400,59.1284337224,verb_norming,001,902,
SLIP,halka,snava,ramla,2,ramla,halka,snava,Leg,leg,0,15,15,75,0,1,1,1,,,,,,,,,7,10.109,,,,,,2018_Jun_11_1400,59.1284337224,verb_norming,001,902,
SLIP,halka,snava,ramla,2,ramla,halka,snava,,,0,15,15,75,,,,,,,,,,,,,,,1,0,12.6459059196,,,2018_Jun_11_1400,59.1284337224,verb_norming,001,902,
STAGGER,ragla,lunka,halka,3,lunka,halka,ragla,Arm,arm,0,16,16,82,0,0,0,0,,,,,,,,,7,2.825,,,,,,2018_Jun_11_1400,59.1284337224,verb_norming,001,902,
STAGGER,ragla,lunka,halka,3,lunka,halka,ragla,Leg,leg,0,16,16,82,0,1,1,1,,,,,,,,,1,1.654,,,,,,2018_Jun_11_1400,59.1284337224,verb_norming,001,902,
STAGGER,ragla,lunka,halka,3,lunka,halka,ragla,,,0,16,16,82,,,,,,,,,,,,,,,3,1,8.18455425703,,,2018_Jun_11_1400,59.1284337224,verb_norming,001,902,
CRAWL,kravla,huka,klättra,2,huka,kravla,klättra,Arm,arm,0,17,17,14,0,0,0,0,,,,,,,,,4,4.605,,,,,,2018_Jun_11_1400,59.1284337224,verb_norming,001,902,
CRAWL,kravla,huka,klättra,2,huka,kravla,klättra,Leg,leg,0,17,17,14,0,1,1,1,,,,,,,,,4,1.167,,,,,,2018_Jun_11_1400,59.1284337224,verb_norming,001,902,
CRAWL,kravla,huka,klättra,2,huka,kravla,klättra,,,0,17,17,14,,,,,,,,,,,,,,,2,1,2.08011069589,,,2018_Jun_11_1400,59.1284337224,verb_norming,001,902,
CATCH,fånga,krama,omfamna,2,krama,fånga,omfamna,Arm,arm,0,18,18,6,0,0,0,0,,,,,,,,,7,3.293,,,,,,2018_Jun_11_1400,59.1284337224,verb_norming,001,902,
CATCH,fånga,krama,omfamna,2,krama,fånga,omfamna,Leg,leg,0,18,18,6,0,1,1,1,,,,,,,,,1,1.371,,,,,,2018_Jun_11_1400,59.1284337224,verb_norming,001,902,
CATCH,fånga,krama,omfamna,2,krama,fånga,omfamna,,,0,18,18,6,,,,,,,,,,,,,,,2,1,1.77808667121,,,2018_Jun_11_1400,59.1284337224,verb_norming,001,902,
PUSH,knuffa,kasta,klämma,2,kasta,knuffa,klämma,Arm,arm,0,19,19,56,0,0,0,0,,,,,,,,,7,3.096,,,,,,2018_Jun_11_1400,59.1284337224,verb_norming,001,902,
PUSH,knuffa,kasta,klämma,2,kasta,knuffa,klämma,Leg,leg,0,19,19,56,0,1,1,1,,,,,,,,,4,7.912,,,,,,2018_Jun_11_1400,59.1284337224,verb_norming,001,902,
PUSH,knuffa,kasta,klämma,2,kasta,knuffa,klämma,,,0,19,19,56,,,,,,,,,,,,,,,2,1,2.09677750743,,,2018_Jun_11_1400,59.1284337224,verb_norming,001,902,
DIG,gräva,dränera,dika,2,dika,gräva,dränera,Arm,arm,0,20,20,19,0,0,0,0,,,,,,,,,7,3.9,,,,,,2018_Jun_11_1400,59.1284337224,verb_norming,001,902,
DIG,gräva,dränera,dika,2,dika,gräva,dränera,Leg,leg,0,20,20,19,0,1,1,1,,,,,,,,,1,2.293,,,,,,2018_Jun_11_1400,59.1284337224,verb_norming,001,902,
DIG,gräva,dränera,dika,2,dika,gräva,dränera,,,0,20,20,19,,,,,,,,,,,,,,,2,1,3.79051743689,,,2018_Jun_11_1400,59.1284337224,verb_norming,001,902,
CLICK,klicka,klappa,klämma,2,klämma,klicka,klappa,Arm,arm,0,21,21,11,0,0,0,0,,,,,,,,,7,6.935,,,,,,2018_Jun_11_1400,59.1284337224,verb_norming,001,902,
CLICK,klicka,klappa,klämma,2,klämma,klicka,klappa,Leg,leg,0,21,21,11,0,1,1,1,,,,,,,,,1,1.89,,,,,,2018_Jun_11_1400,59.1284337224,verb_norming,001,902,
CLICK,klicka,klappa,klämma,2,klämma,klicka,klappa,,,0,21,21,11,,,,,,,,,,,,,,,2,1,6.02119642909,,,2018_Jun_11_1400,59.1284337224,verb_norming,001,902,
GRASP,gripa,klämma,omfamna,2,klämma,gripa,omfamna,Arm,arm,0,22,22,27,0,0,0,0,,,,,,,,,7,2.273,,,,,,2018_Jun_11_1400,59.1284337224,verb_norming,001,902,
GRASP,gripa,klämma,omfamna,2,klämma,gripa,omfamna,Leg,leg,0,22,22,27,0,1,1,1,,,,,,,,,1,2.008,,,,,,2018_Jun_11_1400,59.1284337224,verb_norming,001,902,
GRASP,gripa,klämma,omfamna,2,klämma,gripa,omfamna,,,0,22,22,27,,,,,,,,,,,,,,,2,1,5.90368082791,,,2018_Jun_11_1400,59.1284337224,verb_norming,001,902,
SKIP,hoppa,kliva,strutta,3,kliva,strutta,hoppa,Arm,arm,0,23,23,72,0,0,0,0,,,,,,,,,1,5.343,,,,,,2018_Jun_11_1400,59.1284337224,verb_norming,001,902,
SKIP,hoppa,kliva,strutta,3,kliva,strutta,hoppa,Leg,leg,0,23,23,72,0,1,1,1,,,,,,,,,7,2.176,,,,,,2018_Jun_11_1400,59.1284337224,verb_norming,001,902,
SKIP,hoppa,kliva,strutta,3,kliva,strutta,hoppa,,,0,23,23,72,,,,,,,,,,,,,,,3,1,3.37149264806,,,2018_Jun_11_1400,59.1284337224,verb_norming,001,902,
STIR,röra,sleva,vispa,3,sleva,vispa,röra,Arm,arm,0,24,24,85,0,0,0,0,,,,,,,,,7,2.743,,,,,,2018_Jun_11_1400,59.1284337224,verb_norming,001,902,
STIR,röra,sleva,vispa,3,sleva,vispa,röra,Leg,leg,0,24,24,85,0,1,1,1,,,,,,,,,1,2.528,,,,,,2018_Jun_11_1400,59.1284337224,verb_norming,001,902,
STIR,röra,sleva,vispa,3,sleva,vispa,röra,,,0,24,24,85,,,,,,,,,,,,,,,3,1,1.62726036371,,,2018_Jun_11_1400,59.1284337224,verb_norming,001,902,
SLITHER,hasa,glida,trilla,2,glida,hasa,trilla,Arm,arm,0,25,25,76,0,0,0,0,,,,,,,,,4,4.251,,,,,,2018_Jun_11_1400,59.1284337224,verb_norming,001,902,
SLITHER,hasa,glida,trilla,2,glida,hasa,trilla,Leg,leg,0,25,25,76,0,1,1,1,,,,,,,,,4,0.833,,,,,,2018_Jun_11_1400,59.1284337224,verb_norming,001,902,
SLITHER,hasa,glida,trilla,2,glida,hasa,trilla,,,0,25,25,76,,,,,,,,,,,,,,,2,1,3.0190473895,,,2018_Jun_11_1400,59.1284337224,verb_norming,001,902,
WADE,vada,pulsa,plöja,1,vada,pulsa,plöja,Arm,arm,0,26,26,104,0,0,0,0,,,,,,,,,1,3.463,,,,,,2018_Jun_11_1400,59.1284337224,verb_norming,001,902,
WADE,vada,pulsa,plöja,1,vada,pulsa,plöja,Leg,leg,0,26,26,104,0,1,1,1,,,,,,,,,7,1.437,,,,,,2018_Jun_11_1400,59.1284337224,verb_norming,001,902,
WADE,vada,pulsa,plöja,1,vada,pulsa,plöja,,,0,26,26,104,,,,,,,,,,,,,,,1,1,1.27494233272,,,2018_Jun_11_1400,59.1284337224,verb_norming,001,902,
SCRAPE,skrapa,rispa,klösa,3,rispa,klösa,skrapa,Arm,arm,0,27,27,64,0,0,0,0,,,,,,,,,4,3.749,,,,,,2018_Jun_11_1400,59.1284337224,verb_norming,001,902,
SCRAPE,skrapa,rispa,klösa,3,rispa,klösa,skrapa,Leg,leg,0,27,27,64,0,1,1,1,,,,,,,,,4,0.715,,,,,,2018_Jun_11_1400,59.1284337224,verb_norming,001,902,
SCRAPE,skrapa,rispa,klösa,3,rispa,klösa,skrapa,,,0,27,27,64,,,,,,,,,,,,,,,3,1,5.66918421841,,,2018_Jun_11_1400,59.1284337224,verb_norming,001,902,
BRAID,fläta,knyta,binda,3,binda,knyta,fläta,Arm,arm,0,28,28,3,0,0,0,0,,,,,,,,,7,3.41,,,,,,2018_Jun_11_1400,59.1284337224,verb_norming,001,902,
BRAID,fläta,knyta,binda,3,binda,knyta,fläta,Leg,leg,0,28,28,3,0,1,1,1,,,,,,,,,1,1.453,,,,,,2018_Jun_11_1400,59.1284337224,verb_norming,001,902,
BRAID,fläta,knyta,binda,3,binda,knyta,fläta,,,0,28,28,3,,,,,,,,,,,,,,,3,1,1.67744689829,,,2018_Jun_11_1400,59.1284337224,verb_norming,001,902,
MOUNT,gå uppför,ströva runt,kliva över,2,ströva runt,gå uppför,kliva över,Arm,arm,0,29,29,43,0,0,0,0,,,,,,,,,4,8.023,,,,,,2018_Jun_11_1400,59.1284337224,verb_norming,001,902,
MOUNT,gå uppför,ströva runt,kliva över,2,ströva runt,gå uppför,kliva över,Leg,leg,0,29,29,43,0,1,1,1,,,,,,,,,7,1.402,,,,,,2018_Jun_11_1400,59.1284337224,verb_norming,001,902,
MOUNT,gå uppför,ströva runt,kliva över,2,ströva runt,gå uppför,kliva över,,,0,29,29,43,,,,,,,,,,,,,,,2,1,2.58322263481,,,2018_Jun_11_1400,59.1284337224,verb_norming,001,902,
GLIDE,glida,hasa,snava,3,hasa,snava,glida,Arm,arm,0,30,30,25,0,0,0,0,,,,,,,,,4,5.106,,,,,,2018_Jun_11_1400,59.1284337224,verb_norming,001,902,
GLIDE,glida,hasa,snava,3,hasa,snava,glida,Leg,leg,0,30,30,25,0,1,1,1,,,,,,,,,4,1.721,,,,,,2018_Jun_11_1400,59.1284337224,verb_norming,001,902,
GLIDE,glida,hasa,snava,3,hasa,snava,glida,,,0,30,30,25,,,,,,,,,,,,,,,3,1,2.58313254821,,,2018_Jun_11_1400,59.1284337224,verb_norming,001,902,
SKIM,skumma,vispa,sleva,1,skumma,sleva,vispa,Arm,arm,0,31,31,71,0,0,0,0,,,,,,,,,4,4.989,,,,,,2018_Jun_11_1400,59.1284337224,verb_norming,001,902,
SKIM,skumma,vispa,sleva,1,skumma,sleva,vispa,Leg,leg,0,31,31,71,0,1,1,1,,,,,,,,,4,0.582,,,,,,2018_Jun_11_1400,59.1284337224,verb_norming,001,902,
SKIM,skumma,vispa,sleva,1,skumma,sleva,vispa,,,0,31,31,71,,,,,,,,,,,,,,,1,1,6.65860457435,,,2018_Jun_11_1400,59.1284337224,verb_norming,001,902,
FILE,fila,putsa,riva,2,riva,fila,putsa,Arm,arm,0,32,32,21,0,0,0,0,,,,,,,,,7,5.544,,,,,,2018_Jun_11_1400,59.1284337224,verb_norming,001,902,
FILE,fila,putsa,riva,2,riva,fila,putsa,Leg,leg,0,32,32,21,0,1,1,1,,,,,,,,,1,1.858,,,,,,2018_Jun_11_1400,59.1284337224,verb_norming,001,902,
FILE,fila,putsa,riva,2,riva,fila,putsa,,,0,32,32,21,,,,,,,,,,,,,,,2,1,6.22240208811,,,2018_Jun_11_1400,59.1284337224,verb_norming,001,902,
BASH,slå,knuffa,trycka,1,slå,trycka,knuffa,Arm,arm,0,33,33,0,0,0,0,0,,,,,,,,,7,4.186,,,,,,2018_Jun_11_1400,59.1284337224,verb_norming,001,902,
BASH,slå,knuffa,trycka,1,slå,trycka,knuffa,Leg,leg,0,33,33,0,0,1,1,1,,,,,,,,,1,1.253,,,,,,2018_Jun_11_1400,59.1284337224,verb_norming,001,902,
BASH,slå,knuffa,trycka,1,slå,trycka,knuffa,,,0,33,33,0,,,,,,,,,,,,,,,1,1,1.86208531517,,,2018_Jun_11_1400,59.1284337224,verb_norming,001,902,
CHOP,hacka,tälja,riva,3,tälja,riva,hacka,Arm,arm,0,34,34,7,0,0,0,0,,,,,,,,,7,2.038,,,,,,2018_Jun_11_1400,59.1284337224,verb_norming,001,902,
CHOP,hacka,tälja,riva,3,tälja,riva,hacka,Leg,leg,0,34,34,7,0,1,1,1,,,,,,,,,1,1.384,,,,,,2018_Jun_11_1400,59.1284337224,verb_norming,001,902,
CHOP,hacka,tälja,riva,3,tälja,riva,hacka,,,0,34,34,7,,,,,,,,,,,,,,,3,1,2.44892089685,,,2018_Jun_11_1400,59.1284337224,verb_norming,001,902,
SKATE,åka skridskor,åka skidor,åka kälke,3,åka kälke,åka skidor,åka skridskor,Arm,arm,0,35,35,70,0,0,0,0,,,,,,,,,1,3.715,,,,,,2018_Jun_11_1400,59.1284337224,verb_norming,001,902,
SKATE,åka skridskor,åka skidor,åka kälke,3,åka kälke,åka skidor,åka skridskor,Leg,leg,0,35,35,70,0,1,1,1,,,,,,,,,7,1.203,,,,,,2018_Jun_11_1400,59.1284337224,verb_norming,001,902,
SKATE,åka skridskor,åka skidor,åka kälke,3,åka kälke,åka skidor,åka skridskor,,,0,35,35,70,,,,,,,,,,,,,,,3,1,4.00785136343,,,2018_Jun_11_1400,59.1284337224,verb_norming,001,902,
RUB,gnugga,riva,klappa,3,riva,klappa,gnugga,Arm,arm,0,36,36,60,0,0,0,0,,,,,,,,,7,5.075,,,,,,2018_Jun_11_1400,59.1284337224,verb_norming,001,902,
RUB,gnugga,riva,klappa,3,riva,klappa,gnugga,Leg,leg,0,36,36,60,0,1,1,1,,,,,,,,,1,1.406,,,,,,2018_Jun_11_1400,59.1284337224,verb_norming,001,902,
RUB,gnugga,riva,klappa,3,riva,klappa,gnugga,,,0,36,36,60,,,,,,,,,,,,,,,3,1,3.17014040076,,,2018_Jun_11_1400,59.1284337224,verb_norming,001,902,
PULL,dra,slänga,släpa,1,dra,slänga,släpa,Arm,arm,0,37,37,54,0,0,0,0,,,,,,,,,7,2.291,,,,,,2018_Jun_11_1400,59.1284337224,verb_norming,001,902,
PULL,dra,slänga,släpa,1,dra,slänga,släpa,Leg,leg,0,37,37,54,0,1,1,1,,,,,,,,,1,2.746,,,,,,2018_Jun_11_1400,59.1284337224,verb_norming,001,902,
PULL,dra,slänga,släpa,1,dra,slänga,släpa,,,0,37,37,54,,,,,,,,,,,,,,,1,1,1.610328824,,,2018_Jun_11_1400,59.1284337224,verb_norming,001,902,
ROAM,ströva omkring,ta sig fram,luffa runt,2,ta sig fram,ströva omkring,luffa runt,Arm,arm,0,38,38,58,0,0,0,0,,,,,,,,,1,4.904,,,,,,2018_Jun_11_1400,59.1284337224,verb_norming,001,902,
ROAM,ströva omkring,ta sig fram,luffa runt,2,ta sig fram,ströva omkring,luffa runt,Leg,leg,0,38,38,58,0,1,1,1,,,,,,,,,4,2.576,,,,,,2018_Jun_11_1400,59.1284337224,verb_norming,001,902,
ROAM,ströva omkring,ta sig fram,luffa runt,2,ta sig fram,ströva omkring,luffa runt,,,0,38,38,58,,,,,,,,,,,,,,,3,0,4.12634882955,,,2018_Jun_11_1400,59.1284337224,verb_norming,001,902,
PINCH,nypa,plocka,pensla,1,nypa,pensla,plocka,Arm,arm,0,39,39,48,0,0,0,0,,,,,,,,,7,2.607,,,,,,2018_Jun_11_1400,59.1284337224,verb_norming,001,902,
PINCH,nypa,plocka,pensla,1,nypa,pensla,plocka,Leg,leg,0,39,39,48,0,1,1,1,,,,,,,,,1,1.956,,,,,,2018_Jun_11_1400,59.1284337224,verb_norming,001,902,
PINCH,nypa,plocka,pensla,1,nypa,pensla,plocka,,,0,39,39,48,,,,,,,,,,,,,,,1,1,1.6606508836,,,2018_Jun_11_1400,59.1284337224,verb_norming,001,902,
DELVE,gräva,plöja,rensa,3,rensa,plöja,gräva,Arm,arm,0,40,40,18,0,0,0,0,,,,,,,,,4,3.479,,,,,,2018_Jun_11_1400,59.1284337224,verb_norming,001,902,
DELVE,gräva,plöja,rensa,3,rensa,plöja,gräva,Leg,leg,0,40,40,18,0,1,1,1,,,,,,,,,4,0.514,,,,,,2018_Jun_11_1400,59.1284337224,verb_norming,001,902,
DELVE,gräva,plöja,rensa,3,rensa,plöja,gräva,,,0,40,40,18,,,,,,,,,,,,,,,1,0,7.64817981602,,,2018_Jun_11_1400,59.1284337224,verb_norming,001,902,
PACE,gå fram och tillbaka,luffa runt,rusa fram,3,luffa runt,rusa fram,gå fram och tillbaka,Arm,arm,0,41,41,45,0,0,0,0,,,,,,,,,1,4.269,,,,,,2018_Jun_11_1400,59.1284337224,verb_norming,001,902,
PACE,gå fram och tillbaka,luffa runt,rusa fram,3,luffa runt,rusa fram,gå fram och tillbaka,Leg,leg,0,41,41,45,0,1,1,1,,,,,,,,,7,0.817,,,,,,2018_Jun_11_1400,59.1284337224,verb_norming,001,902,
PACE,gå fram och tillbaka,luffa runt,rusa fram,3,luffa runt,rusa fram,gå fram och tillbaka,,,0,41,41,45,,,,,,,,,,,,,,,3,1,3.62295280173,,,2018_Jun_11_1400,59.1284337224,verb_norming,001,902,
LEAP,hoppa,stega,kliva,3,kliva,stega,hoppa,Arm,arm,0,42,42,39,0,0,0,0,,,,,,,,,1,4.135,,,,,,2018_Jun_11_1400,59.1284337224,verb_norming,001,902,
LEAP,hoppa,stega,kliva,3,kliva,stega,hoppa,Leg,leg,0,42,42,39,0,1,1,1,,,,,,,,,7,1.237,,,,,,2018_Jun_11_1400,59.1284337224,verb_norming,001,902,
LEAP,hoppa,stega,kliva,3,kliva,stega,hoppa,,,0,42,42,39,,,,,,,,,,,,,,,3,1,7.51392075066,,,2018_Jun_11_1400,59.1284337224,verb_norming,001,902,
SLIDE,glida,ramla,hasa,3,hasa,ramla,glida,Arm,arm,0,43,43,74,0,0,0,0,,,,,,,,,1,3.714,,,,,,2018_Jun_11_1400,59.1284337224,verb_norming,001,902,
SLIDE,glida,ramla,hasa,3,hasa,ramla,glida,Leg,leg,0,43,43,74,0,1,1,1,,,,,,,,,7,1.57,,,,,,2018_Jun_11_1400,59.1284337224,verb_norming,001,902,
SLIDE,glida,ramla,hasa,3,hasa,ramla,glida,,,0,43,43,74,,,,,,,,,,,,,,,3,1,3.27091451335,,,2018_Jun_11_1400,59.1284337224,verb_norming,001,902,
WALK,gå,promenera,marschera,2,marschera,gå,promenera,Arm,arm,0,44,44,105,0,0,0,0,,,,,,,,,1,3.498,,,,,,2018_Jun_11_1400,59.1284337224,verb_norming,001,902,
WALK,gå,promenera,marschera,2,marschera,gå,promenera,Leg,leg,0,44,44,105,0,1,1,1,,,,,,,,,7,1.857,,,,,,2018_Jun_11_1400,59.1284337224,verb_norming,001,902,
WALK,gå,promenera,marschera,2,marschera,gå,promenera,,,0,44,44,105,,,,,,,,,,,,,,,2,1,1.92908406423,,,2018_Jun_11_1400,59.1284337224,verb_norming,001,902,
SQUEEZE,klämma,knuffa,knäppa,1,klämma,knäppa,knuffa,Arm,arm,0,45,45,80,0,0,0,0,,,,,,,,,7,3.877,,,,,,2018_Jun_11_1400,59.1284337224,verb_norming,001,902,
SQUEEZE,klämma,knuffa,knäppa,1,klämma,knäppa,knuffa,Leg,leg,0,45,45,80,0,1,1,1,,,,,,,,,1,2.63,,,,,,2018_Jun_11_1400,59.1284337224,verb_norming,001,902,
SQUEEZE,klämma,knuffa,knäppa,1,klämma,knäppa,knuffa,,,0,45,45,80,,,,,,,,,,,,,,,1,1,3.0860018855,,,2018_Jun_11_1400,59.1284337224,verb_norming,001,902,
POKE,peta,trycka,knuffa,3,knuffa,trycka,peta,Arm,arm,0,46,46,51,0,0,0,0,,,,,,,,,7,3.278,,,,,,2018_Jun_11_1400,59.1284337224,verb_norming,001,902,
POKE,peta,trycka,knuffa,3,knuffa,trycka,peta,Leg,leg,0,46,46,51,0,1,1,1,,,,,,,,,1,3.282,,,,,,2018_Jun_11_1400,59.1284337224,verb_norming,001,902,
POKE,peta,trycka,knuffa,3,knuffa,trycka,peta,,,0,46,46,51,,,,,,,,,,,,,,,3,1,2.19750894742,,,2018_Jun_11_1400,59.1284337224,verb_norming,001,902,
GRATE,riva,hugga,rispa,1,riva,rispa,hugga,Arm,arm,0,47,47,28,0,0,0,0,,,,,,,,,6,6.281,,,,,,2018_Jun_11_1400,59.1284337224,verb_norming,001,902,
GRATE,riva,hugga,rispa,1,riva,rispa,hugga,Leg,leg,0,47,47,28,0,1,1,1,,,,,,,,,1,1.454,,,,,,2018_Jun_11_1400,59.1284337224,verb_norming,001,902,
GRATE,riva,hugga,rispa,1,riva,rispa,hugga,,,0,47,47,28,,,,,,,,,,,,,,,1,1,1.44271558949,,,2018_Jun_11_1400,59.1284337224,verb_norming,001,902,
HACK,hacka,skära,kåpa,1,hacka,kåpa,skära,Arm,arm,0,48,48,30,0,0,0,0,,,,,,,,,7,4.856,,,,,,2018_Jun_11_1400,59.1284337224,verb_norming,001,902,
HACK,hacka,skära,kåpa,1,hacka,kåpa,skära,Leg,leg,0,48,48,30,0,1,1,1,,,,,,,,,1,0.986,,,,,,2018_Jun_11_1400,59.1284337224,verb_norming,001,902,
HACK,hacka,skära,kåpa,1,hacka,kåpa,skära,,,0,48,48,30,,,,,,,,,,,,,,,1,1,8.16793802042,,,2018_Jun_11_1400,59.1284337224,verb_norming,001,902,
CLAP,klappa,knäppa,klämma,2,klämma,klappa,knäppa,Arm,arm,0,49,49,8,0,0,0,0,,,,,,,,,7,2.693,,,,,,2018_Jun_11_1400,59.1284337224,verb_norming,001,902,
CLAP,klappa,knäppa,klämma,2,klämma,klappa,knäppa,Leg,leg,0,49,49,8,0,1,1,1,,,,,,,,,1,0.868,,,,,,2018_Jun_11_1400,59.1284337224,verb_norming,001,902,
CLAP,klappa,knäppa,klämma,2,klämma,klappa,knäppa,,,0,49,49,8,,,,,,,,,,,,,,,2,1,3.11873216542,,,2018_Jun_11_1400,59.1284337224,verb_norming,001,902,
TOSS,slänga,fånga,gripa,1,slänga,gripa,fånga,Arm,arm,0,50,50,96,0,0,0,0,,,,,,,,,7,2.758,,,,,,2018_Jun_11_1400,59.1284337224,verb_norming,001,902,
TOSS,slänga,fånga,gripa,1,slänga,gripa,fånga,Leg,leg,0,50,50,96,0,1,1,1,,,,,,,,,1,1.57,,,,,,2018_Jun_11_1400,59.1284337224,verb_norming,001,902,
TOSS,slänga,fånga,gripa,1,slänga,gripa,fånga,,,0,50,50,96,,,,,,,,,,,,,,,1,1,3.42179534695,,,2018_Jun_11_1400,59.1284337224,verb_norming,001,902,
BRUSH,borsta,skrubba,putsa,2,skrubba,borsta,putsa,Arm,arm,0,51,51,4,0,0,0,0,,,,,,,,,7,2.742,,,,,,2018_Jun_11_1400,59.1284337224,verb_norming,001,902,
BRUSH,borsta,skrubba,putsa,2,skrubba,borsta,putsa,Leg,leg,0,51,51,4,0,1,1,1,,,,,,,,,1,1.051,,,,,,2018_Jun_11_1400,59.1284337224,verb_norming,001,902,
BRUSH,borsta,skrubba,putsa,2,skrubba,borsta,putsa,,,0,51,51,4,,,,,,,,,,,,,,,2,1,3.32235751895,,,2018_Jun_11_1400,59.1284337224,verb_norming,001,902,
KNOCK,knacka,krocka,klicka,2,krocka,knacka,klicka,Arm,arm,0,52,52,38,0,0,0,0,,,,,,,,,7,2.271,,,,,,2018_Jun_11_1400,59.1284337224,verb_norming,001,902,
KNOCK,knacka,krocka,klicka,2,krocka,knacka,klicka,Leg,leg,0,52,52,38,0,1,1,1,,,,,,,,,1,1.151,,,,,,2018_Jun_11_1400,59.1284337224,verb_norming,001,902,
KNOCK,knacka,krocka,klicka,2,krocka,knacka,klicka,,,0,52,52,38,,,,,,,,,,,,,,,2,1,2.65029408534,,,2018_Jun_11_1400,59.1284337224,verb_norming,001,902,
STROLL,strosa,trava,marschera,3,marschera,trava,strosa,Arm,arm,0,53,53,89,0,0,0,0,,,,,,,,,1,2.557,,,,,,2018_Jun_11_1400,59.1284337224,verb_norming,001,902,
STROLL,strosa,trava,marschera,3,marschera,trava,strosa,Leg,leg,0,53,53,89,0,1,1,1,,,,,,,,,7,1.419,,,,,,2018_Jun_11_1400,59.1284337224,verb_norming,001,902,
STROLL,strosa,trava,marschera,3,marschera,trava,strosa,,,0,53,53,89,,,,,,,,,,,,,,,3,1,2.65030514861,,,2018_Jun_11_1400,59.1284337224,verb_norming,001,902,
CLUTCH,gripa tag i,sätta ihop,dra ut,3,sätta ihop,dra ut,gripa tag i,Arm,arm,0,54,54,13,0,0,0,0,,,,,,,,,7,3.229,,,,,,2018_Jun_11_1400,59.1284337224,verb_norming,001,902,
CLUTCH,gripa tag i,sätta ihop,dra ut,3,sätta ihop,dra ut,gripa tag i,Leg,leg,0,54,54,13,0,1,1,1,,,,,,,,,1,0.934,,,,,,2018_Jun_11_1400,59.1284337224,verb_norming,001,902,
CLUTCH,gripa tag i,sätta ihop,dra ut,3,sätta ihop,dra ut,gripa tag i,,,0,54,54,13,,,,,,,,,,,,,,,3,1,3.58915294097,,,2018_Jun_11_1400,59.1284337224,verb_norming,001,902,
STOMP,stampa,stiga,kliva,3,kliva,stiga,stampa,Arm,arm,0,55,55,86,0,0,0,0,,,,,,,,,1,2.759,,,,,,2018_Jun_11_1400,59.1284337224,verb_norming,001,902,
STOMP,stampa,stiga,kliva,3,kliva,stiga,stampa,Leg,leg,0,55,55,86,0,1,1,1,,,,,,,,,7,0.765,,,,,,2018_Jun_11_1400,59.1284337224,verb_norming,001,902,
STOMP,stampa,stiga,kliva,3,kliva,stiga,stampa,,,0,55,55,86,,,,,,,,,,,,,,,3,1,2.81801913787,,,2018_Jun_11_1400,59.1284337224,verb_norming,001,902,
SNATCH,rycka till sig,knuffa ifrån sig,plocka åt sig,1,rycka till sig,plocka åt sig,knuffa ifrån sig,Arm,arm,0,56,56,77,0,0,0,0,,,,,,,,,7,2.288,,,,,,2018_Jun_11_1400,59.1284337224,verb_norming,001,902,
SNATCH,rycka till sig,knuffa ifrån sig,plocka åt sig,1,rycka till sig,plocka åt sig,knuffa ifrån sig,Leg,leg,0,56,56,77,0,1,1,1,,,,,,,,,1,0.849,,,,,,2018_Jun_11_1400,59.1284337224,verb_norming,001,902,
SNATCH,rycka till sig,knuffa ifrån sig,plocka åt sig,1,rycka till sig,plocka åt sig,knuffa ifrån sig,,,0,56,56,77,,,,,,,,,,,,,,,1,1,6.84313314879,,,2018_Jun_11_1400,59.1284337224,verb_norming,001,902,
STRUT,svassa,lunka,strosa,3,strosa,lunka,svassa,Arm,arm,0,57,57,90,0,0,0,0,,,,,,,,,1,2.877,,,,,,2018_Jun_11_1400,59.1284337224,verb_norming,001,902,
STRUT,svassa,lunka,strosa,3,strosa,lunka,svassa,Leg,leg,0,57,57,90,0,1,1,1,,,,,,,,,7,0.733,,,,,,2018_Jun_11_1400,59.1284337224,verb_norming,001,902,
STRUT,svassa,lunka,strosa,3,strosa,lunka,svassa,,,0,57,57,90,,,,,,,,,,,,,,,3,1,3.47204589043,,,2018_Jun_11_1400,59.1284337224,verb_norming,001,902,
DANCE,dansa,snurra,svänga,1,dansa,snurra,svänga,Arm,arm,0,58,58,17,0,0,0,0,,,,,,,,,4,3.043,,,,,,2018_Jun_11_1400,59.1284337224,verb_norming,001,902,
DANCE,dansa,snurra,svänga,1,dansa,snurra,svänga,Leg,leg,0,58,58,17,0,1,1,1,,,,,,,,,7,2.206,,,,,,2018_Jun_11_1400,59.1284337224,verb_norming,001,902,
DANCE,dansa,snurra,svänga,1,dansa,snurra,svänga,,,0,58,58,17,,,,,,,,,,,,,,,1,1,1.25961615205,,,2018_Jun_11_1400,59.1284337224,verb_norming,001,902,
HIKE,vandra,flanera,lunka,2,lunka,vandra,flanera,Arm,arm,0,59,59,31,0,0,0,0,,,,,,,,,4,3.079,,,,,,2018_Jun_11_1400,59.1284337224,verb_norming,001,902,
HIKE,vandra,flanera,lunka,2,lunka,vandra,flanera,Leg,leg,0,59,59,31,0,1,1,1,,,,,,,,,7,1.304,,,,,,2018_Jun_11_1400,59.1284337224,verb_norming,001,902,
HIKE,vandra,flanera,lunka,2,lunka,vandra,flanera,,,0,59,59,31,,,,,,,,,,,,,,,2,1,2.06319298526,,,2018_Jun_11_1400,59.1284337224,verb_norming,001,902,
CLIMB,klättra,kliva,krypa,2,krypa,klättra,kliva,Arm,arm,0,60,60,12,0,0,0,0,,,,,,,,,3,4.754,,,,,,2018_Jun_11_1400,59.1284337224,verb_norming,001,902,
CLIMB,klättra,kliva,krypa,2,krypa,klättra,kliva,Leg,leg,0,60,60,12,0,1,1,1,,,,,,,,,7,1.335,,,,,,2018_Jun_11_1400,59.1284337224,verb_norming,001,902,
CLIMB,klättra,kliva,krypa,2,krypa,klättra,kliva,,,0,60,60,12,,,,,,,,,,,,,,,2,1,2.16361504889,,,2018_Jun_11_1400,59.1284337224,verb_norming,001,902,
CLAW,klösa,nypa,rispa,2,rispa,klösa,nypa,Arm,arm,0,61,61,9,0,0,0,0,,,,,,,,,7,2.425,,,,,,2018_Jun_11_1400,59.1284337224,verb_norming,001,902,
CLAW,klösa,nypa,rispa,2,rispa,klösa,nypa,Leg,leg,0,61,61,9,0,1,1,1,,,,,,,,,1,1.287,,,,,,2018_Jun_11_1400,59.1284337224,verb_norming,001,902,
CLAW,klösa,nypa,rispa,2,rispa,klösa,nypa,,,0,61,61,9,,,,,,,,,,,,,,,2,1,2.0296776085,,,2018_Jun_11_1400,59.1284337224,verb_norming,001,902,
SLAP,smälla till,knäppa fast,klämma åt,2,klämma åt,smälla till,knäppa fast,Arm,arm,0,62,62,73,0,0,0,0,,,,,,,,,7,2.207,,,,,,2018_Jun_11_1400,59.1284337224,verb_norming,001,902,
SLAP,smälla till,knäppa fast,klämma åt,2,klämma åt,smälla till,knäppa fast,Leg,leg,0,62,62,73,0,1,1,1,,,,,,,,,1,0.868,,,,,,2018_Jun_11_1400,59.1284337224,verb_norming,001,902,
SLAP,smälla till,knäppa fast,klämma åt,2,klämma åt,smälla till,knäppa fast,,,0,62,62,73,,,,,,,,,,,,,,,2,1,3.1534328922,,,2018_Jun_11_1400,59.1284337224,verb_norming,001,902,
SCUFF,hasa sig fram,dra sig fram,kasta sig fram,3,dra sig fram,kasta sig fram,hasa sig fram,Arm,arm,0,63,63,67,0,0,0,0,,,,,,,,,4,5.242,,,,,,2018_Jun_11_1400,59.1284337224,verb_norming,001,902,
SCUFF,hasa sig fram,dra sig fram,kasta sig fram,3,dra sig fram,kasta sig fram,hasa sig fram,Leg,leg,0,63,63,67,0,1,1,1,,,,,,,,,4,1.052,,,,,,2018_Jun_11_1400,59.1284337224,verb_norming,001,902,
SCUFF,hasa sig fram,dra sig fram,kasta sig fram,3,dra sig fram,kasta sig fram,hasa sig fram,,,0,63,63,67,,,,,,,,,,,,,,,2,0,5.5348196569,,,2018_Jun_11_1400,59.1284337224,verb_norming,001,902,
WASH,tvätta,skura,sopa,2,sopa,tvätta,skura,Arm,arm,0,64,64,107,0,0,0,0,,,,,,,,,7,2.777,,,,,,2018_Jun_11_1400,59.1284337224,verb_norming,001,902,
WASH,tvätta,skura,sopa,2,sopa,tvätta,skura,Leg,leg,0,64,64,107,0,1,1,1,,,,,,,,,1,1.807,,,,,,2018_Jun_11_1400,59.1284337224,verb_norming,001,902,
WASH,tvätta,skura,sopa,2,sopa,tvätta,skura,,,0,64,64,107,,,,,,,,,,,,,,,2,1,1.94582436748,,,2018_Jun_11_1400,59.1284337224,verb_norming,001,902,
FLIT,rusa,hasa,svassa,2,svassa,rusa,hasa,Arm,arm,0,65,65,23,0,0,0,0,,,,,,,,,4,2.408,,,,,,2018_Jun_11_1400,59.1284337224,verb_norming,001,902,
FLIT,rusa,hasa,svassa,2,svassa,rusa,hasa,Leg,leg,0,65,65,23,0,1,1,1,,,,,,,,,4,0.432,,,,,,2018_Jun_11_1400,59.1284337224,verb_norming,001,902,
FLIT,rusa,hasa,svassa,2,svassa,rusa,hasa,,,0,65,65,23,,,,,,,,,,,,,,,2,1,3.79081021835,,,2018_Jun_11_1400,59.1284337224,verb_norming,001,902,
CLEAN,rengöra,rensa,plocka,1,rengöra,plocka,rensa,Arm,arm,0,66,66,10,0,0,0,0,,,,,,,,,7,4.2,,,,,,2018_Jun_11_1400,59.1284337224,verb_norming,001,902,
CLEAN,rengöra,rensa,plocka,1,rengöra,plocka,rensa,Leg,leg,0,66,66,10,0,1,1,1,,,,,,,,,1,1.117,,,,,,2018_Jun_11_1400,59.1284337224,verb_norming,001,902,
CLEAN,rengöra,rensa,plocka,1,rengöra,plocka,rensa,,,0,66,66,10,,,,,,,,,,,,,,,1,1,2.21425675788,,,2018_Jun_11_1400,59.1284337224,verb_norming,001,902,
TWINE,tvinna,binda,knyta,1,tvinna,knyta,binda,Arm,arm,0,67,67,103,0,0,0,0,,,,,,,,,7,2.339,,,,,,2018_Jun_11_1400,59.1284337224,verb_norming,001,902,
TWINE,tvinna,binda,knyta,1,tvinna,knyta,binda,Leg,leg,0,67,67,103,0,1,1,1,,,,,,,,,1,0.95,,,,,,2018_Jun_11_1400,59.1284337224,verb_norming,001,902,
TWINE,tvinna,binda,knyta,1,tvinna,knyta,binda,,,0,67,67,103,,,,,,,,,,,,,,,1,1,3.58919679892,,,2018_Jun_11_1400,59.1284337224,verb_norming,001,902,
THROW,kasta,greppa,träffa,3,träffa,greppa,kasta,Arm,arm,0,68,68,94,0,0,0,0,,,,,,,,,7,2.02,,,,,,2018_Jun_11_1400,59.1284337224,verb_norming,001,902,
THROW,kasta,greppa,träffa,3,träffa,greppa,kasta,Leg,leg,0,68,68,94,0,1,1,1,,,,,,,,,1,1.151,,,,,,2018_Jun_11_1400,59.1284337224,verb_norming,001,902,
THROW,kasta,greppa,träffa,3,träffa,greppa,kasta,,,0,68,68,94,,,,,,,,,,,,,,,3,1,1.64402872024,,,2018_Jun_11_1400,59.1284337224,verb_norming,001,902,
SCRATCH,repa,riva,klösa,1,repa,klösa,riva,Arm,arm,0,69,69,65,0,0,0,0,,,,,,,,,7,3.027,,,,,,2018_Jun_11_1400,59.1284337224,verb_norming,001,902,
SCRATCH,repa,riva,klösa,1,repa,klösa,riva,Leg,leg,0,69,69,65,0,1,1,1,,,,,,,,,1,1.939,,,,,,2018_Jun_11_1400,59.1284337224,verb_norming,001,902,
SCRATCH,repa,riva,klösa,1,repa,klösa,riva,,,0,69,69,65,,,,,,,,,,,,,,,2,0,6.45728275102,,,2018_Jun_11_1400,59.1284337224,verb_norming,001,902,
MARCH,marschera,trava,traska,1,marschera,trava,traska,Arm,arm,0,70,70,42,0,0,0,0,,,,,,,,,1,2.842,,,,,,2018_Jun_11_1400,59.1284337224,verb_norming,001,902,
MARCH,marschera,trava,traska,1,marschera,trava,traska,Leg,leg,0,70,70,42,0,1,1,1,,,,,,,,,7,0.665,,,,,,2018_Jun_11_1400,59.1284337224,verb_norming,001,902,
MARCH,marschera,trava,traska,1,marschera,trava,traska,,,0,70,70,42,,,,,,,,,,,,,,,1,1,2.16369367711,,,2018_Jun_11_1400,59.1284337224,verb_norming,001,902,
FLEE,fly,lyfta,flyga,1,fly,flyga,lyfta,Arm,arm,0,71,71,22,0,0,0,0,,,,,,,,,1,2.542,,,,,,2018_Jun_11_1400,59.1284337224,verb_norming,001,902,
FLEE,fly,lyfta,flyga,1,fly,flyga,lyfta,Leg,leg,0,71,71,22,0,1,1,1,,,,,,,,,7,1.589,,,,,,2018_Jun_11_1400,59.1284337224,verb_norming,001,902,
FLEE,fly,lyfta,flyga,1,fly,flyga,lyfta,,,0,71,71,22,,,,,,,,,,,,,,,1,1,1.19123409952,,,2018_Jun_11_1400,59.1284337224,verb_norming,001,902,
JOG,jogga,spurta,rusa,2,rusa,jogga,spurta,Arm,arm,0,72,72,34,0,0,0,0,,,,,,,,,3,6.03,,,,,,2018_Jun_11_1400,59.1284337224,verb_norming,001,902,
JOG,jogga,spurta,rusa,2,rusa,jogga,spurta,Leg,leg,0,72,72,34,0,1,1,1,,,,,,,,,7,1.689,,,,,,2018_Jun_11_1400,59.1284337224,verb_norming,001,902,
JOG,jogga,spurta,rusa,2,rusa,jogga,spurta,,,0,72,72,34,,,,,,,,,,,,,,,2,1,1.74453612907,,,2018_Jun_11_1400,59.1284337224,verb_norming,001,902,
TIPTOE,gå på tå,snava,sparka,1,gå på tå,snava,sparka,Arm,arm,0,73,73,95,0,0,0,0,,,,,,,,,1,2.232,,,,,,2018_Jun_11_1400,59.1284337224,verb_norming,001,902,
TIPTOE,gå på tå,snava,sparka,1,gå på tå,snava,sparka,Leg,leg,0,73,73,95,0,1,1,1,,,,,,,,,7,1.318,,,,,,2018_Jun_11_1400,59.1284337224,verb_norming,001,902,
TIPTOE,gå på tå,snava,sparka,1,gå på tå,snava,sparka,,,0,73,73,95,,,,,,,,,,,,,,,1,1,1.40921799298,,,2018_Jun_11_1400,59.1284337224,verb_norming,001,902,
SCRUB,skrubba,sopa,skrapa,3,skrapa,sopa,skrubba,Arm,arm,0,74,74,66,0,0,0,0,,,,,,,,,4,3.967,,,,,,2018_Jun_11_1400,59.1284337224,verb_norming,001,902,
SCRUB,skrubba,sopa,skrapa,3,skrapa,sopa,skrubba,Leg,leg,0,74,74,66,0,1,1,1,,,,,,,,,4,0.7,,,,,,2018_Jun_11_1400,59.1284337224,verb_norming,001,902,
SCRUB,skrubba,sopa,skrapa,3,skrapa,sopa,skrubba,,,0,74,74,66,,,,,,,,,,,,,,,1,0,7.26226343377,,,2018_Jun_11_1400,59.1284337224,verb_norming,001,902,
RUSH,rusa,springa,löpa,2,löpa,rusa,springa,Arm,arm,0,75,75,62,0,0,0,0,,,,,,,,,1,2.408,,,,,,2018_Jun_11_1400,59.1284337224,verb_norming,001,902,
RUSH,rusa,springa,löpa,2,löpa,rusa,springa,Leg,leg,0,75,75,62,0,1,1,1,,,,,,,,,7,0.699,,,,,,2018_Jun_11_1400,59.1284337224,verb_norming,001,902,
RUSH,rusa,springa,löpa,2,löpa,rusa,springa,,,0,75,75,62,,,,,,,,,,,,,,,2,1,4.91439204583,,,2018_Jun_11_1400,59.1284337224,verb_norming,001,902,
STEP,gå,klampa,traska,1,gå,traska,klampa,Arm,arm,0,76,76,84,0,0,0,0,,,,,,,,,1,2.089,,,,,,2018_Jun_11_1400,59.1284337224,verb_norming,001,902,
STEP,gå,klampa,traska,1,gå,traska,klampa,Leg,leg,0,76,76,84,0,1,1,1,,,,,,,,,7,0.751,,,,,,2018_Jun_11_1400,59.1284337224,verb_norming,001,902,
STEP,gå,klampa,traska,1,gå,traska,klampa,,,0,76,76,84,,,,,,,,,,,,,,,3,0,11.2537660546,,,2018_Jun_11_1400,59.1284337224,verb_norming,001,902,
PRANCE,kråma sig,promenera,traska,2,traska,kråma sig,promenera,Arm,arm,0,77,77,53,0,0,0,0,,,,,,,,,4,3.345,,,,,,2018_Jun_11_1400,59.1284337224,verb_norming,001,902,
PRANCE,kråma sig,promenera,traska,2,traska,kråma sig,promenera,Leg,leg,0,77,77,53,0,1,1,1,,,,,,,,,4,2.156,,,,,,2018_Jun_11_1400,59.1284337224,verb_norming,001,902,
PRANCE,kråma sig,promenera,traska,2,traska,kråma sig,promenera,,,0,77,77,53,,,,,,,,,,,,,,,2,1,3.30423667805,,,2018_Jun_11_1400,59.1284337224,verb_norming,001,902,
WOBBLE,vingla,ramla,glida,1,vingla,glida,ramla,Arm,arm,0,78,78,110,0,0,0,0,,,,,,,,,1,3.512,,,,,,2018_Jun_11_1400,59.1284337224,verb_norming,001,902,
WOBBLE,vingla,ramla,glida,1,vingla,glida,ramla,Leg,leg,0,78,78,110,0,1,1,1,,,,,,,,,7,1.318,,,,,,2018_Jun_11_1400,59.1284337224,verb_norming,001,902,
WOBBLE,vingla,ramla,glida,1,vingla,glida,ramla,,,0,78,78,110,,,,,,,,,,,,,,,1,1,2.88504673045,,,2018_Jun_11_1400,59.1284337224,verb_norming,001,902,
SHAKE,skaka,röra,vispa,1,skaka,vispa,röra,Arm,arm,0,79,79,69,0,0,0,0,,,,,,,,,7,3.095,,,,,,2018_Jun_11_1400,59.1284337224,verb_norming,001,902,
SHAKE,skaka,röra,vispa,1,skaka,vispa,röra,Leg,leg,0,79,79,69,0,1,1,1,,,,,,,,,1,2.528,,,,,,2018_Jun_11_1400,59.1284337224,verb_norming,001,902,
SHAKE,skaka,röra,vispa,1,skaka,vispa,röra,,,0,79,79,69,,,,,,,,,,,,,,,1,1,1.10715959316,,,2018_Jun_11_1400,59.1284337224,verb_norming,001,902,
INCH,röra sig långsamt framåt,dra sig snabbt tillbaka,hasa sig bakåt,3,dra sig snabbt tillbaka,hasa sig bakåt,röra sig långsamt framåt,Arm,arm,0,80,80,33,0,0,0,0,,,,,,,,,4,5.593,,,,,,2018_Jun_11_1400,59.1284337224,verb_norming,001,902,
INCH,röra sig långsamt framåt,dra sig snabbt tillbaka,hasa sig bakåt,3,dra sig snabbt tillbaka,hasa sig bakåt,röra sig långsamt framåt,Leg,leg,0,80,80,33,0,1,1,1,,,,,,,,,4,0.431,,,,,,2018_Jun_11_1400,59.1284337224,verb_norming,001,902,
INCH,röra sig långsamt framåt,dra sig snabbt tillbaka,hasa sig bakåt,3,dra sig snabbt tillbaka,hasa sig bakåt,röra sig långsamt framåt,,,0,80,80,33,,,,,,,,,,,,,,,3,1,5.01483188971,,,2018_Jun_11_1400,59.1284337224,verb_norming,001,902,
SNEAK,smyga,hasa,glida,1,smyga,hasa,glida,Arm,arm,0,81,81,78,0,0,0,0,,,,,,,,,1,2.571,,,,,,2018_Jun_11_1400,59.1284337224,verb_norming,001,902,
SNEAK,smyga,hasa,glida,1,smyga,hasa,glida,Leg,leg,0,81,81,78,0,1,1,1,,,,,,,,,7,1.671,,,,,,2018_Jun_11_1400,59.1284337224,verb_norming,001,902,
SNEAK,smyga,hasa,glida,1,smyga,hasa,glida,,,0,81,81,78,,,,,,,,,,,,,,,1,1,1.37569708459,,,2018_Jun_11_1400,59.1284337224,verb_norming,001,902,
SWITCH,slå på/av,knäppa,nypa,2,nypa,slå på/av,knäppa,Arm,arm,0,82,82,93,0,0,0,0,,,,,,,,,7,4.335,,,,,,2018_Jun_11_1400,59.1284337224,verb_norming,001,902,
SWITCH,slå på/av,knäppa,nypa,2,nypa,slå på/av,knäppa,Leg,leg,0,82,82,93,0,1,1,1,,,,,,,,,1,1.152,,,,,,2018_Jun_11_1400,59.1284337224,verb_norming,001,902,
SWITCH,slå på/av,knäppa,nypa,2,nypa,slå på/av,knäppa,,,0,82,82,93,,,,,,,,,,,,,,,2,1,5.31676424732,,,2018_Jun_11_1400,59.1284337224,verb_norming,001,902,
STRAY,ströva,vandra,promenera,3,promenera,vandra,ströva,Arm,arm,0,83,83,87,0,0,0,0,,,,,,,,,1,2.911,,,,,,2018_Jun_11_1400,59.1284337224,verb_norming,001,902,
STRAY,ströva,vandra,promenera,3,promenera,vandra,ströva,Leg,leg,0,83,83,87,0,1,1,1,,,,,,,,,7,1.404,,,,,,2018_Jun_11_1400,59.1284337224,verb_norming,001,902,
STRAY,ströva,vandra,promenera,3,promenera,vandra,ströva,,,0,83,83,87,,,,,,,,,,,,,,,3,1,1.99621873343,,,2018_Jun_11_1400,59.1284337224,verb_norming,001,902,
RAMBLE,ströva,strutta,spurta,3,strutta,spurta,ströva,Arm,arm,0,84,84,57,0,0,0,0,,,,,,,,,1,3.411,,,,,,2018_Jun_11_1400,59.1284337224,verb_norming,001,902,
RAMBLE,ströva,strutta,spurta,3,strutta,spurta,ströva,Leg,leg,0,84,84,57,0,1,1,1,,,,,,,,,7,1.368,,,,,,2018_Jun_11_1400,59.1284337224,verb_norming,001,902,
RAMBLE,ströva,strutta,spurta,3,strutta,spurta,ströva,,,0,84,84,57,,,,,,,,,,,,,,,2,0,4.52858115973,,,2018_Jun_11_1400,59.1284337224,verb_norming,001,902,
TRAIPSE,traska,stappla,vandra,1,traska,vandra,stappla,Arm,arm,0,85,85,97,0,0,0,0,,,,,,,,,4,2.876,,,,,,2018_Jun_11_1400,59.1284337224,verb_norming,001,902,
TRAIPSE,traska,stappla,vandra,1,traska,vandra,stappla,Leg,leg,0,85,85,97,0,1,1,1,,,,,,,,,4,1.051,,,,,,2018_Jun_11_1400,59.1284337224,verb_norming,001,902,
TRAIPSE,traska,stappla,vandra,1,traska,vandra,stappla,,,0,85,85,97,,,,,,,,,,,,,,,1,1,3.79070077103,,,2018_Jun_11_1400,59.1284337224,verb_norming,001,902,
TRIP,snubbla,stampa,stappla,2,stappla,snubbla,stampa,Arm,arm,0,86,86,99,0,0,0,0,,,,,,,,,1,2.156,,,,,,2018_Jun_11_1400,59.1284337224,verb_norming,001,902,
TRIP,snubbla,stampa,stappla,2,stappla,snubbla,stampa,Leg,leg,0,86,86,99,0,1,1,1,,,,,,,,,7,0.885,,,,,,2018_Jun_11_1400,59.1284337224,verb_norming,001,902,
TRIP,snubbla,stampa,stappla,2,stappla,snubbla,stampa,,,0,86,86,99,,,,,,,,,,,,,,,2,1,2.9351898022,,,2018_Jun_11_1400,59.1284337224,verb_norming,001,902,
SWAY,vingla,tassa,ramla,2,tassa,vingla,ramla,Arm,arm,0,87,87,92,0,0,0,0,,,,,,,,,1,3.263,,,,,,2018_Jun_11_1400,59.1284337224,verb_norming,001,902,
SWAY,vingla,tassa,ramla,2,tassa,vingla,ramla,Leg,leg,0,87,87,92,0,1,1,1,,,,,,,,,7,1.085,,,,,,2018_Jun_11_1400,59.1284337224,verb_norming,001,902,
SWAY,vingla,tassa,ramla,2,tassa,vingla,ramla,,,0,87,87,92,,,,,,,,,,,,,,,2,1,2.19725607275,,,2018_Jun_11_1400,59.1284337224,verb_norming,001,902,
RUN,springa,rusa,jogga,2,jogga,springa,rusa,Arm,arm,0,88,88,61,0,0,0,0,,,,,,,,,1,2.273,,,,,,2018_Jun_11_1400,59.1284337224,verb_norming,001,902,
RUN,springa,rusa,jogga,2,jogga,springa,rusa,Leg,leg,0,88,88,61,0,1,1,1,,,,,,,,,7,0.598,,,,,,2018_Jun_11_1400,59.1284337224,verb_norming,001,902,
RUN,springa,rusa,jogga,2,jogga,springa,rusa,,,0,88,88,61,,,,,,,,,,,,,,,2,1,1.4091259308,,,2018_Jun_11_1400,59.1284337224,verb_norming,001,902,
STRIDE,kliva,tassa,lunka,2,lunka,kliva,tassa,Arm,arm,0,89,89,88,0,0,0,0,,,,,,,,,1,2.07,,,,,,2018_Jun_11_1400,59.1284337224,verb_norming,001,902,
STRIDE,kliva,tassa,lunka,2,lunka,kliva,tassa,Leg,leg,0,89,89,88,0,1,1,1,,,,,,,,,7,0.664,,,,,,2018_Jun_11_1400,59.1284337224,verb_norming,001,902,
STRIDE,kliva,tassa,lunka,2,lunka,kliva,tassa,,,0,89,89,88,,,,,,,,,,,,,,,2,1,5.01501127268,,,2018_Jun_11_1400,59.1284337224,verb_norming,001,902,
POLISH,polera,sopa,tvätta,2,sopa,polera,tvätta,Arm,arm,0,90,90,52,0,0,0,0,,,,,,,,,7,2.64,,,,,,2018_Jun_11_1400,59.1284337224,verb_norming,001,902,
POLISH,polera,sopa,tvätta,2,sopa,polera,tvätta,Leg,leg,0,90,90,52,0,1,1,1,,,,,,,,,1,1.419,,,,,,2018_Jun_11_1400,59.1284337224,verb_norming,001,902,
POLISH,polera,sopa,tvätta,2,sopa,polera,tvätta,,,0,90,90,52,,,,,,,,,,,,,,,2,1,1.74460290379,,,2018_Jun_11_1400,59.1284337224,verb_norming,001,902,
PLUCK,plocka,rensa,picka,1,plocka,picka,rensa,Arm,arm,0,91,91,50,0,0,0,0,,,,,,,,,7,3.615,,,,,,2018_Jun_11_1400,59.1284337224,verb_norming,001,902,
PLUCK,plocka,rensa,picka,1,plocka,picka,rensa,Leg,leg,0,91,91,50,0,1,1,1,,,,,,,,,1,0.465,,,,,,2018_Jun_11_1400,59.1284337224,verb_norming,001,902,
PLUCK,plocka,rensa,picka,1,plocka,picka,rensa,,,0,91,91,50,,,,,,,,,,,,,,,1,1,3.37147170688,,,2018_Jun_11_1400,59.1284337224,verb_norming,001,902,
LIMP,halta,hasa,halka,2,hasa,halta,halka,Arm,arm,0,92,92,41,0,0,0,0,,,,,,,,,1,11.027,,,,,,2018_Jun_11_1400,59.1284337224,verb_norming,001,902,
LIMP,halta,hasa,halka,2,hasa,halta,halka,Leg,leg,0,92,92,41,0,1,1,1,,,,,,,,,7,0.867,,,,,,2018_Jun_11_1400,59.1284337224,verb_norming,001,902,
LIMP,halta,hasa,halka,2,hasa,halta,halka,,,0,92,92,41,,,,,,,,,,,,,,,2,1,1.96270849319,,,2018_Jun_11_1400,59.1284337224,verb_norming,001,902,
WRAP,slå in,slå ihop,slå till,3,slå till,slå ihop,slå in,Arm,arm,0,93,93,111,0,0,0,0,,,,,,,,,7,2.207,,,,,,2018_Jun_11_1400,59.1284337224,verb_norming,001,902,
WRAP,slå in,slå ihop,slå till,3,slå till,slå ihop,slå in,Leg,leg,0,93,93,111,0,1,1,1,,,,,,,,,1,0.499,,,,,,2018_Jun_11_1400,59.1284337224,verb_norming,001,902,
WRAP,slå in,slå ihop,slå till,3,slå till,slå ihop,slå in,,,0,93,93,111,,,,,,,,,,,,,,,3,1,2.51622902227,,,2018_Jun_11_1400,59.1284337224,verb_norming,001,902,
WANDER,vandra,marschera,spatsera,1,vandra,spatsera,marschera,Arm,arm,0,94,94,106,0,0,0,0,,,,,,,,,1,2.623,,,,,,2018_Jun_11_1400,59.1284337224,verb_norming,001,902,
WANDER,vandra,marschera,spatsera,1,vandra,spatsera,marschera,Leg,leg,0,94,94,106,0,1,1,1,,,,,,,,,7,1.316,,,,,,2018_Jun_11_1400,59.1284337224,verb_norming,001,902,
WANDER,vandra,marschera,spatsera,1,vandra,spatsera,marschera,,,0,94,94,106,,,,,,,,,,,,,,,1,1,1.25819886854,,,2018_Jun_11_1400,59.1284337224,verb_norming,001,902,
SCOOP,skyffla,dika,skrapa,2,skrapa,skyffla,dika,Arm,arm,0,95,95,63,0,0,0,0,,,,,,,,,7,3.01,,,,,,2018_Jun_11_1400,59.1284337224,verb_norming,001,902,
SCOOP,skyffla,dika,skrapa,2,skrapa,skyffla,dika,Leg,leg,0,95,95,63,0,1,1,1,,,,,,,,,1,0.514,,,,,,2018_Jun_11_1400,59.1284337224,verb_norming,001,902,
SCOOP,skyffla,dika,skrapa,2,skrapa,skyffla,dika,,,0,95,95,63,,,,,,,,,,,,,,,2,1,3.45541187357,,,2018_Jun_11_1400,59.1284337224,verb_norming,001,902,
PUNCH,slå,knuffa,kasta,3,kasta,knuffa,slå,Arm,arm,0,96,96,55,0,0,0,0,,,,,,,,,7,2.288,,,,,,2018_Jun_11_1400,59.1284337224,verb_norming,001,902,
PUNCH,slå,knuffa,kasta,3,kasta,knuffa,slå,Leg,leg,0,96,96,55,0,1,1,1,,,,,,,,,1,0.513,,,,,,2018_Jun_11_1400,59.1284337224,verb_norming,001,902,
PUNCH,slå,knuffa,kasta,3,kasta,knuffa,slå,,,0,96,96,55,,,,,,,,,,,,,,,3,1,1.81237134013,,,2018_Jun_11_1400,59.1284337224,verb_norming,001,902,
KICK,sparka,knäa,tåa,1,sparka,tåa,knäa,Arm,arm,0,97,97,36,0,0,0,0,,,,,,,,,1,2.324,,,,,,2018_Jun_11_1400,59.1284337224,verb_norming,001,902,
KICK,sparka,knäa,tåa,1,sparka,tåa,knäa,Leg,leg,0,97,97,36,0,1,1,1,,,,,,,,,7,0.801,,,,,,2018_Jun_11_1400,59.1284337224,verb_norming,001,902,
KICK,sparka,knäa,tåa,1,sparka,tåa,knäa,,,0,97,97,36,,,,,,,,,,,,,,,1,1,2.28127131161,,,2018_Jun_11_1400,59.1284337224,verb_norming,001,902,
CUT,skära,sticka,spetsa,1,skära,spetsa,sticka,Arm,arm,0,98,98,16,0,0,0,0,,,,,,,,,7,2.442,,,,,,2018_Jun_11_1400,59.1284337224,verb_norming,001,902,
CUT,skära,sticka,spetsa,1,skära,spetsa,sticka,Leg,leg,0,98,98,16,0,1,1,1,,,,,,,,,1,0.533,,,,,,2018_Jun_11_1400,59.1284337224,verb_norming,001,902,
CUT,skära,sticka,spetsa,1,skära,spetsa,sticka,,,0,98,98,16,,,,,,,,,,,,,,,1,1,1.15752037419,,,2018_Jun_11_1400,59.1284337224,verb_norming,001,902,
NIP,nypa,peta,nudda,1,nypa,nudda,peta,Arm,arm,0,99,99,44,0,0,0,0,,,,,,,,,7,4.302,,,,,,2018_Jun_11_1400,59.1284337224,verb_norming,001,902,
NIP,nypa,peta,nudda,1,nypa,nudda,peta,Leg,leg,0,99,99,44,0,1,1,1,,,,,,,,,1,0.55,,,,,,2018_Jun_11_1400,59.1284337224,verb_norming,001,902,
NIP,nypa,peta,nudda,1,nypa,nudda,peta,,,0,99,99,44,,,,,,,,,,,,,,,1,1,4.15968600868,,,2018_Jun_11_1400,59.1284337224,verb_norming,001,902,
TREAD,trampa,stampa,klampa,2,klampa,trampa,stampa,Arm,arm,0,100,100,98,0,0,0,0,,,,,,,,,4,2.658,,,,,,2018_Jun_11_1400,59.1284337224,verb_norming,001,902,
TREAD,trampa,stampa,klampa,2,klampa,trampa,stampa,Leg,leg,0,100,100,98,0,1,1,1,,,,,,,,,4,0.933,,,,,,2018_Jun_11_1400,59.1284337224,verb_norming,001,902,
TREAD,trampa,stampa,klampa,2,klampa,trampa,stampa,,,0,100,100,98,,,,,,,,,,,,,,,2,1,5.03158562692,,,2018_Jun_11_1400,59.1284337224,verb_norming,001,902,
LIFT,lyfta,pressa,öka,3,öka,pressa,lyfta,Arm,arm,0,101,101,40,0,0,0,0,,,,,,,,,7,2.341,,,,,,2018_Jun_11_1400,59.1284337224,verb_norming,001,902,
LIFT,lyfta,pressa,öka,3,öka,pressa,lyfta,Leg,leg,0,101,101,40,0,1,1,1,,,,,,,,,1,0.599,,,,,,2018_Jun_11_1400,59.1284337224,verb_norming,001,902,
LIFT,lyfta,pressa,öka,3,öka,pressa,lyfta,,,0,101,101,40,,,,,,,,,,,,,,,3,1,2.36510637726,,,2018_Jun_11_1400,59.1284337224,verb_norming,001,902,
PEEL,skala,rensa,plocka,1,skala,plocka,rensa,Arm,arm,0,102,102,47,0,0,0,0,,,,,,,,,7,2.525,,,,,,2018_Jun_11_1400,59.1284337224,verb_norming,001,902,
PEEL,skala,rensa,plocka,1,skala,plocka,rensa,Leg,leg,0,102,102,47,0,1,1,1,,,,,,,,,1,0.533,,,,,,2018_Jun_11_1400,59.1284337224,verb_norming,001,902,
PEEL,skala,rensa,plocka,1,skala,plocka,rensa,,,0,102,102,47,,,,,,,,,,,,,,,1,1,1.52649099252,,,2018_Jun_11_1400,59.1284337224,verb_norming,001,902,
STAB,sticka,hacka,skära,1,sticka,hacka,skära,Arm,arm,0,103,103,81,0,0,0,0,,,,,,,,,7,1.67,,,,,,2018_Jun_11_1400,59.1284337224,verb_norming,001,902,
STAB,sticka,hacka,skära,1,sticka,hacka,skära,Leg,leg,0,103,103,81,0,1,1,1,,,,,,,,,1,1.019,,,,,,2018_Jun_11_1400,59.1284337224,verb_norming,001,902,
STAB,sticka,hacka,skära,1,sticka,hacka,skära,,,0,103,103,81,,,,,,,,,,,,,,,1,1,3.82428647855,,,2018_Jun_11_1400,59.1284337224,verb_norming,001,902,
PAT,klappa,slå,borsta,3,slå,borsta,klappa,Arm,arm,0,104,104,46,0,0,0,0,,,,,,,,,7,2.425,,,,,,2018_Jun_11_1400,59.1284337224,verb_norming,001,902,
PAT,klappa,slå,borsta,3,slå,borsta,klappa,Leg,leg,0,104,104,46,0,1,1,1,,,,,,,,,1,0.483,,,,,,2018_Jun_11_1400,59.1284337224,verb_norming,001,902,
PAT,klappa,slå,borsta,3,slå,borsta,klappa,,,0,104,104,46,,,,,,,,,,,,,,,3,1,1.97913665426,,,2018_Jun_11_1400,59.1284337224,verb_norming,001,902,
KNEEL,knäböja,krypa,kräla,1,knäböja,kräla,krypa,Arm,arm,0,105,105,37,0,0,0,0,,,,,,,,,1,2.724,,,,,,2018_Jun_11_1400,59.1284337224,verb_norming,001,902,
KNEEL,knäböja,krypa,kräla,1,knäböja,kräla,krypa,Leg,leg,0,105,105,37,0,1,1,1,,,,,,,,,7,0.983,,,,,,2018_Jun_11_1400,59.1284337224,verb_norming,001,902,
KNEEL,knäböja,krypa,kräla,1,knäböja,kräla,krypa,,,0,105,105,37,,,,,,,,,,,,,,,1,1,1.32518536899,,,2018_Jun_11_1400,59.1284337224,verb_norming,001,902,
BOUNCE,studsa,dunka,kasta,1,studsa,dunka,kasta,Arm,arm,0,106,106,2,0,0,0,0,,,,,,,,,1,3.796,,,,,,2018_Jun_11_1400,59.1284337224,verb_norming,001,902,
BOUNCE,studsa,dunka,kasta,1,studsa,dunka,kasta,Leg,leg,0,106,106,2,0,1,1,1,,,,,,,,,7,1.317,,,,,,2018_Jun_11_1400,59.1284337224,verb_norming,001,902,
BOUNCE,studsa,dunka,kasta,1,studsa,dunka,kasta,,,0,106,106,2,,,,,,,,,,,,,,,1,1,1.50970762156,,,2018_Jun_11_1400,59.1284337224,verb_norming,001,902,
GRIP,gripa om,hålla om,kasta om,2,kasta om,gripa om,hålla om,Arm,arm,0,107,107,29,0,0,0,0,,,,,,,,,7,1.653,,,,,,2018_Jun_11_1400,59.1284337224,verb_norming,001,902,
GRIP,gripa om,hålla om,kasta om,2,kasta om,gripa om,hålla om,Leg,leg,0,107,107,29,0,1,1,1,,,,,,,,,1,0.415,,,,,,2018_Jun_11_1400,59.1284337224,verb_norming,001,902,
GRIP,gripa om,hålla om,kasta om,2,kasta om,gripa om,hålla om,,,0,107,107,29,,,,,,,,,,,,,,,2,1,3.20355225695,,,2018_Jun_11_1400,59.1284337224,verb_norming,001,902,
SEIZE,fånga,klämma,fästa,1,fånga,klämma,fästa,Arm,arm,0,108,108,68,0,0,0,0,,,,,,,,,7,4.486,,,,,,2018_Jun_11_1400,59.1284337224,verb_norming,001,902,
SEIZE,fånga,klämma,fästa,1,fånga,klämma,fästa,Leg,leg,0,108,108,68,0,1,1,1,,,,,,,,,1,1.201,,,,,,2018_Jun_11_1400,59.1284337224,verb_norming,001,902,
SEIZE,fånga,klämma,fästa,1,fånga,klämma,fästa,,,0,108,108,68,,,,,,,,,,,,,,,1,1,3.5895658379,,,2018_Jun_11_1400,59.1284337224,verb_norming,001,902,
CREEP,krypa,knäböja,klättra,3,klättra,knäböja,krypa,Arm,arm,0,109,109,15,0,0,0,0,,,,,,,,,1,3.48,,,,,,2018_Jun_11_1400,59.1284337224,verb_norming,001,902,
CREEP,krypa,knäböja,klättra,3,klättra,knäböja,krypa,Leg,leg,0,109,109,15,0,1,1,1,,,,,,,,,7,0.784,,,,,,2018_Jun_11_1400,59.1284337224,verb_norming,001,902,
CREEP,krypa,knäböja,klättra,3,klättra,knäböja,krypa,,,0,109,109,15,,,,,,,,,,,,,,,3,1,4.27714036678,,,2018_Jun_11_1400,59.1284337224,verb_norming,001,902,
WIPE,torka,putsa,gnugga,3,putsa,gnugga,torka,Arm,arm,0,110,110,109,0,0,0,0,,,,,,,,,7,4.689,,,,,,2018_Jun_11_1400,59.1284337224,verb_norming,001,902,
WIPE,torka,putsa,gnugga,3,putsa,gnugga,torka,Leg,leg,0,110,110,109,0,1,1,1,,,,,,,,,1,2.461,,,,,,2018_Jun_11_1400,59.1284337224,verb_norming,001,902,
WIPE,torka,putsa,gnugga,3,putsa,gnugga,torka,,,0,110,110,109,,,,,,,,,,,,,,,3,1,3.70683488627,,,2018_Jun_11_1400,59.1284337224,verb_norming,001,902,
ROLL,vingla,snubbla,svassa,1,vingla,snubbla,svassa,Arm,arm,0,111,111,59,0,0,0,0,,,,,,,,,1,2.859,,,,,,2018_Jun_11_1400,59.1284337224,verb_norming,001,902,
ROLL,vingla,snubbla,svassa,1,vingla,snubbla,svassa,Leg,leg,0,111,111,59,0,1,1,1,,,,,,,,,4,2.057,,,,,,2018_Jun_11_1400,59.1284337224,verb_norming,001,902,
ROLL,vingla,snubbla,svassa,1,vingla,snubbla,svassa,,,0,111,111,59,,,,,,,,,,,,,,,3,0,5.40071152611,,,2018_Jun_11_1400,59.1284337224,verb_norming,001,902,
,,,,,,,,,,,,,,,,,,,,,,,,,,,,,,,space,15.0945285033,2018_Jun_11_1400,59.1284337224,verb_norming,001,902,
