word,target,distrOne,distrTwo,corrAns,w1,w2,w3,category,category_lowercase,trials.thisRepN,trials.thisTrialN,trials.thisN,trials.thisIndex,ArmLeg_loop.thisRepN,ArmLeg_loop.thisTrialN,ArmLeg_loop.thisN,ArmLeg_loop.thisIndex,key_resp_3.keys,key_resp_3.rt,key_resp_6.keys,key_resp_6.rt,key_resp_5.keys,key_resp_5.rt,key_resp_4.keys,key_resp_4.rt,key_resp_8.keys,key_resp_8.rt,rating.response,rating.rt,answer.keys,answer.corr,answer.rt,key_resp_7.keys,key_resp_7.rt,date,frameRate,expName,session,participant,
,,,,,,,,,,,,,,,,,,space,35.6055242052,,,,,,,,,,,,,,,,2018_Jun_12_1246,59.6277064433,verb_norming,001,903,
,,,,,,,,,,,,,,,,,,,,space,23.1112154658,,,,,,,,,,,,,,2018_Jun_12_1246,59.6277064433,verb_norming,001,903,
,,,,,,,,,,,,,,,,,,,,,,space,13.6353997672,,,,,,,,,,,,2018_Jun_12_1246,59.6277064433,verb_norming,001,903,
,,,,,,,,,,,,,,,,,,,,,,,,space,9.52631319001,,,,,,,,,,2018_Jun_12_1246,59.6277064433,verb_norming,001,903,
,,,,,,,,,,,,,,,,,,,,,,,,,,space,72.016380352,,,,,,,,2018_Jun_12_1246,59.6277064433,verb_norming,001,903,
RUB,gnugga,riva,klappa,3,klappa,riva,gnugga,Leg,leg,0,0,0,60,0,0,0,0,,,,,,,,,,,1,22.541,,,,,,2018_Jun_12_1246,59.6277064433,verb_norming,001,903,
RUB,gnugga,riva,klappa,3,klappa,riva,gnugga,Arm,arm,0,0,0,60,0,1,1,1,,,,,,,,,,,7,12.323,,,,,,2018_Jun_12_1246,59.6277064433,verb_norming,001,903,
RUB,gnugga,riva,klappa,3,klappa,riva,gnugga,,,0,0,0,60,,,,,,,,,,,,,,,,,3,1,4.96465839398,,,2018_Jun_12_1246,59.6277064433,verb_norming,001,903,
CLUTCH,gripa tag i,sätta ihop,dra ut,2,dra ut,gripa tag i,sätta ihop,Leg,leg,0,1,1,13,0,0,0,0,,,,,,,,,,,3,17.216,,,,,,2018_Jun_12_1246,59.6277064433,verb_norming,001,903,
CLUTCH,gripa tag i,sätta ihop,dra ut,2,dra ut,gripa tag i,sätta ihop,Arm,arm,0,1,1,13,0,1,1,1,,,,,,,,,,,6,7.459,,,,,,2018_Jun_12_1246,59.6277064433,verb_norming,001,903,
CLUTCH,gripa tag i,sätta ihop,dra ut,2,dra ut,gripa tag i,sätta ihop,,,0,1,1,13,,,,,,,,,,,,,,,,,2,1,5.48440632535,,,2018_Jun_12_1246,59.6277064433,verb_norming,001,903,
JOG,jogga,spurta,rusa,1,jogga,rusa,spurta,Leg,leg,0,2,2,34,0,0,0,0,,,,,,,,,,,7,4.952,,,,,,2018_Jun_12_1246,59.6277064433,verb_norming,001,903,
JOG,jogga,spurta,rusa,1,jogga,rusa,spurta,Arm,arm,0,2,2,34,0,1,1,1,,,,,,,,,,,1,2.092,,,,,,2018_Jun_12_1246,59.6277064433,verb_norming,001,903,
JOG,jogga,spurta,rusa,1,jogga,rusa,spurta,,,0,2,2,34,,,,,,,,,,,,,,,,,1,1,1.92890902756,,,2018_Jun_12_1246,59.6277064433,verb_norming,001,903,
CREEP,krypa,knäböja,klättra,1,krypa,klättra,knäböja,Leg,leg,0,3,3,15,0,0,0,0,,,,,,,,,,,7,4.991,,,,,,2018_Jun_12_1246,59.6277064433,verb_norming,001,903,
CREEP,krypa,knäböja,klättra,1,krypa,klättra,knäböja,Arm,arm,0,3,3,15,0,1,1,1,,,,,,,,,,,1,4.373,,,,,,2018_Jun_12_1246,59.6277064433,verb_norming,001,903,
CREEP,krypa,knäböja,klättra,1,krypa,klättra,knäböja,,,0,3,3,15,,,,,,,,,,,,,,,,,1,1,2.1133242035,,,2018_Jun_12_1246,59.6277064433,verb_norming,001,903,
HIKE,vandra,flanera,lunka,2,lunka,vandra,flanera,Leg,leg,0,4,4,31,0,0,0,0,,,,,,,,,,,7,3.649,,,,,,2018_Jun_12_1246,59.6277064433,verb_norming,001,903,
HIKE,vandra,flanera,lunka,2,lunka,vandra,flanera,Arm,arm,0,4,4,31,0,1,1,1,,,,,,,,,,,1,2.829,,,,,,2018_Jun_12_1246,59.6277064433,verb_norming,001,903,
HIKE,vandra,flanera,lunka,2,lunka,vandra,flanera,,,0,4,4,31,,,,,,,,,,,,,,,,,2,1,2.68372451201,,,2018_Jun_12_1246,59.6277064433,verb_norming,001,903,
DUNK,dunka,dumpa,dunsa,3,dumpa,dunsa,dunka,Leg,leg,0,5,5,20,0,0,0,0,,,,,,,,,,,7,7.116,,,,,,2018_Jun_12_1246,59.6277064433,verb_norming,001,903,
DUNK,dunka,dumpa,dunsa,3,dumpa,dunsa,dunka,Arm,arm,0,5,5,20,0,1,1,1,,,,,,,,,,,7,5.813,,,,,,2018_Jun_12_1246,59.6277064433,verb_norming,001,903,
DUNK,dunka,dumpa,dunsa,3,dumpa,dunsa,dunka,,,0,5,5,20,,,,,,,,,,,,,,,,,3,1,2.8178492377,,,2018_Jun_12_1246,59.6277064433,verb_norming,001,903,
CLICK,klicka,klappa,klämma,2,klappa,klicka,klämma,Leg,leg,0,6,6,11,0,0,0,0,,,,,,,,,,,1,4.454,,,,,,2018_Jun_12_1246,59.6277064433,verb_norming,001,903,
CLICK,klicka,klappa,klämma,2,klappa,klicka,klämma,Arm,arm,0,6,6,11,0,1,1,1,,,,,,,,,,,7,3.602,,,,,,2018_Jun_12_1246,59.6277064433,verb_norming,001,903,
CLICK,klicka,klappa,klämma,2,klappa,klicka,klämma,,,0,6,6,11,,,,,,,,,,,,,,,,,2,1,3.23733749839,,,2018_Jun_12_1246,59.6277064433,verb_norming,001,903,
SKIP,hoppa,kliva,strutta,1,hoppa,kliva,strutta,Leg,leg,0,7,7,72,0,0,0,0,,,,,,,,,,,7,6.064,,,,,,2018_Jun_12_1246,59.6277064433,verb_norming,001,903,
SKIP,hoppa,kliva,strutta,1,hoppa,kliva,strutta,Arm,arm,0,7,7,72,0,1,1,1,,,,,,,,,,,1,4.641,,,,,,2018_Jun_12_1246,59.6277064433,verb_norming,001,903,
SKIP,hoppa,kliva,strutta,1,hoppa,kliva,strutta,,,0,7,7,72,,,,,,,,,,,,,,,,,1,1,13.2497512741,,,2018_Jun_12_1246,59.6277064433,verb_norming,001,903,
MARCH,marschera,trava,traska,1,marschera,traska,trava,Leg,leg,0,8,8,42,0,0,0,0,,,,,,,,,,,7,2.925,,,,,,2018_Jun_12_1246,59.6277064433,verb_norming,001,903,
MARCH,marschera,trava,traska,1,marschera,traska,trava,Arm,arm,0,8,8,42,0,1,1,1,,,,,,,,,,,3,3.634,,,,,,2018_Jun_12_1246,59.6277064433,verb_norming,001,903,
MARCH,marschera,trava,traska,1,marschera,traska,trava,,,0,8,8,42,,,,,,,,,,,,,,,,,1,1,1.69434287751,,,2018_Jun_12_1246,59.6277064433,verb_norming,001,903,
WASH,tvätta,skura,sopa,2,skura,tvätta,sopa,Leg,leg,0,9,9,107,0,0,0,0,,,,,,,,,,,2,8.614,,,,,,2018_Jun_12_1246,59.6277064433,verb_norming,001,903,
WASH,tvätta,skura,sopa,2,skura,tvätta,sopa,Arm,arm,0,9,9,107,0,1,1,1,,,,,,,,,,,7,2.378,,,,,,2018_Jun_12_1246,59.6277064433,verb_norming,001,903,
WASH,tvätta,skura,sopa,2,skura,tvätta,sopa,,,0,9,9,107,,,,,,,,,,,,,,,,,2,1,2.96901297485,,,2018_Jun_12_1246,59.6277064433,verb_norming,001,903,
GRASP,gripa,klämma,omfamna,2,omfamna,gripa,klämma,Leg,leg,0,10,10,27,0,0,0,0,,,,,,,,,,,1,4.319,,,,,,2018_Jun_12_1246,59.6277064433,verb_norming,001,903,
GRASP,gripa,klämma,omfamna,2,omfamna,gripa,klämma,Arm,arm,0,10,10,27,0,1,1,1,,,,,,,,,,,7,2.225,,,,,,2018_Jun_12_1246,59.6277064433,verb_norming,001,903,
GRASP,gripa,klämma,omfamna,2,omfamna,gripa,klämma,,,0,10,10,27,,,,,,,,,,,,,,,,,1,0,5.92053927104,,,2018_Jun_12_1246,59.6277064433,verb_norming,001,903,
THROW,kasta,greppa,träffa,2,träffa,kasta,greppa,Leg,leg,0,11,11,94,0,0,0,0,,,,,,,,,,,1,4.101,,,,,,2018_Jun_12_1246,59.6277064433,verb_norming,001,903,
THROW,kasta,greppa,träffa,2,träffa,kasta,greppa,Arm,arm,0,11,11,94,0,1,1,1,,,,,,,,,,,7,1.606,,,,,,2018_Jun_12_1246,59.6277064433,verb_norming,001,903,
THROW,kasta,greppa,träffa,2,träffa,kasta,greppa,,,0,11,11,94,,,,,,,,,,,,,,,,,2,1,2.58288718076,,,2018_Jun_12_1246,59.6277064433,verb_norming,001,903,
ROAM,ströva omkring,ta sig fram,luffa runt,2,luffa runt,ströva omkring,ta sig fram,Leg,leg,0,12,12,58,0,0,0,0,,,,,,,,,,,7,6.046,,,,,,2018_Jun_12_1246,59.6277064433,verb_norming,001,903,
ROAM,ströva omkring,ta sig fram,luffa runt,2,luffa runt,ströva omkring,ta sig fram,Arm,arm,0,12,12,58,0,1,1,1,,,,,,,,,,,1,1.521,,,,,,2018_Jun_12_1246,59.6277064433,verb_norming,001,903,
ROAM,ströva omkring,ta sig fram,luffa runt,2,luffa runt,ströva omkring,ta sig fram,,,0,12,12,58,,,,,,,,,,,,,,,,,2,1,12.8638503014,,,2018_Jun_12_1246,59.6277064433,verb_norming,001,903,
CARVE,tälja,hacka,riva,1,tälja,hacka,riva,Leg,leg,0,13,13,5,0,0,0,0,,,,,,,,,,,1,5.306,,,,,,2018_Jun_12_1246,59.6277064433,verb_norming,001,903,
CARVE,tälja,hacka,riva,1,tälja,hacka,riva,Arm,arm,0,13,13,5,0,1,1,1,,,,,,,,,,,7,1.705,,,,,,2018_Jun_12_1246,59.6277064433,verb_norming,001,903,
CARVE,tälja,hacka,riva,1,tälja,hacka,riva,,,0,13,13,5,,,,,,,,,,,,,,,,,1,1,5.24972559148,,,2018_Jun_12_1246,59.6277064433,verb_norming,001,903,
STUMBLE,snubbla,glida,svaja,1,snubbla,glida,svaja,Leg,leg,0,14,14,91,0,0,0,0,,,,,,,,,,,7,3.159,,,,,,2018_Jun_12_1246,59.6277064433,verb_norming,001,903,
STUMBLE,snubbla,glida,svaja,1,snubbla,glida,svaja,Arm,arm,0,14,14,91,0,1,1,1,,,,,,,,,,,1,1.871,,,,,,2018_Jun_12_1246,59.6277064433,verb_norming,001,903,
STUMBLE,snubbla,glida,svaja,1,snubbla,glida,svaja,,,0,14,14,91,,,,,,,,,,,,,,,,,1,1,2.07999097554,,,2018_Jun_12_1246,59.6277064433,verb_norming,001,903,
SWITCH,slå på/av,knäppa,nypa,3,nypa,knäppa,slå på/av,Leg,leg,0,15,15,93,0,0,0,0,,,,,,,,,,,5,7.556,,,,,,2018_Jun_12_1246,59.6277064433,verb_norming,001,903,
SWITCH,slå på/av,knäppa,nypa,3,nypa,knäppa,slå på/av,Arm,arm,0,15,15,93,0,1,1,1,,,,,,,,,,,5,4.037,,,,,,2018_Jun_12_1246,59.6277064433,verb_norming,001,903,
SWITCH,slå på/av,knäppa,nypa,3,nypa,knäppa,slå på/av,,,0,15,15,93,,,,,,,,,,,,,,,,,3,1,6.92670743744,,,2018_Jun_12_1246,59.6277064433,verb_norming,001,903,
KNOCK,knacka,krocka,klicka,2,klicka,knacka,krocka,Leg,leg,0,16,16,38,0,0,0,0,,,,,,,,,,,1,4.453,,,,,,2018_Jun_12_1246,59.6277064433,verb_norming,001,903,
KNOCK,knacka,krocka,klicka,2,klicka,knacka,krocka,Arm,arm,0,16,16,38,0,1,1,1,,,,,,,,,,,7,1.655,,,,,,2018_Jun_12_1246,59.6277064433,verb_norming,001,903,
KNOCK,knacka,krocka,klicka,2,klicka,knacka,krocka,,,0,16,16,38,,,,,,,,,,,,,,,,,2,1,2.39862926124,,,2018_Jun_12_1246,59.6277064433,verb_norming,001,903,
TOSS,slänga,fånga,gripa,3,fånga,gripa,slänga,Leg,leg,0,17,17,96,0,0,0,0,,,,,,,,,,,1,4.32,,,,,,2018_Jun_12_1246,59.6277064433,verb_norming,001,903,
TOSS,slänga,fånga,gripa,3,fånga,gripa,slänga,Arm,arm,0,17,17,96,0,1,1,1,,,,,,,,,,,7,1.27,,,,,,2018_Jun_12_1246,59.6277064433,verb_norming,001,903,
TOSS,slänga,fånga,gripa,3,fånga,gripa,slänga,,,0,17,17,96,,,,,,,,,,,,,,,,,3,1,2.90186368633,,,2018_Jun_12_1246,59.6277064433,verb_norming,001,903,
STAMP,stampa,kliva,skutta,3,skutta,kliva,stampa,Leg,leg,0,18,18,83,0,0,0,0,,,,,,,,,,,7,3.966,,,,,,2018_Jun_12_1246,59.6277064433,verb_norming,001,903,
STAMP,stampa,kliva,skutta,3,skutta,kliva,stampa,Arm,arm,0,18,18,83,0,1,1,1,,,,,,,,,,,1,4.22,,,,,,2018_Jun_12_1246,59.6277064433,verb_norming,001,903,
STAMP,stampa,kliva,skutta,3,skutta,kliva,stampa,,,0,18,18,83,,,,,,,,,,,,,,,,,3,1,2.01298946067,,,2018_Jun_12_1246,59.6277064433,verb_norming,001,903,
DIG,gräva,dränera,dika,3,dika,dränera,gräva,Leg,leg,0,19,19,19,0,0,0,0,,,,,,,,,,,4,6.381,,,,,,2018_Jun_12_1246,59.6277064433,verb_norming,001,903,
DIG,gräva,dränera,dika,3,dika,dränera,gräva,Arm,arm,0,19,19,19,0,1,1,1,,,,,,,,,,,7,1.974,,,,,,2018_Jun_12_1246,59.6277064433,verb_norming,001,903,
DIG,gräva,dränera,dika,3,dika,dränera,gräva,,,0,19,19,19,,,,,,,,,,,,,,,,,3,1,2.78447926388,,,2018_Jun_12_1246,59.6277064433,verb_norming,001,903,
SNEAK,smyga,hasa,glida,3,glida,hasa,smyga,Leg,leg,0,20,20,78,0,0,0,0,,,,,,,,,,,7,7.236,,,,,,2018_Jun_12_1246,59.6277064433,verb_norming,001,903,
SNEAK,smyga,hasa,glida,3,glida,hasa,smyga,Arm,arm,0,20,20,78,0,1,1,1,,,,,,,,,,,1,2.476,,,,,,2018_Jun_12_1246,59.6277064433,verb_norming,001,903,
SNEAK,smyga,hasa,glida,3,glida,hasa,smyga,,,0,20,20,78,,,,,,,,,,,,,,,,,3,1,1.91222246016,,,2018_Jun_12_1246,59.6277064433,verb_norming,001,903,
GRATE,riva,hugga,rispa,1,riva,hugga,rispa,Leg,leg,0,21,21,28,0,0,0,0,,,,,,,,,,,1,3.111,,,,,,2018_Jun_12_1246,59.6277064433,verb_norming,001,903,
GRATE,riva,hugga,rispa,1,riva,hugga,rispa,Arm,arm,0,21,21,28,0,1,1,1,,,,,,,,,,,7,1.604,,,,,,2018_Jun_12_1246,59.6277064433,verb_norming,001,903,
GRATE,riva,hugga,rispa,1,riva,hugga,rispa,,,0,21,21,28,,,,,,,,,,,,,,,,,1,1,5.40057560598,,,2018_Jun_12_1246,59.6277064433,verb_norming,001,903,
STOMP,stampa,stiga,kliva,1,stampa,kliva,stiga,Leg,leg,0,22,22,86,0,0,0,0,,,,,,,,,,,7,3.848,,,,,,2018_Jun_12_1246,59.6277064433,verb_norming,001,903,
STOMP,stampa,stiga,kliva,1,stampa,kliva,stiga,Arm,arm,0,22,22,86,0,1,1,1,,,,,,,,,,,1,1.872,,,,,,2018_Jun_12_1246,59.6277064433,verb_norming,001,903,
STOMP,stampa,stiga,kliva,1,stampa,kliva,stiga,,,0,22,22,86,,,,,,,,,,,,,,,,,1,1,1.99617961688,,,2018_Jun_12_1246,59.6277064433,verb_norming,001,903,
PLOD,lunka,pulsa,vingla,2,pulsa,lunka,vingla,Leg,leg,0,23,23,49,0,0,0,0,,,,,,,,,,,7,5.576,,,,,,2018_Jun_12_1246,59.6277064433,verb_norming,001,903,
PLOD,lunka,pulsa,vingla,2,pulsa,lunka,vingla,Arm,arm,0,23,23,49,0,1,1,1,,,,,,,,,,,1,1.671,,,,,,2018_Jun_12_1246,59.6277064433,verb_norming,001,903,
PLOD,lunka,pulsa,vingla,2,pulsa,lunka,vingla,,,0,23,23,49,,,,,,,,,,,,,,,,,1,0,4.0422415285,,,2018_Jun_12_1246,59.6277064433,verb_norming,001,903,
CLAP,klappa,knäppa,klämma,3,klämma,knäppa,klappa,Leg,leg,0,24,24,8,0,0,0,0,,,,,,,,,,,1,2.576,,,,,,2018_Jun_12_1246,59.6277064433,verb_norming,001,903,
CLAP,klappa,knäppa,klämma,3,klämma,knäppa,klappa,Arm,arm,0,24,24,8,0,1,1,1,,,,,,,,,,,7,1.203,,,,,,2018_Jun_12_1246,59.6277064433,verb_norming,001,903,
CLAP,klappa,knäppa,klämma,3,klämma,knäppa,klappa,,,0,24,24,8,,,,,,,,,,,,,,,,,3,1,2.28126340927,,,2018_Jun_12_1246,59.6277064433,verb_norming,001,903,
CLIMB,klättra,kliva,krypa,2,krypa,klättra,kliva,Leg,leg,0,25,25,12,0,0,0,0,,,,,,,,,,,7,3.546,,,,,,2018_Jun_12_1246,59.6277064433,verb_norming,001,903,
CLIMB,klättra,kliva,krypa,2,krypa,klättra,kliva,Arm,arm,0,25,25,12,0,1,1,1,,,,,,,,,,,6,3.097,,,,,,2018_Jun_12_1246,59.6277064433,verb_norming,001,903,
CLIMB,klättra,kliva,krypa,2,krypa,klättra,kliva,,,0,25,25,12,,,,,,,,,,,,,,,,,2,1,1.71115706758,,,2018_Jun_12_1246,59.6277064433,verb_norming,001,903,
CLAW,klösa,nypa,rispa,3,nypa,rispa,klösa,Leg,leg,0,26,26,9,0,0,0,0,,,,,,,,,,,1,10.525,,,,,,2018_Jun_12_1246,59.6277064433,verb_norming,001,903,
CLAW,klösa,nypa,rispa,3,nypa,rispa,klösa,Arm,arm,0,26,26,9,0,1,1,1,,,,,,,,,,,7,2.378,,,,,,2018_Jun_12_1246,59.6277064433,verb_norming,001,903,
CLAW,klösa,nypa,rispa,3,nypa,rispa,klösa,,,0,26,26,9,,,,,,,,,,,,,,,,,3,1,3.43858820072,,,2018_Jun_12_1246,59.6277064433,verb_norming,001,903,
WHIP,piska,klappa,slå,2,klappa,piska,slå,Leg,leg,0,27,27,108,0,0,0,0,,,,,,,,,,,1,3.748,,,,,,2018_Jun_12_1246,59.6277064433,verb_norming,001,903,
WHIP,piska,klappa,slå,2,klappa,piska,slå,Arm,arm,0,27,27,108,0,1,1,1,,,,,,,,,,,7,2.814,,,,,,2018_Jun_12_1246,59.6277064433,verb_norming,001,903,
WHIP,piska,klappa,slå,2,klappa,piska,slå,,,0,27,27,108,,,,,,,,,,,,,,,,,2,1,1.86197191667,,,2018_Jun_12_1246,59.6277064433,verb_norming,001,903,
PUSH,knuffa,kasta,klämma,1,knuffa,kasta,klämma,Leg,leg,0,28,28,56,0,0,0,0,,,,,,,,,,,4,5.528,,,,,,2018_Jun_12_1246,59.6277064433,verb_norming,001,903,
PUSH,knuffa,kasta,klämma,1,knuffa,kasta,klämma,Arm,arm,0,28,28,56,0,1,1,1,,,,,,,,,,,7,4.272,,,,,,2018_Jun_12_1246,59.6277064433,verb_norming,001,903,
PUSH,knuffa,kasta,klämma,1,knuffa,kasta,klämma,,,0,28,28,56,,,,,,,,,,,,,,,,,1,1,3.06951090088,,,2018_Jun_12_1246,59.6277064433,verb_norming,001,903,
CHOP,hacka,tälja,riva,3,tälja,riva,hacka,Leg,leg,0,29,29,7,0,0,0,0,,,,,,,,,,,1,2.559,,,,,,2018_Jun_12_1246,59.6277064433,verb_norming,001,903,
CHOP,hacka,tälja,riva,3,tälja,riva,hacka,Arm,arm,0,29,29,7,0,1,1,1,,,,,,,,,,,7,1.355,,,,,,2018_Jun_12_1246,59.6277064433,verb_norming,001,903,
CHOP,hacka,tälja,riva,3,tälja,riva,hacka,,,0,29,29,7,,,,,,,,,,,,,,,,,3,1,4.19317135657,,,2018_Jun_12_1246,59.6277064433,verb_norming,001,903,
TWINE,tvinna,binda,knyta,2,binda,tvinna,knyta,Leg,leg,0,30,30,103,0,0,0,0,,,,,,,,,,,1,4.351,,,,,,2018_Jun_12_1246,59.6277064433,verb_norming,001,903,
TWINE,tvinna,binda,knyta,2,binda,tvinna,knyta,Arm,arm,0,30,30,103,0,1,1,1,,,,,,,,,,,7,2.224,,,,,,2018_Jun_12_1246,59.6277064433,verb_norming,001,903,
TWINE,tvinna,binda,knyta,2,binda,tvinna,knyta,,,0,30,30,103,,,,,,,,,,,,,,,,,2,1,7.81581438683,,,2018_Jun_12_1246,59.6277064433,verb_norming,001,903,
WADE,vada,pulsa,plöja,2,plöja,vada,pulsa,Leg,leg,0,31,31,104,0,0,0,0,,,,,,,,,,,7,3.128,,,,,,2018_Jun_12_1246,59.6277064433,verb_norming,001,903,
WADE,vada,pulsa,plöja,2,plöja,vada,pulsa,Arm,arm,0,31,31,104,0,1,1,1,,,,,,,,,,,3,4.151,,,,,,2018_Jun_12_1246,59.6277064433,verb_norming,001,903,
WADE,vada,pulsa,plöja,2,plöja,vada,pulsa,,,0,31,31,104,,,,,,,,,,,,,,,,,2,1,5.70276044312,,,2018_Jun_12_1246,59.6277064433,verb_norming,001,903,
SWAY,vingla,tassa,ramla,3,tassa,ramla,vingla,Leg,leg,0,32,32,92,0,0,0,0,,,,,,,,,,,7,2.928,,,,,,2018_Jun_12_1246,59.6277064433,verb_norming,001,903,
SWAY,vingla,tassa,ramla,3,tassa,ramla,vingla,Arm,arm,0,32,32,92,0,1,1,1,,,,,,,,,,,1,1.321,,,,,,2018_Jun_12_1246,59.6277064433,verb_norming,001,903,
SWAY,vingla,tassa,ramla,3,tassa,ramla,vingla,,,0,32,32,92,,,,,,,,,,,,,,,,,3,1,3.32115201798,,,2018_Jun_12_1246,59.6277064433,verb_norming,001,903,
STROLL,strosa,trava,marschera,2,trava,strosa,marschera,Leg,leg,0,33,33,89,0,0,0,0,,,,,,,,,,,7,2.709,,,,,,2018_Jun_12_1246,59.6277064433,verb_norming,001,903,
STROLL,strosa,trava,marschera,2,trava,strosa,marschera,Arm,arm,0,33,33,89,0,1,1,1,,,,,,,,,,,1,1.253,,,,,,2018_Jun_12_1246,59.6277064433,verb_norming,001,903,
STROLL,strosa,trava,marschera,2,trava,strosa,marschera,,,0,33,33,89,,,,,,,,,,,,,,,,,2,1,4.41122637103,,,2018_Jun_12_1246,59.6277064433,verb_norming,001,903,
CRAWL,kravla,huka,klättra,2,huka,kravla,klättra,Leg,leg,0,34,34,14,0,0,0,0,,,,,,,,,,,7,5.192,,,,,,2018_Jun_12_1246,59.6277064433,verb_norming,001,903,
CRAWL,kravla,huka,klättra,2,huka,kravla,klättra,Arm,arm,0,34,34,14,0,1,1,1,,,,,,,,,,,1,2.611,,,,,,2018_Jun_12_1246,59.6277064433,verb_norming,001,903,
CRAWL,kravla,huka,klättra,2,huka,kravla,klättra,,,0,34,34,14,,,,,,,,,,,,,,,,,2,1,2.41542764663,,,2018_Jun_12_1246,59.6277064433,verb_norming,001,903,
MOUNT,gå uppför,ströva runt,kliva över,2,kliva över,gå uppför,ströva runt,Leg,leg,0,35,35,43,0,0,0,0,,,,,,,,,,,5,5.273,,,,,,2018_Jun_12_1246,59.6277064433,verb_norming,001,903,
MOUNT,gå uppför,ströva runt,kliva över,2,kliva över,gå uppför,ströva runt,Arm,arm,0,35,35,43,0,1,1,1,,,,,,,,,,,5,1.402,,,,,,2018_Jun_12_1246,59.6277064433,verb_norming,001,903,
MOUNT,gå uppför,ströva runt,kliva över,2,kliva över,gå uppför,ströva runt,,,0,35,35,43,,,,,,,,,,,,,,,,,1,0,3.58929992438,,,2018_Jun_12_1246,59.6277064433,verb_norming,001,903,
SCRAPE,skrapa,rispa,klösa,3,klösa,rispa,skrapa,Leg,leg,0,36,36,64,0,0,0,0,,,,,,,,,,,2,7.187,,,,,,2018_Jun_12_1246,59.6277064433,verb_norming,001,903,
SCRAPE,skrapa,rispa,klösa,3,klösa,rispa,skrapa,Arm,arm,0,36,36,64,0,1,1,1,,,,,,,,,,,7,1.52,,,,,,2018_Jun_12_1246,59.6277064433,verb_norming,001,903,
SCRAPE,skrapa,rispa,klösa,3,klösa,rispa,skrapa,,,0,36,36,64,,,,,,,,,,,,,,,,,3,1,1.61033238005,,,2018_Jun_12_1246,59.6277064433,verb_norming,001,903,
SHAKE,skaka,röra,vispa,2,röra,skaka,vispa,Leg,leg,0,37,37,69,0,0,0,0,,,,,,,,,,,4,10.693,,,,,,2018_Jun_12_1246,59.6277064433,verb_norming,001,903,
SHAKE,skaka,röra,vispa,2,röra,skaka,vispa,Arm,arm,0,37,37,69,0,1,1,1,,,,,,,,,,,7,2.293,,,,,,2018_Jun_12_1246,59.6277064433,verb_norming,001,903,
SHAKE,skaka,röra,vispa,2,röra,skaka,vispa,,,0,37,37,69,,,,,,,,,,,,,,,,,2,1,1.82827004486,,,2018_Jun_12_1246,59.6277064433,verb_norming,001,903,
TRUDGE,släpa sig fram,kasta sig fram,ta sig fram,3,ta sig fram,kasta sig fram,släpa sig fram,Leg,leg,0,38,38,101,0,0,0,0,,,,,,,,,,,7,3.043,,,,,,2018_Jun_12_1246,59.6277064433,verb_norming,001,903,
TRUDGE,släpa sig fram,kasta sig fram,ta sig fram,3,ta sig fram,kasta sig fram,släpa sig fram,Arm,arm,0,38,38,101,0,1,1,1,,,,,,,,,,,1,1.754,,,,,,2018_Jun_12_1246,59.6277064433,verb_norming,001,903,
TRUDGE,släpa sig fram,kasta sig fram,ta sig fram,3,ta sig fram,kasta sig fram,släpa sig fram,,,0,38,38,101,,,,,,,,,,,,,,,,,1,0,7.26242108531,,,2018_Jun_12_1246,59.6277064433,verb_norming,001,903,
SCRUB,skrubba,sopa,skrapa,1,skrubba,sopa,skrapa,Leg,leg,0,39,39,66,0,0,0,0,,,,,,,,,,,1,8.747,,,,,,2018_Jun_12_1246,59.6277064433,verb_norming,001,903,
SCRUB,skrubba,sopa,skrapa,1,skrubba,sopa,skrapa,Arm,arm,0,39,39,66,0,1,1,1,,,,,,,,,,,7,1.102,,,,,,2018_Jun_12_1246,59.6277064433,verb_norming,001,903,
SCRUB,skrubba,sopa,skrapa,1,skrubba,sopa,skrapa,,,0,39,39,66,,,,,,,,,,,,,,,,,1,1,9.3587256381,,,2018_Jun_12_1246,59.6277064433,verb_norming,001,903,
FLEE,fly,lyfta,flyga,2,lyfta,fly,flyga,Leg,leg,0,40,40,22,0,0,0,0,,,,,,,,,,,7,3.129,,,,,,2018_Jun_12_1246,59.6277064433,verb_norming,001,903,
FLEE,fly,lyfta,flyga,2,lyfta,fly,flyga,Arm,arm,0,40,40,22,0,1,1,1,,,,,,,,,,,1,0.969,,,,,,2018_Jun_12_1246,59.6277064433,verb_norming,001,903,
FLEE,fly,lyfta,flyga,2,lyfta,fly,flyga,,,0,40,40,22,,,,,,,,,,,,,,,,,2,1,1.57676840395,,,2018_Jun_12_1246,59.6277064433,verb_norming,001,903,
SQUEEZE,klämma,knuffa,knäppa,2,knuffa,klämma,knäppa,Leg,leg,0,41,41,80,0,0,0,0,,,,,,,,,,,3,4.346,,,,,,2018_Jun_12_1246,59.6277064433,verb_norming,001,903,
SQUEEZE,klämma,knuffa,knäppa,2,knuffa,klämma,knäppa,Arm,arm,0,41,41,80,0,1,1,1,,,,,,,,,,,7,0.998,,,,,,2018_Jun_12_1246,59.6277064433,verb_norming,001,903,
SQUEEZE,klämma,knuffa,knäppa,2,knuffa,klämma,knäppa,,,0,41,41,80,,,,,,,,,,,,,,,,,2,1,2.36519527851,,,2018_Jun_12_1246,59.6277064433,verb_norming,001,903,
RUN,springa,rusa,jogga,1,springa,rusa,jogga,Leg,leg,0,42,42,61,0,0,0,0,,,,,,,,,,,7,3.229,,,,,,2018_Jun_12_1246,59.6277064433,verb_norming,001,903,
RUN,springa,rusa,jogga,1,springa,rusa,jogga,Arm,arm,0,42,42,61,0,1,1,1,,,,,,,,,,,1,1.068,,,,,,2018_Jun_12_1246,59.6277064433,verb_norming,001,903,
RUN,springa,rusa,jogga,1,springa,rusa,jogga,,,0,42,42,61,,,,,,,,,,,,,,,,,1,1,1.25824944348,,,2018_Jun_12_1246,59.6277064433,verb_norming,001,903,
WOBBLE,vingla,ramla,glida,1,vingla,ramla,glida,Leg,leg,0,43,43,110,0,0,0,0,,,,,,,,,,,7,2.776,,,,,,2018_Jun_12_1246,59.6277064433,verb_norming,001,903,
WOBBLE,vingla,ramla,glida,1,vingla,ramla,glida,Arm,arm,0,43,43,110,0,1,1,1,,,,,,,,,,,1,1.353,,,,,,2018_Jun_12_1246,59.6277064433,verb_norming,001,903,
WOBBLE,vingla,ramla,glida,1,vingla,ramla,glida,,,0,43,43,110,,,,,,,,,,,,,,,,,1,1,3.47188942423,,,2018_Jun_12_1246,59.6277064433,verb_norming,001,903,
PACE,gå fram och tillbaka,luffa runt,rusa fram,1,gå fram och tillbaka,rusa fram,luffa runt,Leg,leg,0,44,44,45,0,0,0,0,,,,,,,,,,,7,4.236,,,,,,2018_Jun_12_1246,59.6277064433,verb_norming,001,903,
PACE,gå fram och tillbaka,luffa runt,rusa fram,1,gå fram och tillbaka,rusa fram,luffa runt,Arm,arm,0,44,44,45,0,1,1,1,,,,,,,,,,,1,1.253,,,,,,2018_Jun_12_1246,59.6277064433,verb_norming,001,903,
PACE,gå fram och tillbaka,luffa runt,rusa fram,1,gå fram och tillbaka,rusa fram,luffa runt,,,0,44,44,45,,,,,,,,,,,,,,,,,1,1,3.84103349879,,,2018_Jun_12_1246,59.6277064433,verb_norming,001,903,
TROT,trava,promenera,flanera,1,trava,flanera,promenera,Leg,leg,0,45,45,100,0,0,0,0,,,,,,,,,,,7,2.374,,,,,,2018_Jun_12_1246,59.6277064433,verb_norming,001,903,
TROT,trava,promenera,flanera,1,trava,flanera,promenera,Arm,arm,0,45,45,100,0,1,1,1,,,,,,,,,,,1,1.422,,,,,,2018_Jun_12_1246,59.6277064433,verb_norming,001,903,
TROT,trava,promenera,flanera,1,trava,flanera,promenera,,,0,45,45,100,,,,,,,,,,,,,,,,,1,1,5.56837968183,,,2018_Jun_12_1246,59.6277064433,verb_norming,001,903,
WRAP,slå in,slå ihop,slå till,3,slå till,slå ihop,slå in,Leg,leg,0,46,46,111,0,0,0,0,,,,,,,,,,,5,5.41,,,,,,2018_Jun_12_1246,59.6277064433,verb_norming,001,903,
WRAP,slå in,slå ihop,slå till,3,slå till,slå ihop,slå in,Arm,arm,0,46,46,111,0,1,1,1,,,,,,,,,,,7,1.925,,,,,,2018_Jun_12_1246,59.6277064433,verb_norming,001,903,
WRAP,slå in,slå ihop,slå till,3,slå till,slå ihop,slå in,,,0,46,46,111,,,,,,,,,,,,,,,,,3,1,6.30632368432,,,2018_Jun_12_1246,59.6277064433,verb_norming,001,903,
HACK,hacka,skära,kåpa,3,skära,kåpa,hacka,Leg,leg,0,47,47,30,0,0,0,0,,,,,,,,,,,1,3.026,,,,,,2018_Jun_12_1246,59.6277064433,verb_norming,001,903,
HACK,hacka,skära,kåpa,3,skära,kåpa,hacka,Arm,arm,0,47,47,30,0,1,1,1,,,,,,,,,,,7,1.254,,,,,,2018_Jun_12_1246,59.6277064433,verb_norming,001,903,
HACK,hacka,skära,kåpa,3,skära,kåpa,hacka,,,0,47,47,30,,,,,,,,,,,,,,,,,3,1,4.74662708651,,,2018_Jun_12_1246,59.6277064433,verb_norming,001,903,
BRAID,fläta,knyta,binda,1,fläta,knyta,binda,Leg,leg,0,48,48,3,0,0,0,0,,,,,,,,,,,1,3.127,,,,,,2018_Jun_12_1246,59.6277064433,verb_norming,001,903,
BRAID,fläta,knyta,binda,1,fläta,knyta,binda,Arm,arm,0,48,48,3,0,1,1,1,,,,,,,,,,,7,1.252,,,,,,2018_Jun_12_1246,59.6277064433,verb_norming,001,903,
BRAID,fläta,knyta,binda,1,fläta,knyta,binda,,,0,48,48,3,,,,,,,,,,,,,,,,,1,1,3.28753746694,,,2018_Jun_12_1246,59.6277064433,verb_norming,001,903,
SLITHER,hasa,glida,trilla,1,hasa,glida,trilla,Leg,leg,0,49,49,76,0,0,0,0,,,,,,,,,,,7,3.765,,,,,,2018_Jun_12_1246,59.6277064433,verb_norming,001,903,
SLITHER,hasa,glida,trilla,1,hasa,glida,trilla,Arm,arm,0,49,49,76,0,1,1,1,,,,,,,,,,,1,1.369,,,,,,2018_Jun_12_1246,59.6277064433,verb_norming,001,903,
SLITHER,hasa,glida,trilla,1,hasa,glida,trilla,,,0,49,49,76,,,,,,,,,,,,,,,,,1,1,5.76954978035,,,2018_Jun_12_1246,59.6277064433,verb_norming,001,903,
POLISH,polera,sopa,tvätta,3,tvätta,sopa,polera,Leg,leg,0,50,50,52,0,0,0,0,,,,,,,,,,,1,3.245,,,,,,2018_Jun_12_1246,59.6277064433,verb_norming,001,903,
POLISH,polera,sopa,tvätta,3,tvätta,sopa,polera,Arm,arm,0,50,50,52,0,1,1,1,,,,,,,,,,,7,1.504,,,,,,2018_Jun_12_1246,59.6277064433,verb_norming,001,903,
POLISH,polera,sopa,tvätta,3,tvätta,sopa,polera,,,0,50,50,52,,,,,,,,,,,,,,,,,3,1,3.11966938217,,,2018_Jun_12_1246,59.6277064433,verb_norming,001,903,
SLIP,halka,snava,ramla,2,ramla,halka,snava,Leg,leg,0,51,51,75,0,0,0,0,,,,,,,,,,,7,4.773,,,,,,2018_Jun_12_1246,59.6277064433,verb_norming,001,903,
SLIP,halka,snava,ramla,2,ramla,halka,snava,Arm,arm,0,51,51,75,0,1,1,1,,,,,,,,,,,1,1.371,,,,,,2018_Jun_12_1246,59.6277064433,verb_norming,001,903,
SLIP,halka,snava,ramla,2,ramla,halka,snava,,,0,51,51,75,,,,,,,,,,,,,,,,,2,1,4.62918497702,,,2018_Jun_12_1246,59.6277064433,verb_norming,001,903,
NIP,nypa,peta,nudda,1,nypa,nudda,peta,Leg,leg,0,52,52,44,0,0,0,0,,,,,,,,,,,1,2.357,,,,,,2018_Jun_12_1246,59.6277064433,verb_norming,001,903,
NIP,nypa,peta,nudda,1,nypa,nudda,peta,Arm,arm,0,52,52,44,0,1,1,1,,,,,,,,,,,7,1.035,,,,,,2018_Jun_12_1246,59.6277064433,verb_norming,001,903,
NIP,nypa,peta,nudda,1,nypa,nudda,peta,,,0,52,52,44,,,,,,,,,,,,,,,,,1,1,2.31475784486,,,2018_Jun_12_1246,59.6277064433,verb_norming,001,903,
KICK,sparka,knäa,tåa,3,knäa,tåa,sparka,Leg,leg,0,53,53,36,0,0,0,0,,,,,,,,,,,7,2.492,,,,,,2018_Jun_12_1246,59.6277064433,verb_norming,001,903,
KICK,sparka,knäa,tåa,3,knäa,tåa,sparka,Arm,arm,0,53,53,36,0,1,1,1,,,,,,,,,,,1,1.74,,,,,,2018_Jun_12_1246,59.6277064433,verb_norming,001,903,
KICK,sparka,knäa,tåa,3,knäa,tåa,sparka,,,0,53,53,36,,,,,,,,,,,,,,,,,3,1,2.80111328073,,,2018_Jun_12_1246,59.6277064433,verb_norming,001,903,
STIR,röra,sleva,vispa,3,sleva,vispa,röra,Leg,leg,0,54,54,85,0,0,0,0,,,,,,,,,,,1,2.607,,,,,,2018_Jun_12_1246,59.6277064433,verb_norming,001,903,
STIR,röra,sleva,vispa,3,sleva,vispa,röra,Arm,arm,0,54,54,85,0,1,1,1,,,,,,,,,,,7,1.12,,,,,,2018_Jun_12_1246,59.6277064433,verb_norming,001,903,
STIR,röra,sleva,vispa,3,sleva,vispa,röra,,,0,54,54,85,,,,,,,,,,,,,,,,,3,1,8.4196024494,,,2018_Jun_12_1246,59.6277064433,verb_norming,001,903,
PRANCE,kråma sig,promenera,traska,2,traska,kråma sig,promenera,Leg,leg,0,55,55,53,0,0,0,0,,,,,,,,,,,7,2.908,,,,,,2018_Jun_12_1246,59.6277064433,verb_norming,001,903,
PRANCE,kråma sig,promenera,traska,2,traska,kråma sig,promenera,Arm,arm,0,55,55,53,0,1,1,1,,,,,,,,,,,1,1.486,,,,,,2018_Jun_12_1246,59.6277064433,verb_norming,001,903,
PRANCE,kråma sig,promenera,traska,2,traska,kråma sig,promenera,,,0,55,55,53,,,,,,,,,,,,,,,,,2,1,8.83885008405,,,2018_Jun_12_1246,59.6277064433,verb_norming,001,903,
BIND,binda,linda,vinda,3,linda,vinda,binda,Leg,leg,0,56,56,1,0,0,0,0,,,,,,,,,,,1,4.637,,,,,,2018_Jun_12_1246,59.6277064433,verb_norming,001,903,
BIND,binda,linda,vinda,3,linda,vinda,binda,Arm,arm,0,56,56,1,0,1,1,1,,,,,,,,,,,7,1.286,,,,,,2018_Jun_12_1246,59.6277064433,verb_norming,001,903,
BIND,binda,linda,vinda,3,linda,vinda,binda,,,0,56,56,1,,,,,,,,,,,,,,,,,3,1,4.76325675708,,,2018_Jun_12_1246,59.6277064433,verb_norming,001,903,
PEEL,skala,rensa,plocka,3,plocka,rensa,skala,Leg,leg,0,57,57,47,0,0,0,0,,,,,,,,,,,1,2.24,,,,,,2018_Jun_12_1246,59.6277064433,verb_norming,001,903,
PEEL,skala,rensa,plocka,3,plocka,rensa,skala,Arm,arm,0,57,57,47,0,1,1,1,,,,,,,,,,,7,1.941,,,,,,2018_Jun_12_1246,59.6277064433,verb_norming,001,903,
PEEL,skala,rensa,plocka,3,plocka,rensa,skala,,,0,57,57,47,,,,,,,,,,,,,,,,,3,1,2.7003782847,,,2018_Jun_12_1246,59.6277064433,verb_norming,001,903,
STAGGER,ragla,lunka,halka,1,ragla,lunka,halka,Leg,leg,0,58,58,82,0,0,0,0,,,,,,,,,,,7,2.556,,,,,,2018_Jun_12_1246,59.6277064433,verb_norming,001,903,
STAGGER,ragla,lunka,halka,1,ragla,lunka,halka,Arm,arm,0,58,58,82,0,1,1,1,,,,,,,,,,,1,1.183,,,,,,2018_Jun_12_1246,59.6277064433,verb_norming,001,903,
STAGGER,ragla,lunka,halka,1,ragla,lunka,halka,,,0,58,58,82,,,,,,,,,,,,,,,,,1,1,3.33792551103,,,2018_Jun_12_1246,59.6277064433,verb_norming,001,903,
PLUCK,plocka,rensa,picka,2,rensa,plocka,picka,Leg,leg,0,59,59,50,0,0,0,0,,,,,,,,,,,1,2.416,,,,,,2018_Jun_12_1246,59.6277064433,verb_norming,001,903,
PLUCK,plocka,rensa,picka,2,rensa,plocka,picka,Arm,arm,0,59,59,50,0,1,1,1,,,,,,,,,,,7,1.12,,,,,,2018_Jun_12_1246,59.6277064433,verb_norming,001,903,
PLUCK,plocka,rensa,picka,2,rensa,plocka,picka,,,0,59,59,50,,,,,,,,,,,,,,,,,2,1,6.64183068619,,,2018_Jun_12_1246,59.6277064433,verb_norming,001,903,
CLEAN,rengöra,rensa,plocka,1,rengöra,rensa,plocka,Leg,leg,0,60,60,10,0,0,0,0,,,,,,,,,,,1,6.766,,,,,,2018_Jun_12_1246,59.6277064433,verb_norming,001,903,
CLEAN,rengöra,rensa,plocka,1,rengöra,rensa,plocka,Arm,arm,0,60,60,10,0,1,1,1,,,,,,,,,,,7,1.755,,,,,,2018_Jun_12_1246,59.6277064433,verb_norming,001,903,
CLEAN,rengöra,rensa,plocka,1,rengöra,rensa,plocka,,,0,60,60,10,,,,,,,,,,,,,,,,,2,0,10.4657311358,,,2018_Jun_12_1246,59.6277064433,verb_norming,001,903,
WALK,gå,promenera,marschera,3,promenera,marschera,gå,Leg,leg,0,61,61,105,0,0,0,0,,,,,,,,,,,7,3.364,,,,,,2018_Jun_12_1246,59.6277064433,verb_norming,001,903,
WALK,gå,promenera,marschera,3,promenera,marschera,gå,Arm,arm,0,61,61,105,0,1,1,1,,,,,,,,,,,1,1.035,,,,,,2018_Jun_12_1246,59.6277064433,verb_norming,001,903,
WALK,gå,promenera,marschera,3,promenera,marschera,gå,,,0,61,61,105,,,,,,,,,,,,,,,,,3,1,2.51603739068,,,2018_Jun_12_1246,59.6277064433,verb_norming,001,903,
POKE,peta,trycka,knuffa,2,trycka,peta,knuffa,Leg,leg,0,62,62,51,0,0,0,0,,,,,,,,,,,1,3.079,,,,,,2018_Jun_12_1246,59.6277064433,verb_norming,001,903,
POKE,peta,trycka,knuffa,2,trycka,peta,knuffa,Arm,arm,0,62,62,51,0,1,1,1,,,,,,,,,,,7,1.052,,,,,,2018_Jun_12_1246,59.6277064433,verb_norming,001,903,
POKE,peta,trycka,knuffa,2,trycka,peta,knuffa,,,0,62,62,51,,,,,,,,,,,,,,,,,2,1,8.1007626542,,,2018_Jun_12_1246,59.6277064433,verb_norming,001,903,
ROLL,vingla,snubbla,svassa,1,vingla,snubbla,svassa,Leg,leg,0,63,63,59,0,0,0,0,,,,,,,,,,,6,8.798,,,,,,2018_Jun_12_1246,59.6277064433,verb_norming,001,903,
ROLL,vingla,snubbla,svassa,1,vingla,snubbla,svassa,Arm,arm,0,63,63,59,0,1,1,1,,,,,,,,,,,6,0.902,,,,,,2018_Jun_12_1246,59.6277064433,verb_norming,001,903,
ROLL,vingla,snubbla,svassa,1,vingla,snubbla,svassa,,,0,63,63,59,,,,,,,,,,,,,,,,,2,0,15.9330356261,,,2018_Jun_12_1246,59.6277064433,verb_norming,001,903,
RAMBLE,ströva,strutta,spurta,2,strutta,ströva,spurta,Leg,leg,0,64,64,57,0,0,0,0,,,,,,,,,,,7,2.405,,,,,,2018_Jun_12_1246,59.6277064433,verb_norming,001,903,
RAMBLE,ströva,strutta,spurta,2,strutta,ströva,spurta,Arm,arm,0,64,64,57,0,1,1,1,,,,,,,,,,,1,0.916,,,,,,2018_Jun_12_1246,59.6277064433,verb_norming,001,903,
RAMBLE,ströva,strutta,spurta,2,strutta,ströva,spurta,,,0,64,64,57,,,,,,,,,,,,,,,,,2,1,5.65235303834,,,2018_Jun_12_1246,59.6277064433,verb_norming,001,903,
STAB,sticka,hacka,skära,3,skära,hacka,sticka,Leg,leg,0,65,65,81,0,0,0,0,,,,,,,,,,,1,2.24,,,,,,2018_Jun_12_1246,59.6277064433,verb_norming,001,903,
STAB,sticka,hacka,skära,3,skära,hacka,sticka,Arm,arm,0,65,65,81,0,1,1,1,,,,,,,,,,,7,1.103,,,,,,2018_Jun_12_1246,59.6277064433,verb_norming,001,903,
STAB,sticka,hacka,skära,3,skära,hacka,sticka,,,0,65,65,81,,,,,,,,,,,,,,,,,3,1,2.26454167652,,,2018_Jun_12_1246,59.6277064433,verb_norming,001,903,
STRAY,ströva,vandra,promenera,3,vandra,promenera,ströva,Leg,leg,0,66,66,87,0,0,0,0,,,,,,,,,,,7,4.051,,,,,,2018_Jun_12_1246,59.6277064433,verb_norming,001,903,
STRAY,ströva,vandra,promenera,3,vandra,promenera,ströva,Arm,arm,0,66,66,87,0,1,1,1,,,,,,,,,,,5,3.467,,,,,,2018_Jun_12_1246,59.6277064433,verb_norming,001,903,
STRAY,ströva,vandra,promenera,3,vandra,promenera,ströva,,,0,66,66,87,,,,,,,,,,,,,,,,,3,1,13.752748234,,,2018_Jun_12_1246,59.6277064433,verb_norming,001,903,
SCUFF,hasa sig fram,dra sig fram,kasta sig fram,2,kasta sig fram,hasa sig fram,dra sig fram,Leg,leg,0,67,67,67,0,0,0,0,,,,,,,,,,,1,4.018,,,,,,2018_Jun_12_1246,59.6277064433,verb_norming,001,903,
SCUFF,hasa sig fram,dra sig fram,kasta sig fram,2,kasta sig fram,hasa sig fram,dra sig fram,Arm,arm,0,67,67,67,0,1,1,1,,,,,,,,,,,7,1.117,,,,,,2018_Jun_12_1246,59.6277064433,verb_norming,001,903,
SCUFF,hasa sig fram,dra sig fram,kasta sig fram,2,kasta sig fram,hasa sig fram,dra sig fram,,,0,67,67,67,,,,,,,,,,,,,,,,,2,1,6.70893098022,,,2018_Jun_12_1246,59.6277064433,verb_norming,001,903,
CUT,skära,sticka,spetsa,1,skära,spetsa,sticka,Leg,leg,0,68,68,16,0,0,0,0,,,,,,,,,,,1,2.962,,,,,,2018_Jun_12_1246,59.6277064433,verb_norming,001,903,
CUT,skära,sticka,spetsa,1,skära,spetsa,sticka,Arm,arm,0,68,68,16,0,1,1,1,,,,,,,,,,,7,1.003,,,,,,2018_Jun_12_1246,59.6277064433,verb_norming,001,903,
CUT,skära,sticka,spetsa,1,skära,spetsa,sticka,,,0,68,68,16,,,,,,,,,,,,,,,,,1,1,2.76721859198,,,2018_Jun_12_1246,59.6277064433,verb_norming,001,903,
RUSH,rusa,springa,löpa,2,springa,rusa,löpa,Leg,leg,0,69,69,62,0,0,0,0,,,,,,,,,,,7,3.196,,,,,,2018_Jun_12_1246,59.6277064433,verb_norming,001,903,
RUSH,rusa,springa,löpa,2,springa,rusa,löpa,Arm,arm,0,69,69,62,0,1,1,1,,,,,,,,,,,1,1.689,,,,,,2018_Jun_12_1246,59.6277064433,verb_norming,001,903,
RUSH,rusa,springa,löpa,2,springa,rusa,löpa,,,0,69,69,62,,,,,,,,,,,,,,,,,2,1,1.59345813225,,,2018_Jun_12_1246,59.6277064433,verb_norming,001,903,
HOP,skutta,kliva,studsa,1,skutta,kliva,studsa,Leg,leg,0,70,70,32,0,0,0,0,,,,,,,,,,,7,2.626,,,,,,2018_Jun_12_1246,59.6277064433,verb_norming,001,903,
HOP,skutta,kliva,studsa,1,skutta,kliva,studsa,Arm,arm,0,70,70,32,0,1,1,1,,,,,,,,,,,1,1.287,,,,,,2018_Jun_12_1246,59.6277064433,verb_norming,001,903,
HOP,skutta,kliva,studsa,1,skutta,kliva,studsa,,,0,70,70,32,,,,,,,,,,,,,,,,,1,1,4.12605209692,,,2018_Jun_12_1246,59.6277064433,verb_norming,001,903,
FOLD,vika ihop,knyta ihop,bunta ihop,3,bunta ihop,knyta ihop,vika ihop,Leg,leg,0,71,71,24,0,0,0,0,,,,,,,,,,,1,2.188,,,,,,2018_Jun_12_1246,59.6277064433,verb_norming,001,903,
FOLD,vika ihop,knyta ihop,bunta ihop,3,bunta ihop,knyta ihop,vika ihop,Arm,arm,0,71,71,24,0,1,1,1,,,,,,,,,,,7,1.705,,,,,,2018_Jun_12_1246,59.6277064433,verb_norming,001,903,
FOLD,vika ihop,knyta ihop,bunta ihop,3,bunta ihop,knyta ihop,vika ihop,,,0,71,71,24,,,,,,,,,,,,,,,,,3,1,3.67388492147,,,2018_Jun_12_1246,59.6277064433,verb_norming,001,903,
KNEEL,knäböja,krypa,kräla,3,krypa,kräla,knäböja,Leg,leg,0,72,72,37,0,0,0,0,,,,,,,,,,,7,3.06,,,,,,2018_Jun_12_1246,59.6277064433,verb_norming,001,903,
KNEEL,knäböja,krypa,kräla,3,krypa,kräla,knäböja,Arm,arm,0,72,72,37,0,1,1,1,,,,,,,,,,,1,1.671,,,,,,2018_Jun_12_1246,59.6277064433,verb_norming,001,903,
KNEEL,knäböja,krypa,kräla,3,krypa,kräla,knäböja,,,0,72,72,37,,,,,,,,,,,,,,,,,3,1,2.36505540721,,,2018_Jun_12_1246,59.6277064433,verb_norming,001,903,
GRAB,gripa tag i,fästa ihop,smälla till,1,gripa tag i,fästa ihop,smälla till,Leg,leg,0,73,73,26,0,0,0,0,,,,,,,,,,,1,2.86,,,,,,2018_Jun_12_1246,59.6277064433,verb_norming,001,903,
GRAB,gripa tag i,fästa ihop,smälla till,1,gripa tag i,fästa ihop,smälla till,Arm,arm,0,73,73,26,0,1,1,1,,,,,,,,,,,7,1.94,,,,,,2018_Jun_12_1246,59.6277064433,verb_norming,001,903,
GRAB,gripa tag i,fästa ihop,smälla till,1,gripa tag i,fästa ihop,smälla till,,,0,73,73,26,,,,,,,,,,,,,,,,,1,1,3.32110025769,,,2018_Jun_12_1246,59.6277064433,verb_norming,001,903,
TREAD,trampa,stampa,klampa,3,klampa,stampa,trampa,Leg,leg,0,74,74,98,0,0,0,0,,,,,,,,,,,7,3.631,,,,,,2018_Jun_12_1246,59.6277064433,verb_norming,001,903,
TREAD,trampa,stampa,klampa,3,klampa,stampa,trampa,Arm,arm,0,74,74,98,0,1,1,1,,,,,,,,,,,1,0.967,,,,,,2018_Jun_12_1246,59.6277064433,verb_norming,001,903,
TREAD,trampa,stampa,klampa,3,klampa,stampa,trampa,,,0,74,74,98,,,,,,,,,,,,,,,,,3,1,7.26237248596,,,2018_Jun_12_1246,59.6277064433,verb_norming,001,903,
STRUT,svassa,lunka,strosa,2,strosa,svassa,lunka,Leg,leg,0,75,75,90,0,0,0,0,,,,,,,,,,,7,3.313,,,,,,2018_Jun_12_1246,59.6277064433,verb_norming,001,903,
STRUT,svassa,lunka,strosa,2,strosa,svassa,lunka,Arm,arm,0,75,75,90,0,1,1,1,,,,,,,,,,,1,1.236,,,,,,2018_Jun_12_1246,59.6277064433,verb_norming,001,903,
STRUT,svassa,lunka,strosa,2,strosa,svassa,lunka,,,0,75,75,90,,,,,,,,,,,,,,,,,2,1,6.65841768416,,,2018_Jun_12_1246,59.6277064433,verb_norming,001,903,
BOUNCE,studsa,dunka,kasta,1,studsa,kasta,dunka,Leg,leg,0,76,76,2,0,0,0,0,,,,,,,,,,,7,2.372,,,,,,2018_Jun_12_1246,59.6277064433,verb_norming,001,903,
BOUNCE,studsa,dunka,kasta,1,studsa,kasta,dunka,Arm,arm,0,76,76,2,0,1,1,1,,,,,,,,,,,1,1.067,,,,,,2018_Jun_12_1246,59.6277064433,verb_norming,001,903,
BOUNCE,studsa,dunka,kasta,1,studsa,kasta,dunka,,,0,76,76,2,,,,,,,,,,,,,,,,,1,1,1.79500201113,,,2018_Jun_12_1246,59.6277064433,verb_norming,001,903,
BASH,slå,knuffa,trycka,2,trycka,slå,knuffa,Leg,leg,0,77,77,0,0,0,0,0,,,,,,,,,,,3,4.957,,,,,,2018_Jun_12_1246,59.6277064433,verb_norming,001,903,
BASH,slå,knuffa,trycka,2,trycka,slå,knuffa,Arm,arm,0,77,77,0,0,1,1,1,,,,,,,,,,,7,1.79,,,,,,2018_Jun_12_1246,59.6277064433,verb_norming,001,903,
BASH,slå,knuffa,trycka,2,trycka,slå,knuffa,,,0,77,77,0,,,,,,,,,,,,,,,,,2,1,3.75706448857,,,2018_Jun_12_1246,59.6277064433,verb_norming,001,903,
WANDER,vandra,marschera,spatsera,2,marschera,vandra,spatsera,Leg,leg,0,78,78,106,0,0,0,0,,,,,,,,,,,7,3.915,,,,,,2018_Jun_12_1246,59.6277064433,verb_norming,001,903,
WANDER,vandra,marschera,spatsera,2,marschera,vandra,spatsera,Arm,arm,0,78,78,106,0,1,1,1,,,,,,,,,,,1,1.066,,,,,,2018_Jun_12_1246,59.6277064433,verb_norming,001,903,
WANDER,vandra,marschera,spatsera,2,marschera,vandra,spatsera,,,0,78,78,106,,,,,,,,,,,,,,,,,2,1,2.11335107143,,,2018_Jun_12_1246,59.6277064433,verb_norming,001,903,
BRUSH,borsta,skrubba,putsa,1,borsta,putsa,skrubba,Leg,leg,0,79,79,4,0,0,0,0,,,,,,,,,,,3,4.169,,,,,,2018_Jun_12_1246,59.6277064433,verb_norming,001,903,
BRUSH,borsta,skrubba,putsa,1,borsta,putsa,skrubba,Arm,arm,0,79,79,4,0,1,1,1,,,,,,,,,,,7,1.421,,,,,,2018_Jun_12_1246,59.6277064433,verb_norming,001,903,
BRUSH,borsta,skrubba,putsa,1,borsta,putsa,skrubba,,,0,79,79,4,,,,,,,,,,,,,,,,,1,1,1.62729276328,,,2018_Jun_12_1246,59.6277064433,verb_norming,001,903,
FLIT,rusa,hasa,svassa,3,hasa,svassa,rusa,Leg,leg,0,80,80,23,0,0,0,0,,,,,,,,,,,1,7.557,,,,,,2018_Jun_12_1246,59.6277064433,verb_norming,001,903,
FLIT,rusa,hasa,svassa,3,hasa,svassa,rusa,Arm,arm,0,80,80,23,0,1,1,1,,,,,,,,,,,7,1.74,,,,,,2018_Jun_12_1246,59.6277064433,verb_norming,001,903,
FLIT,rusa,hasa,svassa,3,hasa,svassa,rusa,,,0,80,80,23,,,,,,,,,,,,,,,,,1,0,12.4949053656,,,2018_Jun_12_1246,59.6277064433,verb_norming,001,903,
SCRATCH,repa,riva,klösa,1,repa,klösa,riva,Leg,leg,0,81,81,65,0,0,0,0,,,,,,,,,,,1,3.362,,,,,,2018_Jun_12_1246,59.6277064433,verb_norming,001,903,
SCRATCH,repa,riva,klösa,1,repa,klösa,riva,Arm,arm,0,81,81,65,0,1,1,1,,,,,,,,,,,7,2.476,,,,,,2018_Jun_12_1246,59.6277064433,verb_norming,001,903,
SCRATCH,repa,riva,klösa,1,repa,klösa,riva,,,0,81,81,65,,,,,,,,,,,,,,,,,2,0,7.83273999979,,,2018_Jun_12_1246,59.6277064433,verb_norming,001,903,
WIPE,torka,putsa,gnugga,1,torka,gnugga,putsa,Leg,leg,0,82,82,109,0,0,0,0,,,,,,,,,,,1,3.431,,,,,,2018_Jun_12_1246,59.6277064433,verb_norming,001,903,
WIPE,torka,putsa,gnugga,1,torka,gnugga,putsa,Arm,arm,0,82,82,109,0,1,1,1,,,,,,,,,,,7,0.935,,,,,,2018_Jun_12_1246,59.6277064433,verb_norming,001,903,
WIPE,torka,putsa,gnugga,1,torka,gnugga,putsa,,,0,82,82,109,,,,,,,,,,,,,,,,,1,1,4.26026295805,,,2018_Jun_12_1246,59.6277064433,verb_norming,001,903,
SLAP,smälla till,knäppa fast,klämma åt,3,klämma åt,knäppa fast,smälla till,Leg,leg,0,83,83,73,0,0,0,0,,,,,,,,,,,1,2.424,,,,,,2018_Jun_12_1246,59.6277064433,verb_norming,001,903,
SLAP,smälla till,knäppa fast,klämma åt,3,klämma åt,knäppa fast,smälla till,Arm,arm,0,83,83,73,0,1,1,1,,,,,,,,,,,7,1.119,,,,,,2018_Jun_12_1246,59.6277064433,verb_norming,001,903,
SLAP,smälla till,knäppa fast,klämma åt,3,klämma åt,knäppa fast,smälla till,,,0,83,83,73,,,,,,,,,,,,,,,,,3,1,2.80117294336,,,2018_Jun_12_1246,59.6277064433,verb_norming,001,903,
PUNCH,slå,knuffa,kasta,3,knuffa,kasta,slå,Leg,leg,0,84,84,55,0,0,0,0,,,,,,,,,,,1,2.02,,,,,,2018_Jun_12_1246,59.6277064433,verb_norming,001,903,
PUNCH,slå,knuffa,kasta,3,knuffa,kasta,slå,Arm,arm,0,84,84,55,0,1,1,1,,,,,,,,,,,7,1.2,,,,,,2018_Jun_12_1246,59.6277064433,verb_norming,001,903,
PUNCH,slå,knuffa,kasta,3,knuffa,kasta,slå,,,0,84,84,55,,,,,,,,,,,,,,,,,3,1,1.77948301354,,,2018_Jun_12_1246,59.6277064433,verb_norming,001,903,
SKATE,åka skridskor,åka skidor,åka kälke,3,åka kälke,åka skidor,åka skridskor,Leg,leg,0,85,85,70,0,0,0,0,,,,,,,,,,,7,2.558,,,,,,2018_Jun_12_1246,59.6277064433,verb_norming,001,903,
SKATE,åka skridskor,åka skidor,åka kälke,3,åka kälke,åka skidor,åka skridskor,Arm,arm,0,85,85,70,0,1,1,1,,,,,,,,,,,1,1.136,,,,,,2018_Jun_12_1246,59.6277064433,verb_norming,001,903,
SKATE,åka skridskor,åka skidor,åka kälke,3,åka kälke,åka skidor,åka skridskor,,,0,85,85,70,,,,,,,,,,,,,,,,,3,1,4.4447848155,,,2018_Jun_12_1246,59.6277064433,verb_norming,001,903,
PAT,klappa,slå,borsta,2,borsta,klappa,slå,Leg,leg,0,86,86,46,0,0,0,0,,,,,,,,,,,1,3.398,,,,,,2018_Jun_12_1246,59.6277064433,verb_norming,001,903,
PAT,klappa,slå,borsta,2,borsta,klappa,slå,Arm,arm,0,86,86,46,0,1,1,1,,,,,,,,,,,7,4.072,,,,,,2018_Jun_12_1246,59.6277064433,verb_norming,001,903,
PAT,klappa,slå,borsta,2,borsta,klappa,slå,,,0,86,86,46,,,,,,,,,,,,,,,,,2,1,1.94570978364,,,2018_Jun_12_1246,59.6277064433,verb_norming,001,903,
SLIDE,glida,ramla,hasa,3,ramla,hasa,glida,Leg,leg,0,87,87,74,0,0,0,0,,,,,,,,,,,7,5.173,,,,,,2018_Jun_12_1246,59.6277064433,verb_norming,001,903,
SLIDE,glida,ramla,hasa,3,ramla,hasa,glida,Arm,arm,0,87,87,74,0,1,1,1,,,,,,,,,,,1,1.05,,,,,,2018_Jun_12_1246,59.6277064433,verb_norming,001,903,
SLIDE,glida,ramla,hasa,3,ramla,hasa,glida,,,0,87,87,74,,,,,,,,,,,,,,,,,3,1,3.28743631707,,,2018_Jun_12_1246,59.6277064433,verb_norming,001,903,
INCH,röra sig långsamt framåt,dra sig snabbt tillbaka,hasa sig bakåt,3,hasa sig bakåt,dra sig snabbt tillbaka,röra sig långsamt framåt,Leg,leg,0,88,88,33,0,0,0,0,,,,,,,,,,,7,3.983,,,,,,2018_Jun_12_1246,59.6277064433,verb_norming,001,903,
INCH,röra sig långsamt framåt,dra sig snabbt tillbaka,hasa sig bakåt,3,hasa sig bakåt,dra sig snabbt tillbaka,röra sig långsamt framåt,Arm,arm,0,88,88,33,0,1,1,1,,,,,,,,,,,1,2.309,,,,,,2018_Jun_12_1246,59.6277064433,verb_norming,001,903,
INCH,röra sig långsamt framåt,dra sig snabbt tillbaka,hasa sig bakåt,3,hasa sig bakåt,dra sig snabbt tillbaka,röra sig långsamt framåt,,,0,88,88,33,,,,,,,,,,,,,,,,,3,1,3.50548066339,,,2018_Jun_12_1246,59.6277064433,verb_norming,001,903,
TUG,rycka,pressa,slå,3,pressa,slå,rycka,Leg,leg,0,89,89,102,0,0,0,0,,,,,,,,,,,1,3.263,,,,,,2018_Jun_12_1246,59.6277064433,verb_norming,001,903,
TUG,rycka,pressa,slå,3,pressa,slå,rycka,Arm,arm,0,89,89,102,0,1,1,1,,,,,,,,,,,7,0.984,,,,,,2018_Jun_12_1246,59.6277064433,verb_norming,001,903,
TUG,rycka,pressa,slå,3,pressa,slå,rycka,,,0,89,89,102,,,,,,,,,,,,,,,,,3,1,3.53906716114,,,2018_Jun_12_1246,59.6277064433,verb_norming,001,903,
TIPTOE,gå på tå,snava,sparka,1,gå på tå,snava,sparka,Leg,leg,0,90,90,95,0,0,0,0,,,,,,,,,,,7,2.508,,,,,,2018_Jun_12_1246,59.6277064433,verb_norming,001,903,
TIPTOE,gå på tå,snava,sparka,1,gå på tå,snava,sparka,Arm,arm,0,90,90,95,0,1,1,1,,,,,,,,,,,1,0.967,,,,,,2018_Jun_12_1246,59.6277064433,verb_norming,001,903,
TIPTOE,gå på tå,snava,sparka,1,gå på tå,snava,sparka,,,0,90,90,95,,,,,,,,,,,,,,,,,1,1,1.4930451563,,,2018_Jun_12_1246,59.6277064433,verb_norming,001,903,
STEP,gå,klampa,traska,1,gå,traska,klampa,Leg,leg,0,91,91,84,0,0,0,0,,,,,,,,,,,7,2.693,,,,,,2018_Jun_12_1246,59.6277064433,verb_norming,001,903,
STEP,gå,klampa,traska,1,gå,traska,klampa,Arm,arm,0,91,91,84,0,1,1,1,,,,,,,,,,,1,1.086,,,,,,2018_Jun_12_1246,59.6277064433,verb_norming,001,903,
STEP,gå,klampa,traska,1,gå,traska,klampa,,,0,91,91,84,,,,,,,,,,,,,,,,,1,1,4.66261066232,,,2018_Jun_12_1246,59.6277064433,verb_norming,001,903,
SCOOP,skyffla,dika,skrapa,2,dika,skyffla,skrapa,Leg,leg,0,92,92,63,0,0,0,0,,,,,,,,,,,1,3.33,,,,,,2018_Jun_12_1246,59.6277064433,verb_norming,001,903,
SCOOP,skyffla,dika,skrapa,2,dika,skyffla,skrapa,Arm,arm,0,92,92,63,0,1,1,1,,,,,,,,,,,7,1.857,,,,,,2018_Jun_12_1246,59.6277064433,verb_norming,001,903,
SCOOP,skyffla,dika,skrapa,2,dika,skyffla,skrapa,,,0,92,92,63,,,,,,,,,,,,,,,,,2,1,7.6311842674,,,2018_Jun_12_1246,59.6277064433,verb_norming,001,903,
SNATCH,rycka till sig,knuffa ifrån sig,plocka åt sig,2,plocka åt sig,rycka till sig,knuffa ifrån sig,Leg,leg,0,93,93,77,0,0,0,0,,,,,,,,,,,1,8.711,,,,,,2018_Jun_12_1246,59.6277064433,verb_norming,001,903,
SNATCH,rycka till sig,knuffa ifrån sig,plocka åt sig,2,plocka åt sig,rycka till sig,knuffa ifrån sig,Arm,arm,0,93,93,77,0,1,1,1,,,,,,,,,,,7,1.134,,,,,,2018_Jun_12_1246,59.6277064433,verb_norming,001,903,
SNATCH,rycka till sig,knuffa ifrån sig,plocka åt sig,2,plocka åt sig,rycka till sig,knuffa ifrån sig,,,0,93,93,77,,,,,,,,,,,,,,,,,1,0,8.58735397476,,,2018_Jun_12_1246,59.6277064433,verb_norming,001,903,
LIFT,lyfta,pressa,öka,2,pressa,lyfta,öka,Leg,leg,0,94,94,40,0,0,0,0,,,,,,,,,,,3,3.716,,,,,,2018_Jun_12_1246,59.6277064433,verb_norming,001,903,
LIFT,lyfta,pressa,öka,2,pressa,lyfta,öka,Arm,arm,0,94,94,40,0,1,1,1,,,,,,,,,,,7,4.91,,,,,,2018_Jun_12_1246,59.6277064433,verb_norming,001,903,
LIFT,lyfta,pressa,öka,2,pressa,lyfta,öka,,,0,94,94,40,,,,,,,,,,,,,,,,,2,1,1.92880511186,,,2018_Jun_12_1246,59.6277064433,verb_norming,001,903,
PULL,dra,slänga,släpa,3,slänga,släpa,dra,Leg,leg,0,95,95,54,0,0,0,0,,,,,,,,,,,1,3.247,,,,,,2018_Jun_12_1246,59.6277064433,verb_norming,001,903,
PULL,dra,slänga,släpa,3,slänga,släpa,dra,Arm,arm,0,95,95,54,0,1,1,1,,,,,,,,,,,7,0.968,,,,,,2018_Jun_12_1246,59.6277064433,verb_norming,001,903,
PULL,dra,slänga,släpa,3,slänga,släpa,dra,,,0,95,95,54,,,,,,,,,,,,,,,,,3,1,1.52654038211,,,2018_Jun_12_1246,59.6277064433,verb_norming,001,903,
GRIP,gripa om,hålla om,kasta om,3,hålla om,kasta om,gripa om,Leg,leg,0,96,96,29,0,0,0,0,,,,,,,,,,,1,3.597,,,,,,2018_Jun_12_1246,59.6277064433,verb_norming,001,903,
GRIP,gripa om,hålla om,kasta om,3,hålla om,kasta om,gripa om,Arm,arm,0,96,96,29,0,1,1,1,,,,,,,,,,,7,1.252,,,,,,2018_Jun_12_1246,59.6277064433,verb_norming,001,903,
GRIP,gripa om,hålla om,kasta om,3,hålla om,kasta om,gripa om,,,0,96,96,29,,,,,,,,,,,,,,,,,1,0,3.99202180412,,,2018_Jun_12_1246,59.6277064433,verb_norming,001,903,
LEAP,hoppa,stega,kliva,1,hoppa,stega,kliva,Leg,leg,0,97,97,39,0,0,0,0,,,,,,,,,,,7,2.928,,,,,,2018_Jun_12_1246,59.6277064433,verb_norming,001,903,
LEAP,hoppa,stega,kliva,1,hoppa,stega,kliva,Arm,arm,0,97,97,39,0,1,1,1,,,,,,,,,,,1,2.646,,,,,,2018_Jun_12_1246,59.6277064433,verb_norming,001,903,
LEAP,hoppa,stega,kliva,1,hoppa,stega,kliva,,,0,97,97,39,,,,,,,,,,,,,,,,,1,1,4.02528549155,,,2018_Jun_12_1246,59.6277064433,verb_norming,001,903,
TRAIPSE,traska,stappla,vandra,3,vandra,stappla,traska,Leg,leg,0,98,98,97,0,0,0,0,,,,,,,,,,,5,6.448,,,,,,2018_Jun_12_1246,59.6277064433,verb_norming,001,903,
TRAIPSE,traska,stappla,vandra,3,vandra,stappla,traska,Arm,arm,0,98,98,97,0,1,1,1,,,,,,,,,,,5,1.286,,,,,,2018_Jun_12_1246,59.6277064433,verb_norming,001,903,
TRAIPSE,traska,stappla,vandra,3,vandra,stappla,traska,,,0,98,98,97,,,,,,,,,,,,,,,,,3,1,9.51037813455,,,2018_Jun_12_1246,59.6277064433,verb_norming,001,903,
PINCH,nypa,plocka,pensla,3,plocka,pensla,nypa,Leg,leg,0,99,99,48,0,0,0,0,,,,,,,,,,,1,1.902,,,,,,2018_Jun_12_1246,59.6277064433,verb_norming,001,903,
PINCH,nypa,plocka,pensla,3,plocka,pensla,nypa,Arm,arm,0,99,99,48,0,1,1,1,,,,,,,,,,,7,2.996,,,,,,2018_Jun_12_1246,59.6277064433,verb_norming,001,903,
PINCH,nypa,plocka,pensla,3,plocka,pensla,nypa,,,0,99,99,48,,,,,,,,,,,,,,,,,3,1,2.23102708999,,,2018_Jun_12_1246,59.6277064433,verb_norming,001,903,
DANCE,dansa,snurra,svänga,1,dansa,snurra,svänga,Leg,leg,0,100,100,17,0,0,0,0,,,,,,,,,,,7,2.355,,,,,,2018_Jun_12_1246,59.6277064433,verb_norming,001,903,
DANCE,dansa,snurra,svänga,1,dansa,snurra,svänga,Arm,arm,0,100,100,17,0,1,1,1,,,,,,,,,,,4,2.157,,,,,,2018_Jun_12_1246,59.6277064433,verb_norming,001,903,
DANCE,dansa,snurra,svänga,1,dansa,snurra,svänga,,,0,100,100,17,,,,,,,,,,,,,,,,,1,1,0.838929897611,,,2018_Jun_12_1246,59.6277064433,verb_norming,001,903,
DELVE,gräva,plöja,rensa,2,plöja,gräva,rensa,Leg,leg,0,101,101,18,0,0,0,0,,,,,,,,,,,5,7.554,,,,,,2018_Jun_12_1246,59.6277064433,verb_norming,001,903,
DELVE,gräva,plöja,rensa,2,plöja,gräva,rensa,Arm,arm,0,101,101,18,0,1,1,1,,,,,,,,,,,5,2.76,,,,,,2018_Jun_12_1246,59.6277064433,verb_norming,001,903,
DELVE,gräva,plöja,rensa,2,plöja,gräva,rensa,,,0,101,101,18,,,,,,,,,,,,,,,,,2,1,4.51147339799,,,2018_Jun_12_1246,59.6277064433,verb_norming,001,903,
GLIDE,glida,hasa,snava,2,hasa,glida,snava,Leg,leg,0,102,102,25,0,0,0,0,,,,,,,,,,,7,3.21,,,,,,2018_Jun_12_1246,59.6277064433,verb_norming,001,903,
GLIDE,glida,hasa,snava,2,hasa,glida,snava,Arm,arm,0,102,102,25,0,1,1,1,,,,,,,,,,,1,1.184,,,,,,2018_Jun_12_1246,59.6277064433,verb_norming,001,903,
GLIDE,glida,hasa,snava,2,hasa,glida,snava,,,0,102,102,25,,,,,,,,,,,,,,,,,2,1,1.27502175118,,,2018_Jun_12_1246,59.6277064433,verb_norming,001,903,
JUMP,hoppa,kliva,lyfta,3,kliva,lyfta,hoppa,Leg,leg,0,103,103,35,0,0,0,0,,,,,,,,,,,7,2.138,,,,,,2018_Jun_12_1246,59.6277064433,verb_norming,001,903,
JUMP,hoppa,kliva,lyfta,3,kliva,lyfta,hoppa,Arm,arm,0,103,103,35,0,1,1,1,,,,,,,,,,,1,1.587,,,,,,2018_Jun_12_1246,59.6277064433,verb_norming,001,903,
JUMP,hoppa,kliva,lyfta,3,kliva,lyfta,hoppa,,,0,103,103,35,,,,,,,,,,,,,,,,,3,1,2.02939707566,,,2018_Jun_12_1246,59.6277064433,verb_norming,001,903,
CATCH,fånga,krama,omfamna,3,krama,omfamna,fånga,Leg,leg,0,104,104,6,0,0,0,0,,,,,,,,,,,1,2.844,,,,,,2018_Jun_12_1246,59.6277064433,verb_norming,001,903,
CATCH,fånga,krama,omfamna,3,krama,omfamna,fånga,Arm,arm,0,104,104,6,0,1,1,1,,,,,,,,,,,7,1.085,,,,,,2018_Jun_12_1246,59.6277064433,verb_norming,001,903,
CATCH,fånga,krama,omfamna,3,krama,omfamna,fånga,,,0,104,104,6,,,,,,,,,,,,,,,,,3,1,3.0695184081,,,2018_Jun_12_1246,59.6277064433,verb_norming,001,903,
STRIDE,kliva,tassa,lunka,1,kliva,lunka,tassa,Leg,leg,0,105,105,88,0,0,0,0,,,,,,,,,,,7,2.355,,,,,,2018_Jun_12_1246,59.6277064433,verb_norming,001,903,
STRIDE,kliva,tassa,lunka,1,kliva,lunka,tassa,Arm,arm,0,105,105,88,0,1,1,1,,,,,,,,,,,1,1.453,,,,,,2018_Jun_12_1246,59.6277064433,verb_norming,001,903,
STRIDE,kliva,tassa,lunka,1,kliva,lunka,tassa,,,0,105,105,88,,,,,,,,,,,,,,,,,1,1,8.01675452745,,,2018_Jun_12_1246,59.6277064433,verb_norming,001,903,
LIMP,halta,hasa,halka,3,hasa,halka,halta,Leg,leg,0,106,106,41,0,0,0,0,,,,,,,,,,,7,2.826,,,,,,2018_Jun_12_1246,59.6277064433,verb_norming,001,903,
LIMP,halta,hasa,halka,3,hasa,halka,halta,Arm,arm,0,106,106,41,0,1,1,1,,,,,,,,,,,1,0.965,,,,,,2018_Jun_12_1246,59.6277064433,verb_norming,001,903,
LIMP,halta,hasa,halka,3,hasa,halka,halta,,,0,106,106,41,,,,,,,,,,,,,,,,,3,1,2.63354232372,,,2018_Jun_12_1246,59.6277064433,verb_norming,001,903,
SPRINT,spurta,springa,löpa,2,springa,spurta,löpa,Leg,leg,0,107,107,79,0,0,0,0,,,,,,,,,,,7,2.288,,,,,,2018_Jun_12_1246,59.6277064433,verb_norming,001,903,
SPRINT,spurta,springa,löpa,2,springa,spurta,löpa,Arm,arm,0,107,107,79,0,1,1,1,,,,,,,,,,,1,1.436,,,,,,2018_Jun_12_1246,59.6277064433,verb_norming,001,903,
SPRINT,spurta,springa,löpa,2,springa,spurta,löpa,,,0,107,107,79,,,,,,,,,,,,,,,,,2,1,4.78012784396,,,2018_Jun_12_1246,59.6277064433,verb_norming,001,903,
TRIP,snubbla,stampa,stappla,1,snubbla,stampa,stappla,Leg,leg,0,108,108,99,0,0,0,0,,,,,,,,,,,7,3.062,,,,,,2018_Jun_12_1246,59.6277064433,verb_norming,001,903,
TRIP,snubbla,stampa,stappla,1,snubbla,stampa,stappla,Arm,arm,0,108,108,99,0,1,1,1,,,,,,,,,,,1,1.337,,,,,,2018_Jun_12_1246,59.6277064433,verb_norming,001,903,
TRIP,snubbla,stampa,stappla,1,snubbla,stampa,stappla,,,0,108,108,99,,,,,,,,,,,,,,,,,1,1,6.59155920152,,,2018_Jun_12_1246,59.6277064433,verb_norming,001,903,
SEIZE,fånga,klämma,fästa,3,fästa,klämma,fånga,Leg,leg,0,109,109,68,0,0,0,0,,,,,,,,,,,1,3.244,,,,,,2018_Jun_12_1246,59.6277064433,verb_norming,001,903,
SEIZE,fånga,klämma,fästa,3,fästa,klämma,fånga,Arm,arm,0,109,109,68,0,1,1,1,,,,,,,,,,,7,0.966,,,,,,2018_Jun_12_1246,59.6277064433,verb_norming,001,903,
SEIZE,fånga,klämma,fästa,3,fästa,klämma,fånga,,,0,109,109,68,,,,,,,,,,,,,,,,,3,1,2.54955750884,,,2018_Jun_12_1246,59.6277064433,verb_norming,001,903,
FILE,fila,putsa,riva,3,putsa,riva,fila,Leg,leg,0,110,110,21,0,0,0,0,,,,,,,,,,,4,10.894,,,,,,2018_Jun_12_1246,59.6277064433,verb_norming,001,903,
FILE,fila,putsa,riva,3,putsa,riva,fila,Arm,arm,0,110,110,21,0,1,1,1,,,,,,,,,,,7,1.841,,,,,,2018_Jun_12_1246,59.6277064433,verb_norming,001,903,
FILE,fila,putsa,riva,3,putsa,riva,fila,,,0,110,110,21,,,,,,,,,,,,,,,,,3,1,2.16380510002,,,2018_Jun_12_1246,59.6277064433,verb_norming,001,903,
SKIM,skumma,vispa,sleva,2,sleva,skumma,vispa,Leg,leg,0,111,111,71,0,0,0,0,,,,,,,,,,,1,3.363,,,,,,2018_Jun_12_1246,59.6277064433,verb_norming,001,903,
SKIM,skumma,vispa,sleva,2,sleva,skumma,vispa,Arm,arm,0,111,111,71,0,1,1,1,,,,,,,,,,,7,0.665,,,,,,2018_Jun_12_1246,59.6277064433,verb_norming,001,903,
SKIM,skumma,vispa,sleva,2,sleva,skumma,vispa,,,0,111,111,71,,,,,,,,,,,,,,,,,3,0,6.37378392967,,,2018_Jun_12_1246,59.6277064433,verb_norming,001,903,
,,,,,,,,,,,,,,,,,,,,,,,,,,,,,,,,,space,4.31054985226,2018_Jun_12_1246,59.6277064433,verb_norming,001,903,
