word,target,distrOne,distrTwo,corrAns,w1,w2,w3,category,category_lowercase,trials.thisRepN,trials.thisTrialN,trials.thisN,trials.thisIndex,ArmLeg_loop.thisRepN,ArmLeg_loop.thisTrialN,ArmLeg_loop.thisN,ArmLeg_loop.thisIndex,key_resp_3.keys,key_resp_3.rt,key_resp_6.keys,key_resp_6.rt,key_resp_5.keys,key_resp_5.rt,key_resp_4.keys,key_resp_4.rt,key_resp_8.keys,key_resp_8.rt,rating.response,rating.rt,answer.keys,answer.corr,answer.rt,key_resp_7.keys,key_resp_7.rt,date,frameRate,expName,session,participant,
,,,,,,,,,,,,,,,,,,space,70.0371073824,,,,,,,,,,,,,,,,2018_Jun_12_1416,59.6299542478,verb_norming,001,904,
,,,,,,,,,,,,,,,,,,,,space,10.8345725509,,,,,,,,,,,,,,2018_Jun_12_1416,59.6299542478,verb_norming,001,904,
,,,,,,,,,,,,,,,,,,,,,,space,8.40276929375,,,,,,,,,,,,2018_Jun_12_1416,59.6299542478,verb_norming,001,904,
,,,,,,,,,,,,,,,,,,,,,,,,space,3.99185941117,,,,,,,,,,2018_Jun_12_1416,59.6299542478,verb_norming,001,904,
,,,,,,,,,,,,,,,,,,,,,,,,,,space,2.73401614762,,,,,,,,2018_Jun_12_1416,59.6299542478,verb_norming,001,904,
PACE,gå fram och tillbaka,luffa runt,rusa fram,3,rusa fram,luffa runt,gå fram och tillbaka,Arm,arm,0,0,0,45,0,0,0,0,,,,,,,,,,,1,6.831,,,,,,2018_Jun_12_1416,59.6299542478,verb_norming,001,904,
PACE,gå fram och tillbaka,luffa runt,rusa fram,3,rusa fram,luffa runt,gå fram och tillbaka,Leg,leg,0,0,0,45,0,1,1,1,,,,,,,,,,,7,4.642,,,,,,2018_Jun_12_1416,59.6299542478,verb_norming,001,904,
PACE,gå fram och tillbaka,luffa runt,rusa fram,3,rusa fram,luffa runt,gå fram och tillbaka,,,0,0,0,45,,,,,,,,,,,,,,,,,3,1,9.49288987546,,,2018_Jun_12_1416,59.6299542478,verb_norming,001,904,
SNEAK,smyga,hasa,glida,1,smyga,glida,hasa,Arm,arm,0,1,1,78,0,0,0,0,,,,,,,,,,,1,6.382,,,,,,2018_Jun_12_1416,59.6299542478,verb_norming,001,904,
SNEAK,smyga,hasa,glida,1,smyga,glida,hasa,Leg,leg,0,1,1,78,0,1,1,1,,,,,,,,,,,7,1.991,,,,,,2018_Jun_12_1416,59.6299542478,verb_norming,001,904,
SNEAK,smyga,hasa,glida,1,smyga,glida,hasa,,,0,1,1,78,,,,,,,,,,,,,,,,,1,1,2.09668346966,,,2018_Jun_12_1416,59.6299542478,verb_norming,001,904,
SKATE,åka skridskor,åka skidor,åka kälke,3,åka kälke,åka skidor,åka skridskor,Arm,arm,0,2,2,70,0,0,0,0,,,,,,,,,,,1,4.051,,,,,,2018_Jun_12_1416,59.6299542478,verb_norming,001,904,
SKATE,åka skridskor,åka skidor,åka kälke,3,åka kälke,åka skidor,åka skridskor,Leg,leg,0,2,2,70,0,1,1,1,,,,,,,,,,,7,2.092,,,,,,2018_Jun_12_1416,59.6299542478,verb_norming,001,904,
SKATE,åka skridskor,åka skidor,åka kälke,3,åka kälke,åka skidor,åka skridskor,,,0,2,2,70,,,,,,,,,,,,,,,,,3,1,6.02108065991,,,2018_Jun_12_1416,59.6299542478,verb_norming,001,904,
KNEEL,knäböja,krypa,kräla,2,kräla,knäböja,krypa,Arm,arm,0,3,3,37,0,0,0,0,,,,,,,,,,,1,5.024,,,,,,2018_Jun_12_1416,59.6299542478,verb_norming,001,904,
KNEEL,knäböja,krypa,kräla,2,kräla,knäböja,krypa,Leg,leg,0,3,3,37,0,1,1,1,,,,,,,,,,,7,1.941,,,,,,2018_Jun_12_1416,59.6299542478,verb_norming,001,904,
KNEEL,knäböja,krypa,kräla,2,kräla,knäböja,krypa,,,0,3,3,37,,,,,,,,,,,,,,,,,2,1,2.96875654413,,,2018_Jun_12_1416,59.6299542478,verb_norming,001,904,
DELVE,gräva,plöja,rensa,3,rensa,plöja,gräva,Arm,arm,0,4,4,18,0,0,0,0,,,,,,,,,,,4,9.245,,,,,,2018_Jun_12_1416,59.6299542478,verb_norming,001,904,
DELVE,gräva,plöja,rensa,3,rensa,plöja,gräva,Leg,leg,0,4,4,18,0,1,1,1,,,,,,,,,,,4,4.187,,,,,,2018_Jun_12_1416,59.6299542478,verb_norming,001,904,
DELVE,gräva,plöja,rensa,3,rensa,plöja,gräva,,,0,4,4,18,,,,,,,,,,,,,,,,,2,0,11.220230922,,,2018_Jun_12_1416,59.6299542478,verb_norming,001,904,
BRUSH,borsta,skrubba,putsa,3,skrubba,putsa,borsta,Arm,arm,0,5,5,4,0,0,0,0,,,,,,,,,,,6,12.887,,,,,,2018_Jun_12_1416,59.6299542478,verb_norming,001,904,
BRUSH,borsta,skrubba,putsa,3,skrubba,putsa,borsta,Leg,leg,0,5,5,4,0,1,1,1,,,,,,,,,,,1,3.835,,,,,,2018_Jun_12_1416,59.6299542478,verb_norming,001,904,
BRUSH,borsta,skrubba,putsa,3,skrubba,putsa,borsta,,,0,5,5,4,,,,,,,,,,,,,,,,,3,1,5.18310615442,,,2018_Jun_12_1416,59.6299542478,verb_norming,001,904,
CARVE,tälja,hacka,riva,3,hacka,riva,tälja,Arm,arm,0,6,6,5,0,0,0,0,,,,,,,,,,,7,6.146,,,,,,2018_Jun_12_1416,59.6299542478,verb_norming,001,904,
CARVE,tälja,hacka,riva,3,hacka,riva,tälja,Leg,leg,0,6,6,5,0,1,1,1,,,,,,,,,,,1,1.671,,,,,,2018_Jun_12_1416,59.6299542478,verb_norming,001,904,
CARVE,tälja,hacka,riva,3,hacka,riva,tälja,,,0,6,6,5,,,,,,,,,,,,,,,,,3,1,13.9374976787,,,2018_Jun_12_1416,59.6299542478,verb_norming,001,904,
STAGGER,ragla,lunka,halka,2,lunka,ragla,halka,Arm,arm,0,7,7,82,0,0,0,0,,,,,,,,,,,1,8.961,,,,,,2018_Jun_12_1416,59.6299542478,verb_norming,001,904,
STAGGER,ragla,lunka,halka,2,lunka,ragla,halka,Leg,leg,0,7,7,82,0,1,1,1,,,,,,,,,,,7,1.905,,,,,,2018_Jun_12_1416,59.6299542478,verb_norming,001,904,
STAGGER,ragla,lunka,halka,2,lunka,ragla,halka,,,0,7,7,82,,,,,,,,,,,,,,,,,2,1,2.34820921269,,,2018_Jun_12_1416,59.6299542478,verb_norming,001,904,
PINCH,nypa,plocka,pensla,1,nypa,pensla,plocka,Arm,arm,0,8,8,48,0,0,0,0,,,,,,,,,,,5,8.429,,,,,,2018_Jun_12_1416,59.6299542478,verb_norming,001,904,
PINCH,nypa,plocka,pensla,1,nypa,pensla,plocka,Leg,leg,0,8,8,48,0,1,1,1,,,,,,,,,,,1,2.361,,,,,,2018_Jun_12_1416,59.6299542478,verb_norming,001,904,
PINCH,nypa,plocka,pensla,1,nypa,pensla,plocka,,,0,8,8,48,,,,,,,,,,,,,,,,,1,1,2.23070111874,,,2018_Jun_12_1416,59.6299542478,verb_norming,001,904,
WOBBLE,vingla,ramla,glida,3,glida,ramla,vingla,Arm,arm,0,9,9,110,0,0,0,0,,,,,,,,,,,3,3.712,,,,,,2018_Jun_12_1416,59.6299542478,verb_norming,001,904,
WOBBLE,vingla,ramla,glida,3,glida,ramla,vingla,Leg,leg,0,9,9,110,0,1,1,1,,,,,,,,,,,7,2.241,,,,,,2018_Jun_12_1416,59.6299542478,verb_norming,001,904,
WOBBLE,vingla,ramla,glida,3,glida,ramla,vingla,,,0,9,9,110,,,,,,,,,,,,,,,,,2,0,2.2477334132,,,2018_Jun_12_1416,59.6299542478,verb_norming,001,904,
STAMP,stampa,kliva,skutta,3,kliva,skutta,stampa,Arm,arm,0,10,10,83,0,0,0,0,,,,,,,,,,,7,6.915,,,,,,2018_Jun_12_1416,59.6299542478,verb_norming,001,904,
STAMP,stampa,kliva,skutta,3,kliva,skutta,stampa,Leg,leg,0,10,10,83,0,1,1,1,,,,,,,,,,,1,2.608,,,,,,2018_Jun_12_1416,59.6299542478,verb_norming,001,904,
STAMP,stampa,kliva,skutta,3,kliva,skutta,stampa,,,0,10,10,83,,,,,,,,,,,,,,,,,3,1,21.3837250652,,,2018_Jun_12_1416,59.6299542478,verb_norming,001,904,
HIKE,vandra,flanera,lunka,3,flanera,lunka,vandra,Arm,arm,0,11,11,31,0,0,0,0,,,,,,,,,,,3,5.913,,,,,,2018_Jun_12_1416,59.6299542478,verb_norming,001,904,
HIKE,vandra,flanera,lunka,3,flanera,lunka,vandra,Leg,leg,0,11,11,31,0,1,1,1,,,,,,,,,,,6,2.395,,,,,,2018_Jun_12_1416,59.6299542478,verb_norming,001,904,
HIKE,vandra,flanera,lunka,3,flanera,lunka,vandra,,,0,11,11,31,,,,,,,,,,,,,,,,,3,1,3.15334596652,,,2018_Jun_12_1416,59.6299542478,verb_norming,001,904,
KNOCK,knacka,krocka,klicka,3,krocka,klicka,knacka,Arm,arm,0,12,12,38,0,0,0,0,,,,,,,,,,,6,5.625,,,,,,2018_Jun_12_1416,59.6299542478,verb_norming,001,904,
KNOCK,knacka,krocka,klicka,3,krocka,klicka,knacka,Leg,leg,0,12,12,38,0,1,1,1,,,,,,,,,,,1,2.208,,,,,,2018_Jun_12_1416,59.6299542478,verb_norming,001,904,
KNOCK,knacka,krocka,klicka,3,krocka,klicka,knacka,,,0,12,12,38,,,,,,,,,,,,,,,,,3,1,2.26466139687,,,2018_Jun_12_1416,59.6299542478,verb_norming,001,904,
FLIT,rusa,hasa,svassa,1,rusa,svassa,hasa,Arm,arm,0,13,13,23,0,0,0,0,,,,,,,,,,,4,3.599,,,,,,2018_Jun_12_1416,59.6299542478,verb_norming,001,904,
FLIT,rusa,hasa,svassa,1,rusa,svassa,hasa,Leg,leg,0,13,13,23,0,1,1,1,,,,,,,,,,,4,1.472,,,,,,2018_Jun_12_1416,59.6299542478,verb_norming,001,904,
FLIT,rusa,hasa,svassa,1,rusa,svassa,hasa,,,0,13,13,23,,,,,,,,,,,,,,,,,3,0,4.32748929432,,,2018_Jun_12_1416,59.6299542478,verb_norming,001,904,
STEP,gå,klampa,traska,2,traska,gå,klampa,Arm,arm,0,14,14,84,0,0,0,0,,,,,,,,,,,1,7.037,,,,,,2018_Jun_12_1416,59.6299542478,verb_norming,001,904,
STEP,gå,klampa,traska,2,traska,gå,klampa,Leg,leg,0,14,14,84,0,1,1,1,,,,,,,,,,,7,2.947,,,,,,2018_Jun_12_1416,59.6299542478,verb_norming,001,904,
STEP,gå,klampa,traska,2,traska,gå,klampa,,,0,14,14,84,,,,,,,,,,,,,,,,,2,1,10.750784109,,,2018_Jun_12_1416,59.6299542478,verb_norming,001,904,
JOG,jogga,spurta,rusa,2,spurta,jogga,rusa,Arm,arm,0,15,15,34,0,0,0,0,,,,,,,,,,,2,11.496,,,,,,2018_Jun_12_1416,59.6299542478,verb_norming,001,904,
JOG,jogga,spurta,rusa,2,spurta,jogga,rusa,Leg,leg,0,15,15,34,0,1,1,1,,,,,,,,,,,7,1.689,,,,,,2018_Jun_12_1416,59.6299542478,verb_norming,001,904,
JOG,jogga,spurta,rusa,2,spurta,jogga,rusa,,,0,15,15,34,,,,,,,,,,,,,,,,,2,1,3.67324878363,,,2018_Jun_12_1416,59.6299542478,verb_norming,001,904,
KICK,sparka,knäa,tåa,3,tåa,knäa,sparka,Arm,arm,0,16,16,36,0,0,0,0,,,,,,,,,,,1,4.874,,,,,,2018_Jun_12_1416,59.6299542478,verb_norming,001,904,
KICK,sparka,knäa,tåa,3,tåa,knäa,sparka,Leg,leg,0,16,16,36,0,1,1,1,,,,,,,,,,,7,1.723,,,,,,2018_Jun_12_1416,59.6299542478,verb_norming,001,904,
KICK,sparka,knäa,tåa,3,tåa,knäa,sparka,,,0,16,16,36,,,,,,,,,,,,,,,,,3,1,2.31487005799,,,2018_Jun_12_1416,59.6299542478,verb_norming,001,904,
WANDER,vandra,marschera,spatsera,2,marschera,vandra,spatsera,Arm,arm,0,17,17,106,0,0,0,0,,,,,,,,,,,1,4.584,,,,,,2018_Jun_12_1416,59.6299542478,verb_norming,001,904,
WANDER,vandra,marschera,spatsera,2,marschera,vandra,spatsera,Leg,leg,0,17,17,106,0,1,1,1,,,,,,,,,,,7,1.939,,,,,,2018_Jun_12_1416,59.6299542478,verb_norming,001,904,
WANDER,vandra,marschera,spatsera,2,marschera,vandra,spatsera,,,0,17,17,106,,,,,,,,,,,,,,,,,2,1,1.84568994878,,,2018_Jun_12_1416,59.6299542478,verb_norming,001,904,
FLEE,fly,lyfta,flyga,1,fly,flyga,lyfta,Arm,arm,0,18,18,22,0,0,0,0,,,,,,,,,,,1,4.035,,,,,,2018_Jun_12_1416,59.6299542478,verb_norming,001,904,
FLEE,fly,lyfta,flyga,1,fly,flyga,lyfta,Leg,leg,0,18,18,22,0,1,1,1,,,,,,,,,,,7,2.009,,,,,,2018_Jun_12_1416,59.6299542478,verb_norming,001,904,
FLEE,fly,lyfta,flyga,1,fly,flyga,lyfta,,,0,18,18,22,,,,,,,,,,,,,,,,,1,1,2.07999453158,,,2018_Jun_12_1416,59.6299542478,verb_norming,001,904,
LIMP,halta,hasa,halka,3,hasa,halka,halta,Arm,arm,0,19,19,41,0,0,0,0,,,,,,,,,,,1,7.589,,,,,,2018_Jun_12_1416,59.6299542478,verb_norming,001,904,
LIMP,halta,hasa,halka,3,hasa,halka,halta,Leg,leg,0,19,19,41,0,1,1,1,,,,,,,,,,,7,2.007,,,,,,2018_Jun_12_1416,59.6299542478,verb_norming,001,904,
LIMP,halta,hasa,halka,3,hasa,halka,halta,,,0,19,19,41,,,,,,,,,,,,,,,,,3,1,2.14713670801,,,2018_Jun_12_1416,59.6299542478,verb_norming,001,904,
DANCE,dansa,snurra,svänga,2,svänga,dansa,snurra,Arm,arm,0,20,20,17,0,0,0,0,,,,,,,,,,,4,4.637,,,,,,2018_Jun_12_1416,59.6299542478,verb_norming,001,904,
DANCE,dansa,snurra,svänga,2,svänga,dansa,snurra,Leg,leg,0,20,20,17,0,1,1,1,,,,,,,,,,,7,2.19,,,,,,2018_Jun_12_1416,59.6299542478,verb_norming,001,904,
DANCE,dansa,snurra,svänga,2,svänga,dansa,snurra,,,0,20,20,17,,,,,,,,,,,,,,,,,2,1,1.45946260972,,,2018_Jun_12_1416,59.6299542478,verb_norming,001,904,
ROAM,ströva omkring,ta sig fram,luffa runt,2,luffa runt,ströva omkring,ta sig fram,Arm,arm,0,21,21,58,0,0,0,0,,,,,,,,,,,1,4.519,,,,,,2018_Jun_12_1416,59.6299542478,verb_norming,001,904,
ROAM,ströva omkring,ta sig fram,luffa runt,2,luffa runt,ströva omkring,ta sig fram,Leg,leg,0,21,21,58,0,1,1,1,,,,,,,,,,,6,3.549,,,,,,2018_Jun_12_1416,59.6299542478,verb_norming,001,904,
ROAM,ströva omkring,ta sig fram,luffa runt,2,luffa runt,ströva omkring,ta sig fram,,,0,21,21,58,,,,,,,,,,,,,,,,,2,1,4.31053760365,,,2018_Jun_12_1416,59.6299542478,verb_norming,001,904,
CATCH,fånga,krama,omfamna,1,fånga,krama,omfamna,Arm,arm,0,22,22,6,0,0,0,0,,,,,,,,,,,6,8.327,,,,,,2018_Jun_12_1416,59.6299542478,verb_norming,001,904,
CATCH,fånga,krama,omfamna,1,fånga,krama,omfamna,Leg,leg,0,22,22,6,0,1,1,1,,,,,,,,,,,1,2.293,,,,,,2018_Jun_12_1416,59.6299542478,verb_norming,001,904,
CATCH,fånga,krama,omfamna,1,fånga,krama,omfamna,,,0,22,22,6,,,,,,,,,,,,,,,,,1,1,1.92876718067,,,2018_Jun_12_1416,59.6299542478,verb_norming,001,904,
SKIP,hoppa,kliva,strutta,3,kliva,strutta,hoppa,Arm,arm,0,23,23,72,0,0,0,0,,,,,,,,,,,1,3.632,,,,,,2018_Jun_12_1416,59.6299542478,verb_norming,001,904,
SKIP,hoppa,kliva,strutta,3,kliva,strutta,hoppa,Leg,leg,0,23,23,72,0,1,1,1,,,,,,,,,,,7,1.556,,,,,,2018_Jun_12_1416,59.6299542478,verb_norming,001,904,
SKIP,hoppa,kliva,strutta,3,kliva,strutta,hoppa,,,0,23,23,72,,,,,,,,,,,,,,,,,3,1,3.55576321132,,,2018_Jun_12_1416,59.6299542478,verb_norming,001,904,
WALK,gå,promenera,marschera,3,marschera,promenera,gå,Arm,arm,0,24,24,105,0,0,0,0,,,,,,,,,,,1,14.299,,,,,,2018_Jun_12_1416,59.6299542478,verb_norming,001,904,
WALK,gå,promenera,marschera,3,marschera,promenera,gå,Leg,leg,0,24,24,105,0,1,1,1,,,,,,,,,,,7,1.673,,,,,,2018_Jun_12_1416,59.6299542478,verb_norming,001,904,
WALK,gå,promenera,marschera,3,marschera,promenera,gå,,,0,24,24,105,,,,,,,,,,,,,,,,,3,1,2.11349489391,,,2018_Jun_12_1416,59.6299542478,verb_norming,001,904,
THROW,kasta,greppa,träffa,2,träffa,kasta,greppa,Arm,arm,0,25,25,94,0,0,0,0,,,,,,,,,,,7,4.117,,,,,,2018_Jun_12_1416,59.6299542478,verb_norming,001,904,
THROW,kasta,greppa,träffa,2,träffa,kasta,greppa,Leg,leg,0,25,25,94,0,1,1,1,,,,,,,,,,,1,1.721,,,,,,2018_Jun_12_1416,59.6299542478,verb_norming,001,904,
THROW,kasta,greppa,träffa,2,träffa,kasta,greppa,,,0,25,25,94,,,,,,,,,,,,,,,,,2,1,1.89521703364,,,2018_Jun_12_1416,59.6299542478,verb_norming,001,904,
DUNK,dunka,dumpa,dunsa,2,dunsa,dunka,dumpa,Arm,arm,0,26,26,20,0,0,0,0,,,,,,,,,,,6,5.744,,,,,,2018_Jun_12_1416,59.6299542478,verb_norming,001,904,
DUNK,dunka,dumpa,dunsa,2,dunsa,dunka,dumpa,Leg,leg,0,26,26,20,0,1,1,1,,,,,,,,,,,3,3.028,,,,,,2018_Jun_12_1416,59.6299542478,verb_norming,001,904,
DUNK,dunka,dumpa,dunsa,2,dunsa,dunka,dumpa,,,0,26,26,20,,,,,,,,,,,,,,,,,2,1,1.97948396181,,,2018_Jun_12_1416,59.6299542478,verb_norming,001,904,
CLAP,klappa,knäppa,klämma,2,knäppa,klappa,klämma,Arm,arm,0,27,27,8,0,0,0,0,,,,,,,,,,,7,2.542,,,,,,2018_Jun_12_1416,59.6299542478,verb_norming,001,904,
CLAP,klappa,knäppa,klämma,2,knäppa,klappa,klämma,Leg,leg,0,27,27,8,0,1,1,1,,,,,,,,,,,1,2.378,,,,,,2018_Jun_12_1416,59.6299542478,verb_norming,001,904,
CLAP,klappa,knäppa,klämma,2,knäppa,klappa,klämma,,,0,27,27,8,,,,,,,,,,,,,,,,,2,1,1.74463293265,,,2018_Jun_12_1416,59.6299542478,verb_norming,001,904,
BOUNCE,studsa,dunka,kasta,2,dunka,studsa,kasta,Arm,arm,0,28,28,2,0,0,0,0,,,,,,,,,,,1,3.161,,,,,,2018_Jun_12_1416,59.6299542478,verb_norming,001,904,
BOUNCE,studsa,dunka,kasta,2,dunka,studsa,kasta,Leg,leg,0,28,28,2,0,1,1,1,,,,,,,,,,,7,1.973,,,,,,2018_Jun_12_1416,59.6299542478,verb_norming,001,904,
BOUNCE,studsa,dunka,kasta,2,dunka,studsa,kasta,,,0,28,28,2,,,,,,,,,,,,,,,,,2,1,2.18068132339,,,2018_Jun_12_1416,59.6299542478,verb_norming,001,904,
SWITCH,slå på/av,knäppa,nypa,3,knäppa,nypa,slå på/av,Arm,arm,0,29,29,93,0,0,0,0,,,,,,,,,,,6,5.812,,,,,,2018_Jun_12_1416,59.6299542478,verb_norming,001,904,
SWITCH,slå på/av,knäppa,nypa,3,knäppa,nypa,slå på/av,Leg,leg,0,29,29,93,0,1,1,1,,,,,,,,,,,1,2.56,,,,,,2018_Jun_12_1416,59.6299542478,verb_norming,001,904,
SWITCH,slå på/av,knäppa,nypa,3,knäppa,nypa,slå på/av,,,0,29,29,93,,,,,,,,,,,,,,,,,3,1,2.31465590475,,,2018_Jun_12_1416,59.6299542478,verb_norming,001,904,
INCH,röra sig långsamt framåt,dra sig snabbt tillbaka,hasa sig bakåt,1,röra sig långsamt framåt,dra sig snabbt tillbaka,hasa sig bakåt,Arm,arm,0,30,30,33,0,0,0,0,,,,,,,,,,,4,7.909,,,,,,2018_Jun_12_1416,59.6299542478,verb_norming,001,904,
INCH,röra sig långsamt framåt,dra sig snabbt tillbaka,hasa sig bakåt,1,röra sig långsamt framåt,dra sig snabbt tillbaka,hasa sig bakåt,Leg,leg,0,30,30,33,0,1,1,1,,,,,,,,,,,4,1.472,,,,,,2018_Jun_12_1416,59.6299542478,verb_norming,001,904,
INCH,röra sig långsamt framåt,dra sig snabbt tillbaka,hasa sig bakåt,1,röra sig långsamt framåt,dra sig snabbt tillbaka,hasa sig bakåt,,,0,30,30,33,,,,,,,,,,,,,,,,,3,0,3.57258569883,,,2018_Jun_12_1416,59.6299542478,verb_norming,001,904,
SCRUB,skrubba,sopa,skrapa,2,skrapa,skrubba,sopa,Arm,arm,0,31,31,66,0,0,0,0,,,,,,,,,,,6,6.38,,,,,,2018_Jun_12_1416,59.6299542478,verb_norming,001,904,
SCRUB,skrubba,sopa,skrapa,2,skrapa,skrubba,sopa,Leg,leg,0,31,31,66,0,1,1,1,,,,,,,,,,,1,1.94,,,,,,2018_Jun_12_1416,59.6299542478,verb_norming,001,904,
SCRUB,skrubba,sopa,skrapa,2,skrapa,skrubba,sopa,,,0,31,31,66,,,,,,,,,,,,,,,,,2,1,1.79506997121,,,2018_Jun_12_1416,59.6299542478,verb_norming,001,904,
SCRATCH,repa,riva,klösa,3,riva,klösa,repa,Arm,arm,0,32,32,65,0,0,0,0,,,,,,,,,,,7,2.491,,,,,,2018_Jun_12_1416,59.6299542478,verb_norming,001,904,
SCRATCH,repa,riva,klösa,3,riva,klösa,repa,Leg,leg,0,32,32,65,0,1,1,1,,,,,,,,,,,1,1.654,,,,,,2018_Jun_12_1416,59.6299542478,verb_norming,001,904,
SCRATCH,repa,riva,klösa,3,riva,klösa,repa,,,0,32,32,65,,,,,,,,,,,,,,,,,3,1,2.96882450419,,,2018_Jun_12_1416,59.6299542478,verb_norming,001,904,
PAT,klappa,slå,borsta,2,borsta,klappa,slå,Arm,arm,0,33,33,46,0,0,0,0,,,,,,,,,,,7,2.172,,,,,,2018_Jun_12_1416,59.6299542478,verb_norming,001,904,
PAT,klappa,slå,borsta,2,borsta,klappa,slå,Leg,leg,0,33,33,46,0,1,1,1,,,,,,,,,,,1,1.657,,,,,,2018_Jun_12_1416,59.6299542478,verb_norming,001,904,
PAT,klappa,slå,borsta,2,borsta,klappa,slå,,,0,33,33,46,,,,,,,,,,,,,,,,,2,1,2.1972003613,,,2018_Jun_12_1416,59.6299542478,verb_norming,001,904,
STAB,sticka,hacka,skära,2,hacka,sticka,skära,Arm,arm,0,34,34,81,0,0,0,0,,,,,,,,,,,7,2.692,,,,,,2018_Jun_12_1416,59.6299542478,verb_norming,001,904,
STAB,sticka,hacka,skära,2,hacka,sticka,skära,Leg,leg,0,34,34,81,0,1,1,1,,,,,,,,,,,1,1.604,,,,,,2018_Jun_12_1416,59.6299542478,verb_norming,001,904,
STAB,sticka,hacka,skära,2,hacka,sticka,skära,,,0,34,34,81,,,,,,,,,,,,,,,,,2,1,2.29812303776,,,2018_Jun_12_1416,59.6299542478,verb_norming,001,904,
TUG,rycka,pressa,slå,3,pressa,slå,rycka,Arm,arm,0,35,35,102,0,0,0,0,,,,,,,,,,,7,3.598,,,,,,2018_Jun_12_1416,59.6299542478,verb_norming,001,904,
TUG,rycka,pressa,slå,3,pressa,slå,rycka,Leg,leg,0,35,35,102,0,1,1,1,,,,,,,,,,,1,1.771,,,,,,2018_Jun_12_1416,59.6299542478,verb_norming,001,904,
TUG,rycka,pressa,slå,3,pressa,slå,rycka,,,0,35,35,102,,,,,,,,,,,,,,,,,3,1,3.89254248887,,,2018_Jun_12_1416,59.6299542478,verb_norming,001,904,
RUSH,rusa,springa,löpa,3,löpa,springa,rusa,Arm,arm,0,36,36,62,0,0,0,0,,,,,,,,,,,1,3.079,,,,,,2018_Jun_12_1416,59.6299542478,verb_norming,001,904,
RUSH,rusa,springa,löpa,3,löpa,springa,rusa,Leg,leg,0,36,36,62,0,1,1,1,,,,,,,,,,,7,1.673,,,,,,2018_Jun_12_1416,59.6299542478,verb_norming,001,904,
RUSH,rusa,springa,löpa,3,löpa,springa,rusa,,,0,36,36,62,,,,,,,,,,,,,,,,,3,1,1.77805348141,,,2018_Jun_12_1416,59.6299542478,verb_norming,001,904,
WASH,tvätta,skura,sopa,3,skura,sopa,tvätta,Arm,arm,0,37,37,107,0,0,0,0,,,,,,,,,,,7,16.646,,,,,,2018_Jun_12_1416,59.6299542478,verb_norming,001,904,
WASH,tvätta,skura,sopa,3,skura,sopa,tvätta,Leg,leg,0,37,37,107,0,1,1,1,,,,,,,,,,,1,1.623,,,,,,2018_Jun_12_1416,59.6299542478,verb_norming,001,904,
WASH,tvätta,skura,sopa,3,skura,sopa,tvätta,,,0,37,37,107,,,,,,,,,,,,,,,,,3,1,1.05700269232,,,2018_Jun_12_1416,59.6299542478,verb_norming,001,904,
CLICK,klicka,klappa,klämma,2,klämma,klicka,klappa,Arm,arm,0,38,38,11,0,0,0,0,,,,,,,,,,,7,2.088,,,,,,2018_Jun_12_1416,59.6299542478,verb_norming,001,904,
CLICK,klicka,klappa,klämma,2,klämma,klicka,klappa,Leg,leg,0,38,38,11,0,1,1,1,,,,,,,,,,,1,1.471,,,,,,2018_Jun_12_1416,59.6299542478,verb_norming,001,904,
CLICK,klicka,klappa,klämma,2,klämma,klicka,klappa,,,0,38,38,11,,,,,,,,,,,,,,,,,2,1,1.47628865328,,,2018_Jun_12_1416,59.6299542478,verb_norming,001,904,
STRUT,svassa,lunka,strosa,3,strosa,lunka,svassa,Arm,arm,0,39,39,90,0,0,0,0,,,,,,,,,,,1,3.129,,,,,,2018_Jun_12_1416,59.6299542478,verb_norming,001,904,
STRUT,svassa,lunka,strosa,3,strosa,lunka,svassa,Leg,leg,0,39,39,90,0,1,1,1,,,,,,,,,,,7,1.622,,,,,,2018_Jun_12_1416,59.6299542478,verb_norming,001,904,
STRUT,svassa,lunka,strosa,3,strosa,lunka,svassa,,,0,39,39,90,,,,,,,,,,,,,,,,,3,1,2.0634095092,,,2018_Jun_12_1416,59.6299542478,verb_norming,001,904,
LIFT,lyfta,pressa,öka,1,lyfta,pressa,öka,Arm,arm,0,40,40,40,0,0,0,0,,,,,,,,,,,7,2.794,,,,,,2018_Jun_12_1416,59.6299542478,verb_norming,001,904,
LIFT,lyfta,pressa,öka,1,lyfta,pressa,öka,Leg,leg,0,40,40,40,0,1,1,1,,,,,,,,,,,1,1.555,,,,,,2018_Jun_12_1416,59.6299542478,verb_norming,001,904,
LIFT,lyfta,pressa,öka,1,lyfta,pressa,öka,,,0,40,40,40,,,,,,,,,,,,,,,,,1,1,1.37542445408,,,2018_Jun_12_1416,59.6299542478,verb_norming,001,904,
SCOOP,skyffla,dika,skrapa,2,dika,skyffla,skrapa,Arm,arm,0,41,41,63,0,0,0,0,,,,,,,,,,,7,3.177,,,,,,2018_Jun_12_1416,59.6299542478,verb_norming,001,904,
SCOOP,skyffla,dika,skrapa,2,dika,skyffla,skrapa,Leg,leg,0,41,41,63,0,1,1,1,,,,,,,,,,,1,1.957,,,,,,2018_Jun_12_1416,59.6299542478,verb_norming,001,904,
SCOOP,skyffla,dika,skrapa,2,dika,skyffla,skrapa,,,0,41,41,63,,,,,,,,,,,,,,,,,2,1,2.34853953023,,,2018_Jun_12_1416,59.6299542478,verb_norming,001,904,
PLUCK,plocka,rensa,picka,3,rensa,picka,plocka,Arm,arm,0,42,42,50,0,0,0,0,,,,,,,,,,,7,3.833,,,,,,2018_Jun_12_1416,59.6299542478,verb_norming,001,904,
PLUCK,plocka,rensa,picka,3,rensa,picka,plocka,Leg,leg,0,42,42,50,0,1,1,1,,,,,,,,,,,1,2.327,,,,,,2018_Jun_12_1416,59.6299542478,verb_norming,001,904,
PLUCK,plocka,rensa,picka,3,rensa,picka,plocka,,,0,42,42,50,,,,,,,,,,,,,,,,,3,1,7.49731478709,,,2018_Jun_12_1416,59.6299542478,verb_norming,001,904,
BASH,slå,knuffa,trycka,2,knuffa,slå,trycka,Arm,arm,0,43,43,0,0,0,0,0,,,,,,,,,,,7,2.574,,,,,,2018_Jun_12_1416,59.6299542478,verb_norming,001,904,
BASH,slå,knuffa,trycka,2,knuffa,slå,trycka,Leg,leg,0,43,43,0,0,1,1,1,,,,,,,,,,,1,3.181,,,,,,2018_Jun_12_1416,59.6299542478,verb_norming,001,904,
BASH,slå,knuffa,trycka,2,knuffa,slå,trycka,,,0,43,43,0,,,,,,,,,,,,,,,,,2,1,4.10946786476,,,2018_Jun_12_1416,59.6299542478,verb_norming,001,904,
STOMP,stampa,stiga,kliva,3,stiga,kliva,stampa,Arm,arm,0,44,44,86,0,0,0,0,,,,,,,,,,,1,4.301,,,,,,2018_Jun_12_1416,59.6299542478,verb_norming,001,904,
STOMP,stampa,stiga,kliva,3,stiga,kliva,stampa,Leg,leg,0,44,44,86,0,1,1,1,,,,,,,,,,,7,1.956,,,,,,2018_Jun_12_1416,59.6299542478,verb_norming,001,904,
STOMP,stampa,stiga,kliva,3,stiga,kliva,stampa,,,0,44,44,86,,,,,,,,,,,,,,,,,3,1,2.14704267023,,,2018_Jun_12_1416,59.6299542478,verb_norming,001,904,
WRAP,slå in,slå ihop,slå till,3,slå till,slå ihop,slå in,Arm,arm,0,45,45,111,0,0,0,0,,,,,,,,,,,7,3.817,,,,,,2018_Jun_12_1416,59.6299542478,verb_norming,001,904,
WRAP,slå in,slå ihop,slå till,3,slå till,slå ihop,slå in,Leg,leg,0,45,45,111,0,1,1,1,,,,,,,,,,,1,1.79,,,,,,2018_Jun_12_1416,59.6299542478,verb_norming,001,904,
WRAP,slå in,slå ihop,slå till,3,slå till,slå ihop,slå in,,,0,45,45,111,,,,,,,,,,,,,,,,,3,1,4.72980104295,,,2018_Jun_12_1416,59.6299542478,verb_norming,001,904,
STIR,röra,sleva,vispa,1,röra,vispa,sleva,Arm,arm,0,46,46,85,0,0,0,0,,,,,,,,,,,7,2.425,,,,,,2018_Jun_12_1416,59.6299542478,verb_norming,001,904,
STIR,röra,sleva,vispa,1,röra,vispa,sleva,Leg,leg,0,46,46,85,0,1,1,1,,,,,,,,,,,1,1.822,,,,,,2018_Jun_12_1416,59.6299542478,verb_norming,001,904,
STIR,röra,sleva,vispa,1,röra,vispa,sleva,,,0,46,46,85,,,,,,,,,,,,,,,,,1,1,2.28121204411,,,2018_Jun_12_1416,59.6299542478,verb_norming,001,904,
PUSH,knuffa,kasta,klämma,3,klämma,kasta,knuffa,Arm,arm,0,47,47,56,0,0,0,0,,,,,,,,,,,7,3.666,,,,,,2018_Jun_12_1416,59.6299542478,verb_norming,001,904,
PUSH,knuffa,kasta,klämma,3,klämma,kasta,knuffa,Leg,leg,0,47,47,56,0,1,1,1,,,,,,,,,,,1,1.723,,,,,,2018_Jun_12_1416,59.6299542478,verb_norming,001,904,
PUSH,knuffa,kasta,klämma,3,klämma,kasta,knuffa,,,0,47,47,56,,,,,,,,,,,,,,,,,3,1,2.51597417203,,,2018_Jun_12_1416,59.6299542478,verb_norming,001,904,
LEAP,hoppa,stega,kliva,3,stega,kliva,hoppa,Arm,arm,0,48,48,39,0,0,0,0,,,,,,,,,,,1,4.186,,,,,,2018_Jun_12_1416,59.6299542478,verb_norming,001,904,
LEAP,hoppa,stega,kliva,3,stega,kliva,hoppa,Leg,leg,0,48,48,39,0,1,1,1,,,,,,,,,,,7,1.723,,,,,,2018_Jun_12_1416,59.6299542478,verb_norming,001,904,
LEAP,hoppa,stega,kliva,3,stega,kliva,hoppa,,,0,48,48,39,,,,,,,,,,,,,,,,,3,1,4.14264581188,,,2018_Jun_12_1416,59.6299542478,verb_norming,001,904,
CLAW,klösa,nypa,rispa,3,rispa,nypa,klösa,Arm,arm,0,49,49,9,0,0,0,0,,,,,,,,,,,7,3.296,,,,,,2018_Jun_12_1416,59.6299542478,verb_norming,001,904,
CLAW,klösa,nypa,rispa,3,rispa,nypa,klösa,Leg,leg,0,49,49,9,0,1,1,1,,,,,,,,,,,1,1.487,,,,,,2018_Jun_12_1416,59.6299542478,verb_norming,001,904,
CLAW,klösa,nypa,rispa,3,rispa,nypa,klösa,,,0,49,49,9,,,,,,,,,,,,,,,,,3,1,2.1135063523,,,2018_Jun_12_1416,59.6299542478,verb_norming,001,904,
TWINE,tvinna,binda,knyta,3,binda,knyta,tvinna,Arm,arm,0,50,50,103,0,0,0,0,,,,,,,,,,,7,7.623,,,,,,2018_Jun_12_1416,59.6299542478,verb_norming,001,904,
TWINE,tvinna,binda,knyta,3,binda,knyta,tvinna,Leg,leg,0,50,50,103,0,1,1,1,,,,,,,,,,,1,1.605,,,,,,2018_Jun_12_1416,59.6299542478,verb_norming,001,904,
TWINE,tvinna,binda,knyta,3,binda,knyta,tvinna,,,0,50,50,103,,,,,,,,,,,,,,,,,3,1,1.42591443827,,,2018_Jun_12_1416,59.6299542478,verb_norming,001,904,
POKE,peta,trycka,knuffa,1,peta,knuffa,trycka,Arm,arm,0,51,51,51,0,0,0,0,,,,,,,,,,,7,3.178,,,,,,2018_Jun_12_1416,59.6299542478,verb_norming,001,904,
POKE,peta,trycka,knuffa,1,peta,knuffa,trycka,Leg,leg,0,51,51,51,0,1,1,1,,,,,,,,,,,1,3.265,,,,,,2018_Jun_12_1416,59.6299542478,verb_norming,001,904,
POKE,peta,trycka,knuffa,1,peta,knuffa,trycka,,,0,51,51,51,,,,,,,,,,,,,,,,,1,1,4.52869179241,,,2018_Jun_12_1416,59.6299542478,verb_norming,001,904,
CREEP,krypa,knäböja,klättra,3,klättra,knäböja,krypa,Arm,arm,0,52,52,15,0,0,0,0,,,,,,,,,,,5,3.732,,,,,,2018_Jun_12_1416,59.6299542478,verb_norming,001,904,
CREEP,krypa,knäböja,klättra,3,klättra,knäböja,krypa,Leg,leg,0,52,52,15,0,1,1,1,,,,,,,,,,,4,3.786,,,,,,2018_Jun_12_1416,59.6299542478,verb_norming,001,904,
CREEP,krypa,knäböja,klättra,3,klättra,knäböja,krypa,,,0,52,52,15,,,,,,,,,,,,,,,,,3,1,1.74465663967,,,2018_Jun_12_1416,59.6299542478,verb_norming,001,904,
PUNCH,slå,knuffa,kasta,1,slå,knuffa,kasta,Arm,arm,0,53,53,55,0,0,0,0,,,,,,,,,,,7,4.183,,,,,,2018_Jun_12_1416,59.6299542478,verb_norming,001,904,
PUNCH,slå,knuffa,kasta,1,slå,knuffa,kasta,Leg,leg,0,53,53,55,0,1,1,1,,,,,,,,,,,1,2.595,,,,,,2018_Jun_12_1416,59.6299542478,verb_norming,001,904,
PUNCH,slå,knuffa,kasta,1,slå,knuffa,kasta,,,0,53,53,55,,,,,,,,,,,,,,,,,1,1,2.26451638904,,,2018_Jun_12_1416,59.6299542478,verb_norming,001,904,
SLAP,smälla till,knäppa fast,klämma åt,2,knäppa fast,smälla till,klämma åt,Arm,arm,0,54,54,73,0,0,0,0,,,,,,,,,,,7,2.156,,,,,,2018_Jun_12_1416,59.6299542478,verb_norming,001,904,
SLAP,smälla till,knäppa fast,klämma åt,2,knäppa fast,smälla till,klämma åt,Leg,leg,0,54,54,73,0,1,1,1,,,,,,,,,,,1,2.394,,,,,,2018_Jun_12_1416,59.6299542478,verb_norming,001,904,
SLAP,smälla till,knäppa fast,klämma åt,2,knäppa fast,smälla till,klämma åt,,,0,54,54,73,,,,,,,,,,,,,,,,,2,1,4.4448274881,,,2018_Jun_12_1416,59.6299542478,verb_norming,001,904,
PLOD,lunka,pulsa,vingla,3,pulsa,vingla,lunka,Arm,arm,0,55,55,49,0,0,0,0,,,,,,,,,,,7,2.339,,,,,,2018_Jun_12_1416,59.6299542478,verb_norming,001,904,
PLOD,lunka,pulsa,vingla,3,pulsa,vingla,lunka,Leg,leg,0,55,55,49,0,1,1,1,,,,,,,,,,,4,5.127,,,,,,2018_Jun_12_1416,59.6299542478,verb_norming,001,904,
PLOD,lunka,pulsa,vingla,3,pulsa,vingla,lunka,,,0,55,55,49,,,,,,,,,,,,,,,,,1,0,2.91963682456,,,2018_Jun_12_1416,59.6299542478,verb_norming,001,904,
WHIP,piska,klappa,slå,1,piska,slå,klappa,Arm,arm,0,56,56,108,0,0,0,0,,,,,,,,,,,7,6.4,,,,,,2018_Jun_12_1416,59.6299542478,verb_norming,001,904,
WHIP,piska,klappa,slå,1,piska,slå,klappa,Leg,leg,0,56,56,108,0,1,1,1,,,,,,,,,,,1,1.673,,,,,,2018_Jun_12_1416,59.6299542478,verb_norming,001,904,
WHIP,piska,klappa,slå,1,piska,slå,klappa,,,0,56,56,108,,,,,,,,,,,,,,,,,1,1,1.44251842627,,,2018_Jun_12_1416,59.6299542478,verb_norming,001,904,
FOLD,vika ihop,knyta ihop,bunta ihop,1,vika ihop,bunta ihop,knyta ihop,Arm,arm,0,57,57,24,0,0,0,0,,,,,,,,,,,7,2.07,,,,,,2018_Jun_12_1416,59.6299542478,verb_norming,001,904,
FOLD,vika ihop,knyta ihop,bunta ihop,1,vika ihop,bunta ihop,knyta ihop,Leg,leg,0,57,57,24,0,1,1,1,,,,,,,,,,,1,1.755,,,,,,2018_Jun_12_1416,59.6299542478,verb_norming,001,904,
FOLD,vika ihop,knyta ihop,bunta ihop,1,vika ihop,bunta ihop,knyta ihop,,,0,57,57,24,,,,,,,,,,,,,,,,,1,1,1.67741884501,,,2018_Jun_12_1416,59.6299542478,verb_norming,001,904,
SEIZE,fånga,klämma,fästa,2,fästa,fånga,klämma,Arm,arm,0,58,58,68,0,0,0,0,,,,,,,,,,,7,2.891,,,,,,2018_Jun_12_1416,59.6299542478,verb_norming,001,904,
SEIZE,fånga,klämma,fästa,2,fästa,fånga,klämma,Leg,leg,0,58,58,68,0,1,1,1,,,,,,,,,,,1,1.403,,,,,,2018_Jun_12_1416,59.6299542478,verb_norming,001,904,
SEIZE,fånga,klämma,fästa,2,fästa,fånga,klämma,,,0,58,58,68,,,,,,,,,,,,,,,,,2,1,1.82847590065,,,2018_Jun_12_1416,59.6299542478,verb_norming,001,904,
SHAKE,skaka,röra,vispa,1,skaka,röra,vispa,Arm,arm,0,59,59,69,0,0,0,0,,,,,,,,,,,7,2.541,,,,,,2018_Jun_12_1416,59.6299542478,verb_norming,001,904,
SHAKE,skaka,röra,vispa,1,skaka,röra,vispa,Leg,leg,0,59,59,69,0,1,1,1,,,,,,,,,,,1,1.555,,,,,,2018_Jun_12_1416,59.6299542478,verb_norming,001,904,
SHAKE,skaka,röra,vispa,1,skaka,röra,vispa,,,0,59,59,69,,,,,,,,,,,,,,,,,1,1,1.94578248511,,,2018_Jun_12_1416,59.6299542478,verb_norming,001,904,
MARCH,marschera,trava,traska,2,trava,marschera,traska,Arm,arm,0,60,60,42,0,0,0,0,,,,,,,,,,,4,4.301,,,,,,2018_Jun_12_1416,59.6299542478,verb_norming,001,904,
MARCH,marschera,trava,traska,2,trava,marschera,traska,Leg,leg,0,60,60,42,0,1,1,1,,,,,,,,,,,7,1.722,,,,,,2018_Jun_12_1416,59.6299542478,verb_norming,001,904,
MARCH,marschera,trava,traska,2,trava,marschera,traska,,,0,60,60,42,,,,,,,,,,,,,,,,,2,1,1.82824317692,,,2018_Jun_12_1416,59.6299542478,verb_norming,001,904,
SLIDE,glida,ramla,hasa,2,hasa,glida,ramla,Arm,arm,0,61,61,74,0,0,0,0,,,,,,,,,,,1,3.815,,,,,,2018_Jun_12_1416,59.6299542478,verb_norming,001,904,
SLIDE,glida,ramla,hasa,2,hasa,glida,ramla,Leg,leg,0,61,61,74,0,1,1,1,,,,,,,,,,,7,2.609,,,,,,2018_Jun_12_1416,59.6299542478,verb_norming,001,904,
SLIDE,glida,ramla,hasa,2,hasa,glida,ramla,,,0,61,61,74,,,,,,,,,,,,,,,,,1,0,2.02985580612,,,2018_Jun_12_1416,59.6299542478,verb_norming,001,904,
TREAD,trampa,stampa,klampa,3,stampa,klampa,trampa,Arm,arm,0,62,62,98,0,0,0,0,,,,,,,,,,,2,6.196,,,,,,2018_Jun_12_1416,59.6299542478,verb_norming,001,904,
TREAD,trampa,stampa,klampa,3,stampa,klampa,trampa,Leg,leg,0,62,62,98,0,1,1,1,,,,,,,,,,,7,2.61,,,,,,2018_Jun_12_1416,59.6299542478,verb_norming,001,904,
TREAD,trampa,stampa,klampa,3,stampa,klampa,trampa,,,0,62,62,98,,,,,,,,,,,,,,,,,3,1,6.22267748445,,,2018_Jun_12_1416,59.6299542478,verb_norming,001,904,
SPRINT,spurta,springa,löpa,2,löpa,spurta,springa,Arm,arm,0,63,63,79,0,0,0,0,,,,,,,,,,,1,3.313,,,,,,2018_Jun_12_1416,59.6299542478,verb_norming,001,904,
SPRINT,spurta,springa,löpa,2,löpa,spurta,springa,Leg,leg,0,63,63,79,0,1,1,1,,,,,,,,,,,7,1.437,,,,,,2018_Jun_12_1416,59.6299542478,verb_norming,001,904,
SPRINT,spurta,springa,löpa,2,löpa,spurta,springa,,,0,63,63,79,,,,,,,,,,,,,,,,,2,1,2.31473769389,,,2018_Jun_12_1416,59.6299542478,verb_norming,001,904,
GRASP,gripa,klämma,omfamna,3,omfamna,klämma,gripa,Arm,arm,0,64,64,27,0,0,0,0,,,,,,,,,,,7,2.339,,,,,,2018_Jun_12_1416,59.6299542478,verb_norming,001,904,
GRASP,gripa,klämma,omfamna,3,omfamna,klämma,gripa,Leg,leg,0,64,64,27,0,1,1,1,,,,,,,,,,,1,2.325,,,,,,2018_Jun_12_1416,59.6299542478,verb_norming,001,904,
GRASP,gripa,klämma,omfamna,3,omfamna,klämma,gripa,,,0,64,64,27,,,,,,,,,,,,,,,,,3,1,2.01333558287,,,2018_Jun_12_1416,59.6299542478,verb_norming,001,904,
CLEAN,rengöra,rensa,plocka,3,rensa,plocka,rengöra,Arm,arm,0,65,65,10,0,0,0,0,,,,,,,,,,,7,1.82,,,,,,2018_Jun_12_1416,59.6299542478,verb_norming,001,904,
CLEAN,rengöra,rensa,plocka,3,rensa,plocka,rengöra,Leg,leg,0,65,65,10,0,1,1,1,,,,,,,,,,,1,1.789,,,,,,2018_Jun_12_1416,59.6299542478,verb_norming,001,904,
CLEAN,rengöra,rensa,plocka,3,rensa,plocka,rengöra,,,0,65,65,10,,,,,,,,,,,,,,,,,3,1,2.02984513798,,,2018_Jun_12_1416,59.6299542478,verb_norming,001,904,
SWAY,vingla,tassa,ramla,2,ramla,vingla,tassa,Arm,arm,0,66,66,92,0,0,0,0,,,,,,,,,,,3,4.083,,,,,,2018_Jun_12_1416,59.6299542478,verb_norming,001,904,
SWAY,vingla,tassa,ramla,2,ramla,vingla,tassa,Leg,leg,0,66,66,92,0,1,1,1,,,,,,,,,,,6,1.891,,,,,,2018_Jun_12_1416,59.6299542478,verb_norming,001,904,
SWAY,vingla,tassa,ramla,2,ramla,vingla,tassa,,,0,66,66,92,,,,,,,,,,,,,,,,,2,1,5.03171957147,,,2018_Jun_12_1416,59.6299542478,verb_norming,001,904,
BIND,binda,linda,vinda,1,binda,linda,vinda,Arm,arm,0,67,67,1,0,0,0,0,,,,,,,,,,,7,5.123,,,,,,2018_Jun_12_1416,59.6299542478,verb_norming,001,904,
BIND,binda,linda,vinda,1,binda,linda,vinda,Leg,leg,0,67,67,1,0,1,1,1,,,,,,,,,,,1,1.57,,,,,,2018_Jun_12_1416,59.6299542478,verb_norming,001,904,
BIND,binda,linda,vinda,1,binda,linda,vinda,,,0,67,67,1,,,,,,,,,,,,,,,,,1,1,1.37578163957,,,2018_Jun_12_1416,59.6299542478,verb_norming,001,904,
CUT,skära,sticka,spetsa,3,spetsa,sticka,skära,Arm,arm,0,68,68,16,0,0,0,0,,,,,,,,,,,7,1.889,,,,,,2018_Jun_12_1416,59.6299542478,verb_norming,001,904,
CUT,skära,sticka,spetsa,3,spetsa,sticka,skära,Leg,leg,0,68,68,16,0,1,1,1,,,,,,,,,,,1,1.472,,,,,,2018_Jun_12_1416,59.6299542478,verb_norming,001,904,
CUT,skära,sticka,spetsa,3,spetsa,sticka,skära,,,0,68,68,16,,,,,,,,,,,,,,,,,3,1,2.66678902114,,,2018_Jun_12_1416,59.6299542478,verb_norming,001,904,
STROLL,strosa,trava,marschera,2,trava,strosa,marschera,Arm,arm,0,69,69,89,0,0,0,0,,,,,,,,,,,1,3.495,,,,,,2018_Jun_12_1416,59.6299542478,verb_norming,001,904,
STROLL,strosa,trava,marschera,2,trava,strosa,marschera,Leg,leg,0,69,69,89,0,1,1,1,,,,,,,,,,,7,1.536,,,,,,2018_Jun_12_1416,59.6299542478,verb_norming,001,904,
STROLL,strosa,trava,marschera,2,trava,strosa,marschera,,,0,69,69,89,,,,,,,,,,,,,,,,,2,1,2.14705531397,,,2018_Jun_12_1416,59.6299542478,verb_norming,001,904,
STRAY,ströva,vandra,promenera,1,ströva,promenera,vandra,Arm,arm,0,70,70,87,0,0,0,0,,,,,,,,,,,1,3.448,,,,,,2018_Jun_12_1416,59.6299542478,verb_norming,001,904,
STRAY,ströva,vandra,promenera,1,ströva,promenera,vandra,Leg,leg,0,70,70,87,0,1,1,1,,,,,,,,,,,7,2.914,,,,,,2018_Jun_12_1416,59.6299542478,verb_norming,001,904,
STRAY,ströva,vandra,promenera,1,ströva,promenera,vandra,,,0,70,70,87,,,,,,,,,,,,,,,,,1,1,3.45538026423,,,2018_Jun_12_1416,59.6299542478,verb_norming,001,904,
WADE,vada,pulsa,plöja,2,pulsa,vada,plöja,Arm,arm,0,71,71,104,0,0,0,0,,,,,,,,,,,1,3.849,,,,,,2018_Jun_12_1416,59.6299542478,verb_norming,001,904,
WADE,vada,pulsa,plöja,2,pulsa,vada,plöja,Leg,leg,0,71,71,104,0,1,1,1,,,,,,,,,,,7,2.812,,,,,,2018_Jun_12_1416,59.6299542478,verb_norming,001,904,
WADE,vada,pulsa,plöja,2,pulsa,vada,plöja,,,0,71,71,104,,,,,,,,,,,,,,,,,2,1,2.51601802996,,,2018_Jun_12_1416,59.6299542478,verb_norming,001,904,
TRUDGE,släpa sig fram,kasta sig fram,ta sig fram,3,ta sig fram,kasta sig fram,släpa sig fram,Arm,arm,0,72,72,101,0,0,0,0,,,,,,,,,,,1,4.149,,,,,,2018_Jun_12_1416,59.6299542478,verb_norming,001,904,
TRUDGE,släpa sig fram,kasta sig fram,ta sig fram,3,ta sig fram,kasta sig fram,släpa sig fram,Leg,leg,0,72,72,101,0,1,1,1,,,,,,,,,,,7,1.484,,,,,,2018_Jun_12_1416,59.6299542478,verb_norming,001,904,
TRUDGE,släpa sig fram,kasta sig fram,ta sig fram,3,ta sig fram,kasta sig fram,släpa sig fram,,,0,72,72,101,,,,,,,,,,,,,,,,,3,1,5.51820934705,,,2018_Jun_12_1416,59.6299542478,verb_norming,001,904,
JUMP,hoppa,kliva,lyfta,2,kliva,hoppa,lyfta,Arm,arm,0,73,73,35,0,0,0,0,,,,,,,,,,,1,4.804,,,,,,2018_Jun_12_1416,59.6299542478,verb_norming,001,904,
JUMP,hoppa,kliva,lyfta,2,kliva,hoppa,lyfta,Leg,leg,0,73,73,35,0,1,1,1,,,,,,,,,,,7,1.889,,,,,,2018_Jun_12_1416,59.6299542478,verb_norming,001,904,
JUMP,hoppa,kliva,lyfta,2,kliva,hoppa,lyfta,,,0,73,73,35,,,,,,,,,,,,,,,,,2,1,2.39862017355,,,2018_Jun_12_1416,59.6299542478,verb_norming,001,904,
STRIDE,kliva,tassa,lunka,1,kliva,tassa,lunka,Arm,arm,0,74,74,88,0,0,0,0,,,,,,,,,,,1,5.173,,,,,,2018_Jun_12_1416,59.6299542478,verb_norming,001,904,
STRIDE,kliva,tassa,lunka,1,kliva,tassa,lunka,Leg,leg,0,74,74,88,0,1,1,1,,,,,,,,,,,7,1.906,,,,,,2018_Jun_12_1416,59.6299542478,verb_norming,001,904,
STRIDE,kliva,tassa,lunka,1,kliva,tassa,lunka,,,0,74,74,88,,,,,,,,,,,,,,,,,1,1,7.44680386172,,,2018_Jun_12_1416,59.6299542478,verb_norming,001,904,
SCRAPE,skrapa,rispa,klösa,1,skrapa,rispa,klösa,Arm,arm,0,75,75,64,0,0,0,0,,,,,,,,,,,7,5.895,,,,,,2018_Jun_12_1416,59.6299542478,verb_norming,001,904,
SCRAPE,skrapa,rispa,klösa,1,skrapa,rispa,klösa,Leg,leg,0,75,75,64,0,1,1,1,,,,,,,,,,,1,1.454,,,,,,2018_Jun_12_1416,59.6299542478,verb_norming,001,904,
SCRAPE,skrapa,rispa,klösa,1,skrapa,rispa,klösa,,,0,75,75,64,,,,,,,,,,,,,,,,,2,0,3.50547355128,,,2018_Jun_12_1416,59.6299542478,verb_norming,001,904,
NIP,nypa,peta,nudda,2,nudda,nypa,peta,Arm,arm,0,76,76,44,0,0,0,0,,,,,,,,,,,7,3.465,,,,,,2018_Jun_12_1416,59.6299542478,verb_norming,001,904,
NIP,nypa,peta,nudda,2,nudda,nypa,peta,Leg,leg,0,76,76,44,0,1,1,1,,,,,,,,,,,1,1.388,,,,,,2018_Jun_12_1416,59.6299542478,verb_norming,001,904,
NIP,nypa,peta,nudda,2,nudda,nypa,peta,,,0,76,76,44,,,,,,,,,,,,,,,,,2,1,4.1594971429,,,2018_Jun_12_1416,59.6299542478,verb_norming,001,904,
GRAB,gripa tag i,fästa ihop,smälla till,1,gripa tag i,smälla till,fästa ihop,Arm,arm,0,77,77,26,0,0,0,0,,,,,,,,,,,7,5.257,,,,,,2018_Jun_12_1416,59.6299542478,verb_norming,001,904,
GRAB,gripa tag i,fästa ihop,smälla till,1,gripa tag i,smälla till,fästa ihop,Leg,leg,0,77,77,26,0,1,1,1,,,,,,,,,,,1,2.375,,,,,,2018_Jun_12_1416,59.6299542478,verb_norming,001,904,
GRAB,gripa tag i,fästa ihop,smälla till,1,gripa tag i,smälla till,fästa ihop,,,0,77,77,26,,,,,,,,,,,,,,,,,1,1,2.14709364028,,,2018_Jun_12_1416,59.6299542478,verb_norming,001,904,
PULL,dra,slänga,släpa,3,släpa,slänga,dra,Arm,arm,0,78,78,54,0,0,0,0,,,,,,,,,,,7,2.291,,,,,,2018_Jun_12_1416,59.6299542478,verb_norming,001,904,
PULL,dra,slänga,släpa,3,släpa,slänga,dra,Leg,leg,0,78,78,54,0,1,1,1,,,,,,,,,,,1,2.293,,,,,,2018_Jun_12_1416,59.6299542478,verb_norming,001,904,
PULL,dra,slänga,släpa,3,släpa,slänga,dra,,,0,78,78,54,,,,,,,,,,,,,,,,,3,1,2.43205218069,,,2018_Jun_12_1416,59.6299542478,verb_norming,001,904,
CHOP,hacka,tälja,riva,3,riva,tälja,hacka,Arm,arm,0,79,79,7,0,0,0,0,,,,,,,,,,,7,4.048,,,,,,2018_Jun_12_1416,59.6299542478,verb_norming,001,904,
CHOP,hacka,tälja,riva,3,riva,tälja,hacka,Leg,leg,0,79,79,7,0,1,1,1,,,,,,,,,,,1,1.638,,,,,,2018_Jun_12_1416,59.6299542478,verb_norming,001,904,
CHOP,hacka,tälja,riva,3,riva,tälja,hacka,,,0,79,79,7,,,,,,,,,,,,,,,,,3,1,2.06324395532,,,2018_Jun_12_1416,59.6299542478,verb_norming,001,904,
RUB,gnugga,riva,klappa,1,gnugga,riva,klappa,Arm,arm,0,80,80,60,0,0,0,0,,,,,,,,,,,7,2.089,,,,,,2018_Jun_12_1416,59.6299542478,verb_norming,001,904,
RUB,gnugga,riva,klappa,1,gnugga,riva,klappa,Leg,leg,0,80,80,60,0,1,1,1,,,,,,,,,,,1,1.437,,,,,,2018_Jun_12_1416,59.6299542478,verb_norming,001,904,
RUB,gnugga,riva,klappa,1,gnugga,riva,klappa,,,0,80,80,60,,,,,,,,,,,,,,,,,1,1,2.58302863254,,,2018_Jun_12_1416,59.6299542478,verb_norming,001,904,
CLIMB,klättra,kliva,krypa,1,klättra,krypa,kliva,Arm,arm,0,81,81,12,0,0,0,0,,,,,,,,,,,5,5.29,,,,,,2018_Jun_12_1416,59.6299542478,verb_norming,001,904,
CLIMB,klättra,kliva,krypa,1,klättra,krypa,kliva,Leg,leg,0,81,81,12,0,1,1,1,,,,,,,,,,,5,1.805,,,,,,2018_Jun_12_1416,59.6299542478,verb_norming,001,904,
CLIMB,klättra,kliva,krypa,1,klättra,krypa,kliva,,,0,81,81,12,,,,,,,,,,,,,,,,,1,1,1.56006405632,,,2018_Jun_12_1416,59.6299542478,verb_norming,001,904,
CRAWL,kravla,huka,klättra,3,klättra,huka,kravla,Arm,arm,0,82,82,14,0,0,0,0,,,,,,,,,,,4,3.431,,,,,,2018_Jun_12_1416,59.6299542478,verb_norming,001,904,
CRAWL,kravla,huka,klättra,3,klättra,huka,kravla,Leg,leg,0,82,82,14,0,1,1,1,,,,,,,,,,,4,2.645,,,,,,2018_Jun_12_1416,59.6299542478,verb_norming,001,904,
CRAWL,kravla,huka,klättra,3,klättra,huka,kravla,,,0,82,82,14,,,,,,,,,,,,,,,,,3,1,3.45520759826,,,2018_Jun_12_1416,59.6299542478,verb_norming,001,904,
STUMBLE,snubbla,glida,svaja,1,snubbla,glida,svaja,Arm,arm,0,83,83,91,0,0,0,0,,,,,,,,,,,1,7.436,,,,,,2018_Jun_12_1416,59.6299542478,verb_norming,001,904,
STUMBLE,snubbla,glida,svaja,1,snubbla,glida,svaja,Leg,leg,0,83,83,91,0,1,1,1,,,,,,,,,,,7,1.535,,,,,,2018_Jun_12_1416,59.6299542478,verb_norming,001,904,
STUMBLE,snubbla,glida,svaja,1,snubbla,glida,svaja,,,0,83,83,91,,,,,,,,,,,,,,,,,1,1,1.64398762811,,,2018_Jun_12_1416,59.6299542478,verb_norming,001,904,
GLIDE,glida,hasa,snava,3,hasa,snava,glida,Arm,arm,0,84,84,25,0,0,0,0,,,,,,,,,,,2,6.078,,,,,,2018_Jun_12_1416,59.6299542478,verb_norming,001,904,
GLIDE,glida,hasa,snava,3,hasa,snava,glida,Leg,leg,0,84,84,25,0,1,1,1,,,,,,,,,,,3,1.737,,,,,,2018_Jun_12_1416,59.6299542478,verb_norming,001,904,
GLIDE,glida,hasa,snava,3,hasa,snava,glida,,,0,84,84,25,,,,,,,,,,,,,,,,,3,1,1.71106935167,,,2018_Jun_12_1416,59.6299542478,verb_norming,001,904,
MOUNT,gå uppför,ströva runt,kliva över,1,gå uppför,ströva runt,kliva över,Arm,arm,0,85,85,43,0,0,0,0,,,,,,,,,,,6,4.922,,,,,,2018_Jun_12_1416,59.6299542478,verb_norming,001,904,
MOUNT,gå uppför,ströva runt,kliva över,1,gå uppför,ströva runt,kliva över,Leg,leg,0,85,85,43,0,1,1,1,,,,,,,,,,,4,2.776,,,,,,2018_Jun_12_1416,59.6299542478,verb_norming,001,904,
MOUNT,gå uppför,ströva runt,kliva över,1,gå uppför,ströva runt,kliva över,,,0,85,85,43,,,,,,,,,,,,,,,,,3,0,4.09268291334,,,2018_Jun_12_1416,59.6299542478,verb_norming,001,904,
SLITHER,hasa,glida,trilla,3,trilla,glida,hasa,Arm,arm,0,86,86,76,0,0,0,0,,,,,,,,,,,3,18.708,,,,,,2018_Jun_12_1416,59.6299542478,verb_norming,001,904,
SLITHER,hasa,glida,trilla,3,trilla,glida,hasa,Leg,leg,0,86,86,76,0,1,1,1,,,,,,,,,,,3,1.704,,,,,,2018_Jun_12_1416,59.6299542478,verb_norming,001,904,
SLITHER,hasa,glida,trilla,3,trilla,glida,hasa,,,0,86,86,76,,,,,,,,,,,,,,,,,3,1,3.55584500046,,,2018_Jun_12_1416,59.6299542478,verb_norming,001,904,
SLIP,halka,snava,ramla,2,snava,halka,ramla,Arm,arm,0,87,87,75,0,0,0,0,,,,,,,,,,,1,3.196,,,,,,2018_Jun_12_1416,59.6299542478,verb_norming,001,904,
SLIP,halka,snava,ramla,2,snava,halka,ramla,Leg,leg,0,87,87,75,0,1,1,1,,,,,,,,,,,7,1.371,,,,,,2018_Jun_12_1416,59.6299542478,verb_norming,001,904,
SLIP,halka,snava,ramla,2,snava,halka,ramla,,,0,87,87,75,,,,,,,,,,,,,,,,,2,1,2.18057306143,,,2018_Jun_12_1416,59.6299542478,verb_norming,001,904,
TRAIPSE,traska,stappla,vandra,2,vandra,traska,stappla,Arm,arm,0,88,88,97,0,0,0,0,,,,,,,,,,,4,3.748,,,,,,2018_Jun_12_1416,59.6299542478,verb_norming,001,904,
TRAIPSE,traska,stappla,vandra,2,vandra,traska,stappla,Leg,leg,0,88,88,97,0,1,1,1,,,,,,,,,,,4,1.655,,,,,,2018_Jun_12_1416,59.6299542478,verb_norming,001,904,
TRAIPSE,traska,stappla,vandra,2,vandra,traska,stappla,,,0,88,88,97,,,,,,,,,,,,,,,,,3,0,3.55575175292,,,2018_Jun_12_1416,59.6299542478,verb_norming,001,904,
ROLL,vingla,snubbla,svassa,1,vingla,svassa,snubbla,Arm,arm,0,89,89,59,0,0,0,0,,,,,,,,,,,3,8.126,,,,,,2018_Jun_12_1416,59.6299542478,verb_norming,001,904,
ROLL,vingla,snubbla,svassa,1,vingla,svassa,snubbla,Leg,leg,0,89,89,59,0,1,1,1,,,,,,,,,,,4,2.242,,,,,,2018_Jun_12_1416,59.6299542478,verb_norming,001,904,
ROLL,vingla,snubbla,svassa,1,vingla,svassa,snubbla,,,0,89,89,59,,,,,,,,,,,,,,,,,2,0,14.8094296965,,,2018_Jun_12_1416,59.6299542478,verb_norming,001,904,
CLUTCH,gripa tag i,sätta ihop,dra ut,3,dra ut,sätta ihop,gripa tag i,Arm,arm,0,90,90,13,0,0,0,0,,,,,,,,,,,7,3.329,,,,,,2018_Jun_12_1416,59.6299542478,verb_norming,001,904,
CLUTCH,gripa tag i,sätta ihop,dra ut,3,dra ut,sätta ihop,gripa tag i,Leg,leg,0,90,90,13,0,1,1,1,,,,,,,,,,,1,1.554,,,,,,2018_Jun_12_1416,59.6299542478,verb_norming,001,904,
CLUTCH,gripa tag i,sätta ihop,dra ut,3,dra ut,sätta ihop,gripa tag i,,,0,90,90,13,,,,,,,,,,,,,,,,,3,1,2.39874937671,,,2018_Jun_12_1416,59.6299542478,verb_norming,001,904,
FILE,fila,putsa,riva,2,putsa,fila,riva,Arm,arm,0,91,91,21,0,0,0,0,,,,,,,,,,,7,4.252,,,,,,2018_Jun_12_1416,59.6299542478,verb_norming,001,904,
FILE,fila,putsa,riva,2,putsa,fila,riva,Leg,leg,0,91,91,21,0,1,1,1,,,,,,,,,,,1,1.606,,,,,,2018_Jun_12_1416,59.6299542478,verb_norming,001,904,
FILE,fila,putsa,riva,2,putsa,fila,riva,,,0,91,91,21,,,,,,,,,,,,,,,,,2,1,8.40272464557,,,2018_Jun_12_1416,59.6299542478,verb_norming,001,904,
DIG,gräva,dränera,dika,1,gräva,dränera,dika,Arm,arm,0,92,92,19,0,0,0,0,,,,,,,,,,,7,8.878,,,,,,2018_Jun_12_1416,59.6299542478,verb_norming,001,904,
DIG,gräva,dränera,dika,1,gräva,dränera,dika,Leg,leg,0,92,92,19,0,1,1,1,,,,,,,,,,,3,1.235,,,,,,2018_Jun_12_1416,59.6299542478,verb_norming,001,904,
DIG,gräva,dränera,dika,1,gräva,dränera,dika,,,0,92,92,19,,,,,,,,,,,,,,,,,1,1,1.49299892764,,,2018_Jun_12_1416,59.6299542478,verb_norming,001,904,
HOP,skutta,kliva,studsa,3,kliva,studsa,skutta,Arm,arm,0,93,93,32,0,0,0,0,,,,,,,,,,,1,2.574,,,,,,2018_Jun_12_1416,59.6299542478,verb_norming,001,904,
HOP,skutta,kliva,studsa,3,kliva,studsa,skutta,Leg,leg,0,93,93,32,0,1,1,1,,,,,,,,,,,7,1.974,,,,,,2018_Jun_12_1416,59.6299542478,verb_norming,001,904,
HOP,skutta,kliva,studsa,3,kliva,studsa,skutta,,,0,93,93,32,,,,,,,,,,,,,,,,,3,1,5.30049808408,,,2018_Jun_12_1416,59.6299542478,verb_norming,001,904,
TOSS,slänga,fånga,gripa,2,fånga,slänga,gripa,Arm,arm,0,94,94,96,0,0,0,0,,,,,,,,,,,7,7.656,,,,,,2018_Jun_12_1416,59.6299542478,verb_norming,001,904,
TOSS,slänga,fånga,gripa,2,fånga,slänga,gripa,Leg,leg,0,94,94,96,0,1,1,1,,,,,,,,,,,1,1.872,,,,,,2018_Jun_12_1416,59.6299542478,verb_norming,001,904,
TOSS,slänga,fånga,gripa,2,fånga,slänga,gripa,,,0,94,94,96,,,,,,,,,,,,,,,,,2,1,2.66707192468,,,2018_Jun_12_1416,59.6299542478,verb_norming,001,904,
RUN,springa,rusa,jogga,1,springa,rusa,jogga,Arm,arm,0,95,95,61,0,0,0,0,,,,,,,,,,,1,3.633,,,,,,2018_Jun_12_1416,59.6299542478,verb_norming,001,904,
RUN,springa,rusa,jogga,1,springa,rusa,jogga,Leg,leg,0,95,95,61,0,1,1,1,,,,,,,,,,,7,1.64,,,,,,2018_Jun_12_1416,59.6299542478,verb_norming,001,904,
RUN,springa,rusa,jogga,1,springa,rusa,jogga,,,0,95,95,61,,,,,,,,,,,,,,,,,1,1,2.18062679729,,,2018_Jun_12_1416,59.6299542478,verb_norming,001,904,
PEEL,skala,rensa,plocka,1,skala,rensa,plocka,Arm,arm,0,96,96,47,0,0,0,0,,,,,,,,,,,7,7.305,,,,,,2018_Jun_12_1416,59.6299542478,verb_norming,001,904,
PEEL,skala,rensa,plocka,1,skala,rensa,plocka,Leg,leg,0,96,96,47,0,1,1,1,,,,,,,,,,,1,1.656,,,,,,2018_Jun_12_1416,59.6299542478,verb_norming,001,904,
PEEL,skala,rensa,plocka,1,skala,rensa,plocka,,,0,96,96,47,,,,,,,,,,,,,,,,,1,1,1.69403903279,,,2018_Jun_12_1416,59.6299542478,verb_norming,001,904,
TRIP,snubbla,stampa,stappla,2,stampa,snubbla,stappla,Arm,arm,0,97,97,99,0,0,0,0,,,,,,,,,,,1,4.319,,,,,,2018_Jun_12_1416,59.6299542478,verb_norming,001,904,
TRIP,snubbla,stampa,stappla,2,stampa,snubbla,stappla,Leg,leg,0,97,97,99,0,1,1,1,,,,,,,,,,,7,1.622,,,,,,2018_Jun_12_1416,59.6299542478,verb_norming,001,904,
TRIP,snubbla,stampa,stappla,2,stampa,snubbla,stappla,,,0,97,97,99,,,,,,,,,,,,,,,,,2,1,3.52233041395,,,2018_Jun_12_1416,59.6299542478,verb_norming,001,904,
RAMBLE,ströva,strutta,spurta,3,strutta,spurta,ströva,Arm,arm,0,98,98,57,0,0,0,0,,,,,,,,,,,1,3.73,,,,,,2018_Jun_12_1416,59.6299542478,verb_norming,001,904,
RAMBLE,ströva,strutta,spurta,3,strutta,spurta,ströva,Leg,leg,0,98,98,57,0,1,1,1,,,,,,,,,,,7,1.451,,,,,,2018_Jun_12_1416,59.6299542478,verb_norming,001,904,
RAMBLE,ströva,strutta,spurta,3,strutta,spurta,ströva,,,0,98,98,57,,,,,,,,,,,,,,,,,1,0,2.73397742619,,,2018_Jun_12_1416,59.6299542478,verb_norming,001,904,
HACK,hacka,skära,kåpa,2,skära,hacka,kåpa,Arm,arm,0,99,99,30,0,0,0,0,,,,,,,,,,,7,6.667,,,,,,2018_Jun_12_1416,59.6299542478,verb_norming,001,904,
HACK,hacka,skära,kåpa,2,skära,hacka,kåpa,Leg,leg,0,99,99,30,0,1,1,1,,,,,,,,,,,1,1.623,,,,,,2018_Jun_12_1416,59.6299542478,verb_norming,001,904,
HACK,hacka,skära,kåpa,2,skära,hacka,kåpa,,,0,99,99,30,,,,,,,,,,,,,,,,,2,1,1.82850276858,,,2018_Jun_12_1416,59.6299542478,verb_norming,001,904,
SQUEEZE,klämma,knuffa,knäppa,1,klämma,knuffa,knäppa,Arm,arm,0,100,100,80,0,0,0,0,,,,,,,,,,,7,3.425,,,,,,2018_Jun_12_1416,59.6299542478,verb_norming,001,904,
SQUEEZE,klämma,knuffa,knäppa,1,klämma,knuffa,knäppa,Leg,leg,0,100,100,80,0,1,1,1,,,,,,,,,,,1,1.602,,,,,,2018_Jun_12_1416,59.6299542478,verb_norming,001,904,
SQUEEZE,klämma,knuffa,knäppa,1,klämma,knuffa,knäppa,,,0,100,100,80,,,,,,,,,,,,,,,,,1,1,1.40895721597,,,2018_Jun_12_1416,59.6299542478,verb_norming,001,904,
SKIM,skumma,vispa,sleva,2,vispa,skumma,sleva,Arm,arm,0,101,101,71,0,0,0,0,,,,,,,,,,,7,5.09,,,,,,2018_Jun_12_1416,59.6299542478,verb_norming,001,904,
SKIM,skumma,vispa,sleva,2,vispa,skumma,sleva,Leg,leg,0,101,101,71,0,1,1,1,,,,,,,,,,,1,1.688,,,,,,2018_Jun_12_1416,59.6299542478,verb_norming,001,904,
SKIM,skumma,vispa,sleva,2,vispa,skumma,sleva,,,0,101,101,71,,,,,,,,,,,,,,,,,2,1,5.73622050355,,,2018_Jun_12_1416,59.6299542478,verb_norming,001,904,
GRATE,riva,hugga,rispa,2,hugga,riva,rispa,Arm,arm,0,102,102,28,0,0,0,0,,,,,,,,,,,7,12.905,,,,,,2018_Jun_12_1416,59.6299542478,verb_norming,001,904,
GRATE,riva,hugga,rispa,2,hugga,riva,rispa,Leg,leg,0,102,102,28,0,1,1,1,,,,,,,,,,,1,1.99,,,,,,2018_Jun_12_1416,59.6299542478,verb_norming,001,904,
GRATE,riva,hugga,rispa,2,hugga,riva,rispa,,,0,102,102,28,,,,,,,,,,,,,,,,,2,1,1.34203472442,,,2018_Jun_12_1416,59.6299542478,verb_norming,001,904,
PRANCE,kråma sig,promenera,traska,2,promenera,kråma sig,traska,Arm,arm,0,103,103,53,0,0,0,0,,,,,,,,,,,1,3.983,,,,,,2018_Jun_12_1416,59.6299542478,verb_norming,001,904,
PRANCE,kråma sig,promenera,traska,2,promenera,kråma sig,traska,Leg,leg,0,103,103,53,0,1,1,1,,,,,,,,,,,7,2.108,,,,,,2018_Jun_12_1416,59.6299542478,verb_norming,001,904,
PRANCE,kråma sig,promenera,traska,2,promenera,kråma sig,traska,,,0,103,103,53,,,,,,,,,,,,,,,,,2,1,4.19313263513,,,2018_Jun_12_1416,59.6299542478,verb_norming,001,904,
TIPTOE,gå på tå,snava,sparka,3,snava,sparka,gå på tå,Arm,arm,0,104,104,95,0,0,0,0,,,,,,,,,,,1,10.104,,,,,,2018_Jun_12_1416,59.6299542478,verb_norming,001,904,
TIPTOE,gå på tå,snava,sparka,3,snava,sparka,gå på tå,Leg,leg,0,104,104,95,0,1,1,1,,,,,,,,,,,7,2.207,,,,,,2018_Jun_12_1416,59.6299542478,verb_norming,001,904,
TIPTOE,gå på tå,snava,sparka,3,snava,sparka,gå på tå,,,0,104,104,95,,,,,,,,,,,,,,,,,3,1,2.18055765187,,,2018_Jun_12_1416,59.6299542478,verb_norming,001,904,
SNATCH,rycka till sig,knuffa ifrån sig,plocka åt sig,3,plocka åt sig,knuffa ifrån sig,rycka till sig,Arm,arm,0,105,105,77,0,0,0,0,,,,,,,,,,,7,12.587,,,,,,2018_Jun_12_1416,59.6299542478,verb_norming,001,904,
SNATCH,rycka till sig,knuffa ifrån sig,plocka åt sig,3,plocka åt sig,knuffa ifrån sig,rycka till sig,Leg,leg,0,105,105,77,0,1,1,1,,,,,,,,,,,1,2.444,,,,,,2018_Jun_12_1416,59.6299542478,verb_norming,001,904,
SNATCH,rycka till sig,knuffa ifrån sig,plocka åt sig,3,plocka åt sig,knuffa ifrån sig,rycka till sig,,,0,105,105,77,,,,,,,,,,,,,,,,,3,1,2.88508979816,,,2018_Jun_12_1416,59.6299542478,verb_norming,001,904,
WIPE,torka,putsa,gnugga,1,torka,putsa,gnugga,Arm,arm,0,106,106,109,0,0,0,0,,,,,,,,,,,7,3.498,,,,,,2018_Jun_12_1416,59.6299542478,verb_norming,001,904,
WIPE,torka,putsa,gnugga,1,torka,putsa,gnugga,Leg,leg,0,106,106,109,0,1,1,1,,,,,,,,,,,1,1.505,,,,,,2018_Jun_12_1416,59.6299542478,verb_norming,001,904,
WIPE,torka,putsa,gnugga,1,torka,putsa,gnugga,,,0,106,106,109,,,,,,,,,,,,,,,,,1,1,2.53280732768,,,2018_Jun_12_1416,59.6299542478,verb_norming,001,904,
POLISH,polera,sopa,tvätta,2,tvätta,polera,sopa,Arm,arm,0,107,107,52,0,0,0,0,,,,,,,,,,,7,3.857,,,,,,2018_Jun_12_1416,59.6299542478,verb_norming,001,904,
POLISH,polera,sopa,tvätta,2,tvätta,polera,sopa,Leg,leg,0,107,107,52,0,1,1,1,,,,,,,,,,,1,1.351,,,,,,2018_Jun_12_1416,59.6299542478,verb_norming,001,904,
POLISH,polera,sopa,tvätta,2,tvätta,polera,sopa,,,0,107,107,52,,,,,,,,,,,,,,,,,2,1,1.25836600289,,,2018_Jun_12_1416,59.6299542478,verb_norming,001,904,
TROT,trava,promenera,flanera,3,flanera,promenera,trava,Arm,arm,0,108,108,100,0,0,0,0,,,,,,,,,,,1,3.631,,,,,,2018_Jun_12_1416,59.6299542478,verb_norming,001,904,
TROT,trava,promenera,flanera,3,flanera,promenera,trava,Leg,leg,0,108,108,100,0,1,1,1,,,,,,,,,,,7,1.872,,,,,,2018_Jun_12_1416,59.6299542478,verb_norming,001,904,
TROT,trava,promenera,flanera,3,flanera,promenera,trava,,,0,108,108,100,,,,,,,,,,,,,,,,,3,1,3.75720277941,,,2018_Jun_12_1416,59.6299542478,verb_norming,001,904,
SCUFF,hasa sig fram,dra sig fram,kasta sig fram,1,hasa sig fram,dra sig fram,kasta sig fram,Arm,arm,0,109,109,67,0,0,0,0,,,,,,,,,,,1,4.185,,,,,,2018_Jun_12_1416,59.6299542478,verb_norming,001,904,
SCUFF,hasa sig fram,dra sig fram,kasta sig fram,1,hasa sig fram,dra sig fram,kasta sig fram,Leg,leg,0,109,109,67,0,1,1,1,,,,,,,,,,,5,2.092,,,,,,2018_Jun_12_1416,59.6299542478,verb_norming,001,904,
SCUFF,hasa sig fram,dra sig fram,kasta sig fram,1,hasa sig fram,dra sig fram,kasta sig fram,,,0,109,109,67,,,,,,,,,,,,,,,,,1,1,5.3670859118,,,2018_Jun_12_1416,59.6299542478,verb_norming,001,904,
BRAID,fläta,knyta,binda,3,binda,knyta,fläta,Arm,arm,0,110,110,3,0,0,0,0,,,,,,,,,,,7,10.959,,,,,,2018_Jun_12_1416,59.6299542478,verb_norming,001,904,
BRAID,fläta,knyta,binda,3,binda,knyta,fläta,Leg,leg,0,110,110,3,0,1,1,1,,,,,,,,,,,1,1.704,,,,,,2018_Jun_12_1416,59.6299542478,verb_norming,001,904,
BRAID,fläta,knyta,binda,3,binda,knyta,fläta,,,0,110,110,3,,,,,,,,,,,,,,,,,3,1,2.07983767027,,,2018_Jun_12_1416,59.6299542478,verb_norming,001,904,
GRIP,gripa om,hålla om,kasta om,2,hålla om,gripa om,kasta om,Arm,arm,0,111,111,29,0,0,0,0,,,,,,,,,,,7,3.161,,,,,,2018_Jun_12_1416,59.6299542478,verb_norming,001,904,
GRIP,gripa om,hålla om,kasta om,2,hålla om,gripa om,kasta om,Leg,leg,0,111,111,29,0,1,1,1,,,,,,,,,,,1,1.754,,,,,,2018_Jun_12_1416,59.6299542478,verb_norming,001,904,
GRIP,gripa om,hålla om,kasta om,2,hålla om,gripa om,kasta om,,,0,111,111,29,,,,,,,,,,,,,,,,,2,1,1.69411805613,,,2018_Jun_12_1416,59.6299542478,verb_norming,001,904,
,,,,,,,,,,,,,,,,,,,,,,,,,,,,,,,,,space,2.71731812187,2018_Jun_12_1416,59.6299542478,verb_norming,001,904,
