word,target,distrOne,distrTwo,corrAns,w1,w2,w3,category,category_lowercase,trials.thisRepN,trials.thisTrialN,trials.thisN,trials.thisIndex,armleg_loop.thisRepN,armleg_loop.thisTrialN,armleg_loop.thisN,armleg_loop.thisIndex,key_resp_2.keys,key_resp_2.rt,key_resp_3.keys,key_resp_3.rt,key_resp_4.keys,key_resp_4.rt,key_resp_6.keys,key_resp_6.rt,key_resp_5.keys,key_resp_5.rt,rating.response,rating.rt,key_resp_7.keys,key_resp_7.rt,key_resp_8.keys,key_resp_8.rt,date,frameRate,expName,session,participant,
,,,,,,,,,,,,,,,,,,space,250.155713432,,,,,,,,,,,,,,,2018_Jun_13_1344,59.1770947316,verb_norming_oral_input,001,905,
,,,,,,,,,,,,,,,,,,,,space,28.4275746289,,,,,,,,,,,,,2018_Jun_13_1344,59.1770947316,verb_norming_oral_input,001,905,
,,,,,,,,,,,,,,,,,,,,,,space,13.4509136267,,,,,,,,,,,2018_Jun_13_1344,59.1770947316,verb_norming_oral_input,001,905,
,,,,,,,,,,,,,,,,,,,,,,,,space,18.6498810529,,,,,,,,,2018_Jun_13_1344,59.1770947316,verb_norming_oral_input,001,905,
,,,,,,,,,,,,,,,,,,,,,,,,,,space,2.02988829917,,,,,,,2018_Jun_13_1344,59.1770947316,verb_norming_oral_input,001,905,
HIKE,vandra,flanera,lunka,1,vandra,lunka,flanera,Leg,leg,0,0,0,31,0,0,0,0,,,,,,,,,,,7,26.351,,,,,2018_Jun_13_1344,59.1770947316,verb_norming_oral_input,001,905,
HIKE,vandra,flanera,lunka,1,vandra,lunka,flanera,Arm,arm,0,0,0,31,0,1,1,1,,,,,,,,,,,2,4.969,,,,,2018_Jun_13_1344,59.1770947316,verb_norming_oral_input,001,905,
HIKE,vandra,flanera,lunka,1,vandra,lunka,flanera,,,0,0,0,31,,,,,,,,,,,,,,,,,return,74.5141454398,,,2018_Jun_13_1344,59.1770947316,verb_norming_oral_input,001,905,
PAT,klappa,slå,borsta,3,borsta,slå,klappa,Leg,leg,0,1,1,46,0,0,0,0,,,,,,,,,,,1,7.887,,,,,2018_Jun_13_1344,59.1770947316,verb_norming_oral_input,001,905,
PAT,klappa,slå,borsta,3,borsta,slå,klappa,Arm,arm,0,1,1,46,0,1,1,1,,,,,,,,,,,7,7.727,,,,,2018_Jun_13_1344,59.1770947316,verb_norming_oral_input,001,905,
PAT,klappa,slå,borsta,3,borsta,slå,klappa,,,0,1,1,46,,,,,,,,,,,,,,,,,return,5.98802745365,,,2018_Jun_13_1344,59.1770947316,verb_norming_oral_input,001,905,
LEAP,hoppa,stega,kliva,3,stega,kliva,hoppa,Leg,leg,0,2,2,39,0,0,0,0,,,,,,,,,,,7,11.623,,,,,2018_Jun_13_1344,59.1770947316,verb_norming_oral_input,001,905,
LEAP,hoppa,stega,kliva,3,stega,kliva,hoppa,Arm,arm,0,2,2,39,0,1,1,1,,,,,,,,,,,2,14.905,,,,,2018_Jun_13_1344,59.1770947316,verb_norming_oral_input,001,905,
LEAP,hoppa,stega,kliva,3,stega,kliva,hoppa,,,0,2,2,39,,,,,,,,,,,,,,,,,return,62.8246679023,,,2018_Jun_13_1344,59.1770947316,verb_norming_oral_input,001,905,
WALK,gå,promenera,marschera,1,gå,promenera,marschera,Leg,leg,0,3,3,105,0,0,0,0,,,,,,,,,,,7,5.267,,,,,2018_Jun_13_1344,59.1770947316,verb_norming_oral_input,001,905,
WALK,gå,promenera,marschera,1,gå,promenera,marschera,Arm,arm,0,3,3,105,0,1,1,1,,,,,,,,,,,2,2.93,,,,,2018_Jun_13_1344,59.1770947316,verb_norming_oral_input,001,905,
WALK,gå,promenera,marschera,1,gå,promenera,marschera,,,0,3,3,105,,,,,,,,,,,,,,,,,return,2.46561320481,,,2018_Jun_13_1344,59.1770947316,verb_norming_oral_input,001,905,
WOBBLE,vingla,ramla,glida,3,glida,ramla,vingla,Leg,leg,0,4,4,110,0,0,0,0,,,,,,,,,,,5,13.613,,,,,2018_Jun_13_1344,59.1770947316,verb_norming_oral_input,001,905,
WOBBLE,vingla,ramla,glida,3,glida,ramla,vingla,Arm,arm,0,4,4,110,0,1,1,1,,,,,,,,,,,5,4.673,,,,,2018_Jun_13_1344,59.1770947316,verb_norming_oral_input,001,905,
WOBBLE,vingla,ramla,glida,3,glida,ramla,vingla,,,0,4,4,110,,,,,,,,,,,,,,,,,return,22.0881690207,,,2018_Jun_13_1344,59.1770947316,verb_norming_oral_input,001,905,
SCRATCH,repa,riva,klösa,2,klösa,repa,riva,Leg,leg,0,5,5,65,0,0,0,0,,,,,,,,,,,1,7.817,,,,,2018_Jun_13_1344,59.1770947316,verb_norming_oral_input,001,905,
SCRATCH,repa,riva,klösa,2,klösa,repa,riva,Arm,arm,0,5,5,65,0,1,1,1,,,,,,,,,,,7,2.609,,,,,2018_Jun_13_1344,59.1770947316,verb_norming_oral_input,001,905,
SCRATCH,repa,riva,klösa,2,klösa,repa,riva,,,0,5,5,65,,,,,,,,,,,,,,,,,return,6.08859336607,,,2018_Jun_13_1344,59.1770947316,verb_norming_oral_input,001,905,
SKIP,hoppa,kliva,strutta,3,kliva,strutta,hoppa,Leg,leg,0,6,6,72,0,0,0,0,,,,,,,,,,,7,8.705,,,,,2018_Jun_13_1344,59.1770947316,verb_norming_oral_input,001,905,
SKIP,hoppa,kliva,strutta,3,kliva,strutta,hoppa,Arm,arm,0,6,6,72,0,1,1,1,,,,,,,,,,,2,7.676,,,,,2018_Jun_13_1344,59.1770947316,verb_norming_oral_input,001,905,
SKIP,hoppa,kliva,strutta,3,kliva,strutta,hoppa,,,0,6,6,72,,,,,,,,,,,,,,,,,return,25.5093911117,,,2018_Jun_13_1344,59.1770947316,verb_norming_oral_input,001,905,
STAMP,stampa,kliva,skutta,3,skutta,kliva,stampa,Leg,leg,0,7,7,83,0,0,0,0,,,,,,,,,,,1,17.764,,,,,2018_Jun_13_1344,59.1770947316,verb_norming_oral_input,001,905,
STAMP,stampa,kliva,skutta,3,skutta,kliva,stampa,Arm,arm,0,7,7,83,0,1,1,1,,,,,,,,,,,7,6.417,,,,,2018_Jun_13_1344,59.1770947316,verb_norming_oral_input,001,905,
STAMP,stampa,kliva,skutta,3,skutta,kliva,stampa,,,0,7,7,83,,,,,,,,,,,,,,,,,return,4.86437383172,,,2018_Jun_13_1344,59.1770947316,verb_norming_oral_input,001,905,
RUN,springa,rusa,jogga,1,springa,jogga,rusa,Leg,leg,0,8,8,61,0,0,0,0,,,,,,,,,,,7,4.952,,,,,2018_Jun_13_1344,59.1770947316,verb_norming_oral_input,001,905,
RUN,springa,rusa,jogga,1,springa,jogga,rusa,Arm,arm,0,8,8,61,0,1,1,1,,,,,,,,,,,1,7.257,,,,,2018_Jun_13_1344,59.1770947316,verb_norming_oral_input,001,905,
RUN,springa,rusa,jogga,1,springa,jogga,rusa,,,0,8,8,61,,,,,,,,,,,,,,,,,return,4.31103807769,,,2018_Jun_13_1344,59.1770947316,verb_norming_oral_input,001,905,
KICK,sparka,knäa,tåa,2,knäa,sparka,tåa,Leg,leg,0,9,9,36,0,0,0,0,,,,,,,,,,,7,3.307,,,,,2018_Jun_13_1344,59.1770947316,verb_norming_oral_input,001,905,
KICK,sparka,knäa,tåa,2,knäa,sparka,tåa,Arm,arm,0,9,9,36,0,1,1,1,,,,,,,,,,,1,3.366,,,,,2018_Jun_13_1344,59.1770947316,verb_norming_oral_input,001,905,
KICK,sparka,knäa,tåa,2,knäa,sparka,tåa,,,0,9,9,36,,,,,,,,,,,,,,,,,return,2.93565516917,,,2018_Jun_13_1344,59.1770947316,verb_norming_oral_input,001,905,
GRASP,gripa,klämma,omfamna,1,gripa,omfamna,klämma,Leg,leg,0,10,10,27,0,0,0,0,,,,,,,,,,,1,5.936,,,,,2018_Jun_13_1344,59.1770947316,verb_norming_oral_input,001,905,
GRASP,gripa,klämma,omfamna,1,gripa,omfamna,klämma,Arm,arm,0,10,10,27,0,1,1,1,,,,,,,,,,,7,5.562,,,,,2018_Jun_13_1344,59.1770947316,verb_norming_oral_input,001,905,
GRASP,gripa,klämma,omfamna,1,gripa,omfamna,klämma,,,0,10,10,27,,,,,,,,,,,,,,,,,return,14.3231983001,,,2018_Jun_13_1344,59.1770947316,verb_norming_oral_input,001,905,
THROW,kasta,greppa,träffa,2,träffa,kasta,greppa,Leg,leg,0,11,11,94,0,0,0,0,,,,,,,,,,,2,3.686,,,,,2018_Jun_13_1344,59.1770947316,verb_norming_oral_input,001,905,
THROW,kasta,greppa,träffa,2,träffa,kasta,greppa,Arm,arm,0,11,11,94,0,1,1,1,,,,,,,,,,,7,1.889,,,,,2018_Jun_13_1344,59.1770947316,verb_norming_oral_input,001,905,
THROW,kasta,greppa,träffa,2,träffa,kasta,greppa,,,0,11,11,94,,,,,,,,,,,,,,,,,return,10.1132235751,,,2018_Jun_13_1344,59.1770947316,verb_norming_oral_input,001,905,
ROLL,vingla,snubbla,svassa,2,svassa,vingla,snubbla,Leg,leg,0,12,12,59,0,0,0,0,,,,,,,,,,,4,12.291,,,,,2018_Jun_13_1344,59.1770947316,verb_norming_oral_input,001,905,
ROLL,vingla,snubbla,svassa,2,svassa,vingla,snubbla,Arm,arm,0,12,12,59,0,1,1,1,,,,,,,,,,,4,1.957,,,,,2018_Jun_13_1344,59.1770947316,verb_norming_oral_input,001,905,
ROLL,vingla,snubbla,svassa,2,svassa,vingla,snubbla,,,0,12,12,59,,,,,,,,,,,,,,,,,return,5.33394719863,,,2018_Jun_13_1344,59.1770947316,verb_norming_oral_input,001,905,
GRATE,riva,hugga,rispa,1,riva,hugga,rispa,Leg,leg,0,13,13,28,0,0,0,0,,,,,,,,,,,1,5.269,,,,,2018_Jun_13_1344,59.1770947316,verb_norming_oral_input,001,905,
GRATE,riva,hugga,rispa,1,riva,hugga,rispa,Arm,arm,0,13,13,28,0,1,1,1,,,,,,,,,,,7,4.925,,,,,2018_Jun_13_1344,59.1770947316,verb_norming_oral_input,001,905,
GRATE,riva,hugga,rispa,1,riva,hugga,rispa,,,0,13,13,28,,,,,,,,,,,,,,,,,return,4.00913093348,,,2018_Jun_13_1344,59.1770947316,verb_norming_oral_input,001,905,
ROAM,ströva omkring,ta sig fram,luffa runt,3,ta sig fram,luffa runt,ströva omkring,Leg,leg,0,14,14,58,0,0,0,0,,,,,,,,,,,7,24.953,,,,,2018_Jun_13_1344,59.1770947316,verb_norming_oral_input,001,905,
ROAM,ströva omkring,ta sig fram,luffa runt,3,ta sig fram,luffa runt,ströva omkring,Arm,arm,0,14,14,58,0,1,1,1,,,,,,,,,,,1,1.152,,,,,2018_Jun_13_1344,59.1770947316,verb_norming_oral_input,001,905,
ROAM,ströva omkring,ta sig fram,luffa runt,3,ta sig fram,luffa runt,ströva omkring,,,0,14,14,58,,,,,,,,,,,,,,,,,return,64.4514896934,,,2018_Jun_13_1344,59.1770947316,verb_norming_oral_input,001,905,
DANCE,dansa,snurra,svänga,1,dansa,svänga,snurra,Leg,leg,0,15,15,17,0,0,0,0,,,,,,,,,,,7,3.805,,,,,2018_Jun_13_1344,59.1770947316,verb_norming_oral_input,001,905,
DANCE,dansa,snurra,svänga,1,dansa,svänga,snurra,Arm,arm,0,15,15,17,0,1,1,1,,,,,,,,,,,5,4.018,,,,,2018_Jun_13_1344,59.1770947316,verb_norming_oral_input,001,905,
DANCE,dansa,snurra,svänga,1,dansa,svänga,snurra,,,0,15,15,17,,,,,,,,,,,,,,,,,return,1.25855950931,,,2018_Jun_13_1344,59.1770947316,verb_norming_oral_input,001,905,
TIPTOE,gå på tå,snava,sparka,3,snava,sparka,gå på tå,Leg,leg,0,16,16,95,0,0,0,0,,,,,,,,,,,7,4.945,,,,,2018_Jun_13_1344,59.1770947316,verb_norming_oral_input,001,905,
TIPTOE,gå på tå,snava,sparka,3,snava,sparka,gå på tå,Arm,arm,0,16,16,95,0,1,1,1,,,,,,,,,,,2,2.173,,,,,2018_Jun_13_1344,59.1770947316,verb_norming_oral_input,001,905,
TIPTOE,gå på tå,snava,sparka,3,snava,sparka,gå på tå,,,0,16,16,95,,,,,,,,,,,,,,,,,return,5.90544051124,,,2018_Jun_13_1344,59.1770947316,verb_norming_oral_input,001,905,
PEEL,skala,rensa,plocka,3,rensa,plocka,skala,Leg,leg,0,17,17,47,0,0,0,0,,,,,,,,,,,1,5.701,,,,,2018_Jun_13_1344,59.1770947316,verb_norming_oral_input,001,905,
PEEL,skala,rensa,plocka,3,rensa,plocka,skala,Arm,arm,0,17,17,47,0,1,1,1,,,,,,,,,,,7,0.8,,,,,2018_Jun_13_1344,59.1770947316,verb_norming_oral_input,001,905,
PEEL,skala,rensa,plocka,3,rensa,plocka,skala,,,0,17,17,47,,,,,,,,,,,,,,,,,return,1.51021174994,,,2018_Jun_13_1344,59.1770947316,verb_norming_oral_input,001,905,
PUSH,knuffa,kasta,klämma,3,kasta,klämma,knuffa,Leg,leg,0,18,18,56,0,0,0,0,,,,,,,,,,,2,3.411,,,,,2018_Jun_13_1344,59.1770947316,verb_norming_oral_input,001,905,
PUSH,knuffa,kasta,klämma,3,kasta,klämma,knuffa,Arm,arm,0,18,18,56,0,1,1,1,,,,,,,,,,,7,1.772,,,,,2018_Jun_13_1344,59.1770947316,verb_norming_oral_input,001,905,
PUSH,knuffa,kasta,klämma,3,kasta,klämma,knuffa,,,0,18,18,56,,,,,,,,,,,,,,,,,return,3.45564582883,,,2018_Jun_13_1344,59.1770947316,verb_norming_oral_input,001,905,
CREEP,krypa,knäböja,klättra,3,klättra,knäböja,krypa,Leg,leg,0,19,19,15,0,0,0,0,,,,,,,,,,,7,14.34,,,,,2018_Jun_13_1344,59.1770947316,verb_norming_oral_input,001,905,
CREEP,krypa,knäböja,klättra,3,klättra,knäböja,krypa,Arm,arm,0,19,19,15,0,1,1,1,,,,,,,,,,,6,3.248,,,,,2018_Jun_13_1344,59.1770947316,verb_norming_oral_input,001,905,
CREEP,krypa,knäböja,klättra,3,klättra,knäböja,krypa,,,0,19,19,15,,,,,,,,,,,,,,,,,return,5.23337140852,,,2018_Jun_13_1344,59.1770947316,verb_norming_oral_input,001,905,
PRANCE,kråma sig,promenera,traska,2,promenera,kråma sig,traska,Leg,leg,0,20,20,53,0,0,0,0,,,,,,,,,,,4,10.851,,,,,2018_Jun_13_1344,59.1770947316,verb_norming_oral_input,001,905,
PRANCE,kråma sig,promenera,traska,2,promenera,kråma sig,traska,Arm,arm,0,20,20,53,0,1,1,1,,,,,,,,,,,4,0.732,,,,,2018_Jun_13_1344,59.1770947316,verb_norming_oral_input,001,905,
PRANCE,kråma sig,promenera,traska,2,promenera,kråma sig,traska,,,0,20,20,53,,,,,,,,,,,,,,,,,return,3.85816471793,,,2018_Jun_13_1344,59.1770947316,verb_norming_oral_input,001,905,
CLUTCH,gripa tag i,sätta ihop,dra ut,3,dra ut,sätta ihop,gripa tag i,Leg,leg,0,21,21,13,0,0,0,0,,,,,,,,,,,2,11.086,,,,,2018_Jun_13_1344,59.1770947316,verb_norming_oral_input,001,905,
CLUTCH,gripa tag i,sätta ihop,dra ut,3,dra ut,sätta ihop,gripa tag i,Arm,arm,0,21,21,13,0,1,1,1,,,,,,,,,,,7,1.637,,,,,2018_Jun_13_1344,59.1770947316,verb_norming_oral_input,001,905,
CLUTCH,gripa tag i,sätta ihop,dra ut,3,dra ut,sätta ihop,gripa tag i,,,0,21,21,13,,,,,,,,,,,,,,,,,return,7.49710840603,,,2018_Jun_13_1344,59.1770947316,verb_norming_oral_input,001,905,
WADE,vada,pulsa,plöja,3,plöja,pulsa,vada,Leg,leg,0,22,22,104,0,0,0,0,,,,,,,,,,,7,3.174,,,,,2018_Jun_13_1344,59.1770947316,verb_norming_oral_input,001,905,
WADE,vada,pulsa,plöja,3,plöja,pulsa,vada,Arm,arm,0,22,22,104,0,1,1,1,,,,,,,,,,,1,0.831,,,,,2018_Jun_13_1344,59.1770947316,verb_norming_oral_input,001,905,
WADE,vada,pulsa,plöja,3,plöja,pulsa,vada,,,0,22,22,104,,,,,,,,,,,,,,,,,return,2.01326059668,,,2018_Jun_13_1344,59.1770947316,verb_norming_oral_input,001,905,
TREAD,trampa,stampa,klampa,3,stampa,klampa,trampa,Leg,leg,0,23,23,98,0,0,0,0,,,,,,,,,,,4,19.171,,,,,2018_Jun_13_1344,59.1770947316,verb_norming_oral_input,001,905,
TREAD,trampa,stampa,klampa,3,stampa,klampa,trampa,Arm,arm,0,23,23,98,0,1,1,1,,,,,,,,,,,4,1.134,,,,,2018_Jun_13_1344,59.1770947316,verb_norming_oral_input,001,905,
TREAD,trampa,stampa,klampa,3,stampa,klampa,trampa,,,0,23,23,98,,,,,,,,,,,,,,,,,return,1.67782739889,,,2018_Jun_13_1344,59.1770947316,verb_norming_oral_input,001,905,
SEIZE,fånga,klämma,fästa,3,fästa,klämma,fånga,Leg,leg,0,24,24,68,0,0,0,0,,,,,,,,,,,4,7.271,,,,,2018_Jun_13_1344,59.1770947316,verb_norming_oral_input,001,905,
SEIZE,fånga,klämma,fästa,3,fästa,klämma,fånga,Arm,arm,0,24,24,68,0,1,1,1,,,,,,,,,,,4,1.032,,,,,2018_Jun_13_1344,59.1770947316,verb_norming_oral_input,001,905,
SEIZE,fånga,klämma,fästa,3,fästa,klämma,fånga,,,0,24,24,68,,,,,,,,,,,,,,,,,return,6.92720421564,,,2018_Jun_13_1344,59.1770947316,verb_norming_oral_input,001,905,
STAB,sticka,hacka,skära,1,sticka,hacka,skära,Leg,leg,0,25,25,81,0,0,0,0,,,,,,,,,,,1,5.629,,,,,2018_Jun_13_1344,59.1770947316,verb_norming_oral_input,001,905,
STAB,sticka,hacka,skära,1,sticka,hacka,skära,Arm,arm,0,25,25,81,0,1,1,1,,,,,,,,,,,7,6.72,,,,,2018_Jun_13_1344,59.1770947316,verb_norming_oral_input,001,905,
STAB,sticka,hacka,skära,1,sticka,hacka,skära,,,0,25,25,81,,,,,,,,,,,,,,,,,return,3.27077267611,,,2018_Jun_13_1344,59.1770947316,verb_norming_oral_input,001,905,
GRIP,gripa om,hålla om,kasta om,2,hålla om,gripa om,kasta om,Leg,leg,0,26,26,29,0,0,0,0,,,,,,,,,,,1,11.475,,,,,2018_Jun_13_1344,59.1770947316,verb_norming_oral_input,001,905,
GRIP,gripa om,hålla om,kasta om,2,hålla om,gripa om,kasta om,Arm,arm,0,26,26,29,0,1,1,1,,,,,,,,,,,7,39.474,,,,,2018_Jun_13_1344,59.1770947316,verb_norming_oral_input,001,905,
GRIP,gripa om,hålla om,kasta om,2,hålla om,gripa om,kasta om,,,0,26,26,29,,,,,,,,,,,,,,,,,return,16.2518821932,,,2018_Jun_13_1344,59.1770947316,verb_norming_oral_input,001,905,
RUB,gnugga,riva,klappa,2,klappa,gnugga,riva,Leg,leg,0,27,27,60,0,0,0,0,,,,,,,,,,,1,9.935,,,,,2018_Jun_13_1344,59.1770947316,verb_norming_oral_input,001,905,
RUB,gnugga,riva,klappa,2,klappa,gnugga,riva,Arm,arm,0,27,27,60,0,1,1,1,,,,,,,,,,,7,9.806,,,,,2018_Jun_13_1344,59.1770947316,verb_norming_oral_input,001,905,
RUB,gnugga,riva,klappa,2,klappa,gnugga,riva,,,0,27,27,60,,,,,,,,,,,,,,,,,return,4.84758690092,,,2018_Jun_13_1344,59.1770947316,verb_norming_oral_input,001,905,
DIG,gräva,dränera,dika,1,gräva,dika,dränera,Leg,leg,0,28,28,19,0,0,0,0,,,,,,,,,,,2,3.342,,,,,2018_Jun_13_1344,59.1770947316,verb_norming_oral_input,001,905,
DIG,gräva,dränera,dika,1,gräva,dika,dränera,Arm,arm,0,28,28,19,0,1,1,1,,,,,,,,,,,7,1.504,,,,,2018_Jun_13_1344,59.1770947316,verb_norming_oral_input,001,905,
DIG,gräva,dränera,dika,1,gräva,dika,dränera,,,0,28,28,19,,,,,,,,,,,,,,,,,return,1.17302467012,,,2018_Jun_13_1344,59.1770947316,verb_norming_oral_input,001,905,
POKE,peta,trycka,knuffa,1,peta,knuffa,trycka,Leg,leg,0,29,29,51,0,0,0,0,,,,,,,,,,,1,3.295,,,,,2018_Jun_13_1344,59.1770947316,verb_norming_oral_input,001,905,
POKE,peta,trycka,knuffa,1,peta,knuffa,trycka,Arm,arm,0,29,29,51,0,1,1,1,,,,,,,,,,,7,1.536,,,,,2018_Jun_13_1344,59.1770947316,verb_norming_oral_input,001,905,
POKE,peta,trycka,knuffa,1,peta,knuffa,trycka,,,0,29,29,51,,,,,,,,,,,,,,,,,return,1.00696455926,,,2018_Jun_13_1344,59.1770947316,verb_norming_oral_input,001,905,
GLIDE,glida,hasa,snava,2,hasa,glida,snava,Leg,leg,0,30,30,25,0,0,0,0,,,,,,,,,,,4,3.926,,,,,2018_Jun_13_1344,59.1770947316,verb_norming_oral_input,001,905,
GLIDE,glida,hasa,snava,2,hasa,glida,snava,Arm,arm,0,30,30,25,0,1,1,1,,,,,,,,,,,2,5.326,,,,,2018_Jun_13_1344,59.1770947316,verb_norming_oral_input,001,905,
GLIDE,glida,hasa,snava,2,hasa,glida,snava,,,0,30,30,25,,,,,,,,,,,,,,,,,return,1.82824322973,,,2018_Jun_13_1344,59.1770947316,verb_norming_oral_input,001,905,
SLIP,halka,snava,ramla,1,halka,ramla,snava,Leg,leg,0,31,31,75,0,0,0,0,,,,,,,,,,,7,3.875,,,,,2018_Jun_13_1344,59.1770947316,verb_norming_oral_input,001,905,
SLIP,halka,snava,ramla,1,halka,ramla,snava,Arm,arm,0,31,31,75,0,1,1,1,,,,,,,,,,,4,2.309,,,,,2018_Jun_13_1344,59.1770947316,verb_norming_oral_input,001,905,
SLIP,halka,snava,ramla,1,halka,ramla,snava,,,0,31,31,75,,,,,,,,,,,,,,,,,return,1.47667700399,,,2018_Jun_13_1344,59.1770947316,verb_norming_oral_input,001,905,
TROT,trava,promenera,flanera,1,trava,promenera,flanera,Leg,leg,0,32,32,100,0,0,0,0,,,,,,,,,,,7,16.015,,,,,2018_Jun_13_1344,59.1770947316,verb_norming_oral_input,001,905,
TROT,trava,promenera,flanera,1,trava,promenera,flanera,Arm,arm,0,32,32,100,0,1,1,1,,,,,,,,,,,2,4.741,,,,,2018_Jun_13_1344,59.1770947316,verb_norming_oral_input,001,905,
TROT,trava,promenera,flanera,1,trava,promenera,flanera,,,0,32,32,100,,,,,,,,,,,,,,,,,return,27.6728470693,,,2018_Jun_13_1344,59.1770947316,verb_norming_oral_input,001,905,
HACK,hacka,skära,kåpa,2,skära,hacka,kåpa,Leg,leg,0,33,33,30,0,0,0,0,,,,,,,,,,,1,15.352,,,,,2018_Jun_13_1344,59.1770947316,verb_norming_oral_input,001,905,
HACK,hacka,skära,kåpa,2,skära,hacka,kåpa,Arm,arm,0,33,33,30,0,1,1,1,,,,,,,,,,,6,10.912,,,,,2018_Jun_13_1344,59.1770947316,verb_norming_oral_input,001,905,
HACK,hacka,skära,kåpa,2,skära,hacka,kåpa,,,0,33,33,30,,,,,,,,,,,,,,,,,return,52.7621551848,,,2018_Jun_13_1344,59.1770947316,verb_norming_oral_input,001,905,
SPRINT,spurta,springa,löpa,2,springa,spurta,löpa,Leg,leg,0,34,34,79,0,0,0,0,,,,,,,,,,,7,5.067,,,,,2018_Jun_13_1344,59.1770947316,verb_norming_oral_input,001,905,
SPRINT,spurta,springa,löpa,2,springa,spurta,löpa,Arm,arm,0,34,34,79,0,1,1,1,,,,,,,,,,,1,2.157,,,,,2018_Jun_13_1344,59.1770947316,verb_norming_oral_input,001,905,
SPRINT,spurta,springa,löpa,2,springa,spurta,löpa,,,0,34,34,79,,,,,,,,,,,,,,,,,return,2.21466425546,,,2018_Jun_13_1344,59.1770947316,verb_norming_oral_input,001,905,
CUT,skära,sticka,spetsa,1,skära,spetsa,sticka,Leg,leg,0,35,35,16,0,0,0,0,,,,,,,,,,,1,16.692,,,,,2018_Jun_13_1344,59.1770947316,verb_norming_oral_input,001,905,
CUT,skära,sticka,spetsa,1,skära,spetsa,sticka,Arm,arm,0,35,35,16,0,1,1,1,,,,,,,,,,,7,2.947,,,,,2018_Jun_13_1344,59.1770947316,verb_norming_oral_input,001,905,
CUT,skära,sticka,spetsa,1,skära,spetsa,sticka,,,0,35,35,16,,,,,,,,,,,,,,,,,return,3.92521524467,,,2018_Jun_13_1344,59.1770947316,verb_norming_oral_input,001,905,
CARVE,tälja,hacka,riva,1,tälja,hacka,riva,Leg,leg,0,36,36,5,0,0,0,0,,,,,,,,,,,1,17.306,,,,,2018_Jun_13_1344,59.1770947316,verb_norming_oral_input,001,905,
CARVE,tälja,hacka,riva,1,tälja,hacka,riva,Arm,arm,0,36,36,5,0,1,1,1,,,,,,,,,,,7,1.285,,,,,2018_Jun_13_1344,59.1770947316,verb_norming_oral_input,001,905,
CARVE,tälja,hacka,riva,1,tälja,hacka,riva,,,0,36,36,5,,,,,,,,,,,,,,,,,return,11.6058795151,,,2018_Jun_13_1344,59.1770947316,verb_norming_oral_input,001,905,
SHAKE,skaka,röra,vispa,1,skaka,röra,vispa,Leg,leg,0,37,37,69,0,0,0,0,,,,,,,,,,,2,3.758,,,,,2018_Jun_13_1344,59.1770947316,verb_norming_oral_input,001,905,
SHAKE,skaka,röra,vispa,1,skaka,röra,vispa,Arm,arm,0,37,37,69,0,1,1,1,,,,,,,,,,,7,1.067,,,,,2018_Jun_13_1344,59.1770947316,verb_norming_oral_input,001,905,
SHAKE,skaka,röra,vispa,1,skaka,röra,vispa,,,0,37,37,69,,,,,,,,,,,,,,,,,return,3.53942797132,,,2018_Jun_13_1344,59.1770947316,verb_norming_oral_input,001,905,
STRAY,ströva,vandra,promenera,1,ströva,promenera,vandra,Leg,leg,0,38,38,87,0,0,0,0,,,,,,,,,,,7,15.968,,,,,2018_Jun_13_1344,59.1770947316,verb_norming_oral_input,001,905,
STRAY,ströva,vandra,promenera,1,ströva,promenera,vandra,Arm,arm,0,38,38,87,0,1,1,1,,,,,,,,,,,1,6.501,,,,,2018_Jun_13_1344,59.1770947316,verb_norming_oral_input,001,905,
STRAY,ströva,vandra,promenera,1,ströva,promenera,vandra,,,0,38,38,87,,,,,,,,,,,,,,,,,return,19.0023418019,,,2018_Jun_13_1344,59.1770947316,verb_norming_oral_input,001,905,
SCRAPE,skrapa,rispa,klösa,3,rispa,klösa,skrapa,Leg,leg,0,39,39,64,0,0,0,0,,,,,,,,,,,1,8.064,,,,,2018_Jun_13_1344,59.1770947316,verb_norming_oral_input,001,905,
SCRAPE,skrapa,rispa,klösa,3,rispa,klösa,skrapa,Arm,arm,0,39,39,64,0,1,1,1,,,,,,,,,,,7,1.068,,,,,2018_Jun_13_1344,59.1770947316,verb_norming_oral_input,001,905,
SCRAPE,skrapa,rispa,klösa,3,rispa,klösa,skrapa,,,0,39,39,64,,,,,,,,,,,,,,,,,return,7.16183838761,,,2018_Jun_13_1344,59.1770947316,verb_norming_oral_input,001,905,
STIR,röra,sleva,vispa,2,sleva,röra,vispa,Leg,leg,0,40,40,85,0,0,0,0,,,,,,,,,,,1,8.827,,,,,2018_Jun_13_1344,59.1770947316,verb_norming_oral_input,001,905,
STIR,röra,sleva,vispa,2,sleva,röra,vispa,Arm,arm,0,40,40,85,0,1,1,1,,,,,,,,,,,7,3.902,,,,,2018_Jun_13_1344,59.1770947316,verb_norming_oral_input,001,905,
STIR,röra,sleva,vispa,2,sleva,röra,vispa,,,0,40,40,85,,,,,,,,,,,,,,,,,return,1.94619466075,,,2018_Jun_13_1344,59.1770947316,verb_norming_oral_input,001,905,
SNATCH,rycka till sig,knuffa ifrån sig,plocka åt sig,1,rycka till sig,knuffa ifrån sig,plocka åt sig,Leg,leg,0,41,41,77,0,0,0,0,,,,,,,,,,,2,12.562,,,,,2018_Jun_13_1344,59.1770947316,verb_norming_oral_input,001,905,
SNATCH,rycka till sig,knuffa ifrån sig,plocka åt sig,1,rycka till sig,knuffa ifrån sig,plocka åt sig,Arm,arm,0,41,41,77,0,1,1,1,,,,,,,,,,,7,0.782,,,,,2018_Jun_13_1344,59.1770947316,verb_norming_oral_input,001,905,
SNATCH,rycka till sig,knuffa ifrån sig,plocka åt sig,1,rycka till sig,knuffa ifrån sig,plocka åt sig,,,0,41,41,77,,,,,,,,,,,,,,,,,return,9.1073356837,,,2018_Jun_13_1344,59.1770947316,verb_norming_oral_input,001,905,
JOG,jogga,spurta,rusa,3,rusa,spurta,jogga,Leg,leg,0,42,42,34,0,0,0,0,,,,,,,,,,,7,2.938,,,,,2018_Jun_13_1344,59.1770947316,verb_norming_oral_input,001,905,
JOG,jogga,spurta,rusa,3,rusa,spurta,jogga,Arm,arm,0,42,42,34,0,1,1,1,,,,,,,,,,,3,2.393,,,,,2018_Jun_13_1344,59.1770947316,verb_norming_oral_input,001,905,
JOG,jogga,spurta,rusa,3,rusa,spurta,jogga,,,0,42,42,34,,,,,,,,,,,,,,,,,return,1.62768944711,,,2018_Jun_13_1344,59.1770947316,verb_norming_oral_input,001,905,
POLISH,polera,sopa,tvätta,1,polera,sopa,tvätta,Leg,leg,0,43,43,52,0,0,0,0,,,,,,,,,,,1,3.023,,,,,2018_Jun_13_1344,59.1770947316,verb_norming_oral_input,001,905,
POLISH,polera,sopa,tvätta,1,polera,sopa,tvätta,Arm,arm,0,43,43,52,0,1,1,1,,,,,,,,,,,7,0.832,,,,,2018_Jun_13_1344,59.1770947316,verb_norming_oral_input,001,905,
POLISH,polera,sopa,tvätta,1,polera,sopa,tvätta,,,0,43,43,52,,,,,,,,,,,,,,,,,return,2.51598940638,,,2018_Jun_13_1344,59.1770947316,verb_norming_oral_input,001,905,
TWINE,tvinna,binda,knyta,2,binda,tvinna,knyta,Leg,leg,0,44,44,103,0,0,0,0,,,,,,,,,,,1,11.672,,,,,2018_Jun_13_1344,59.1770947316,verb_norming_oral_input,001,905,
TWINE,tvinna,binda,knyta,2,binda,tvinna,knyta,Arm,arm,0,44,44,103,0,1,1,1,,,,,,,,,,,7,4.455,,,,,2018_Jun_13_1344,59.1770947316,verb_norming_oral_input,001,905,
TWINE,tvinna,binda,knyta,2,binda,tvinna,knyta,,,0,44,44,103,,,,,,,,,,,,,,,,,return,7.27946741094,,,2018_Jun_13_1344,59.1770947316,verb_norming_oral_input,001,905,
STEP,gå,klampa,traska,2,klampa,gå,traska,Leg,leg,0,45,45,84,0,0,0,0,,,,,,,,,,,7,7.368,,,,,2018_Jun_13_1344,59.1770947316,verb_norming_oral_input,001,905,
STEP,gå,klampa,traska,2,klampa,gå,traska,Arm,arm,0,45,45,84,0,1,1,1,,,,,,,,,,,1,29.579,,,,,2018_Jun_13_1344,59.1770947316,verb_norming_oral_input,001,905,
STEP,gå,klampa,traska,2,klampa,gå,traska,,,0,45,45,84,,,,,,,,,,,,,,,,,return,4.22710974544,,,2018_Jun_13_1344,59.1770947316,verb_norming_oral_input,001,905,
CLAW,klösa,nypa,rispa,2,rispa,klösa,nypa,Leg,leg,0,46,46,9,0,0,0,0,,,,,,,,,,,1,8.618,,,,,2018_Jun_13_1344,59.1770947316,verb_norming_oral_input,001,905,
CLAW,klösa,nypa,rispa,2,rispa,klösa,nypa,Arm,arm,0,46,46,9,0,1,1,1,,,,,,,,,,,7,5.177,,,,,2018_Jun_13_1344,59.1770947316,verb_norming_oral_input,001,905,
CLAW,klösa,nypa,rispa,2,rispa,klösa,nypa,,,0,46,46,9,,,,,,,,,,,,,,,,,return,1.69462223183,,,2018_Jun_13_1344,59.1770947316,verb_norming_oral_input,001,905,
SCUFF,hasa sig fram,dra sig fram,kasta sig fram,3,kasta sig fram,dra sig fram,hasa sig fram,Leg,leg,0,47,47,67,0,0,0,0,,,,,,,,,,,1,3.958,,,,,2018_Jun_13_1344,59.1770947316,verb_norming_oral_input,001,905,
SCUFF,hasa sig fram,dra sig fram,kasta sig fram,3,kasta sig fram,dra sig fram,hasa sig fram,Arm,arm,0,47,47,67,0,1,1,1,,,,,,,,,,,7,0.68,,,,,2018_Jun_13_1344,59.1770947316,verb_norming_oral_input,001,905,
SCUFF,hasa sig fram,dra sig fram,kasta sig fram,3,kasta sig fram,dra sig fram,hasa sig fram,,,0,47,47,67,,,,,,,,,,,,,,,,,return,14.3230947819,,,2018_Jun_13_1344,59.1770947316,verb_norming_oral_input,001,905,
RAMBLE,ströva,strutta,spurta,2,strutta,ströva,spurta,Leg,leg,0,48,48,57,0,0,0,0,,,,,,,,,,,4,4.978,,,,,2018_Jun_13_1344,59.1770947316,verb_norming_oral_input,001,905,
RAMBLE,ströva,strutta,spurta,2,strutta,ströva,spurta,Arm,arm,0,48,48,57,0,1,1,1,,,,,,,,,,,4,1.334,,,,,2018_Jun_13_1344,59.1770947316,verb_norming_oral_input,001,905,
RAMBLE,ströva,strutta,spurta,2,strutta,ströva,spurta,,,0,48,48,57,,,,,,,,,,,,,,,,,return,16.2180400536,,,2018_Jun_13_1344,59.1770947316,verb_norming_oral_input,001,905,
TOSS,slänga,fånga,gripa,2,fånga,slänga,gripa,Leg,leg,0,49,49,96,0,0,0,0,,,,,,,,,,,1,5.835,,,,,2018_Jun_13_1344,59.1770947316,verb_norming_oral_input,001,905,
TOSS,slänga,fånga,gripa,2,fånga,slänga,gripa,Arm,arm,0,49,49,96,0,1,1,1,,,,,,,,,,,7,1.739,,,,,2018_Jun_13_1344,59.1770947316,verb_norming_oral_input,001,905,
TOSS,slänga,fånga,gripa,2,fånga,slänga,gripa,,,0,49,49,96,,,,,,,,,,,,,,,,,return,1.22457394574,,,2018_Jun_13_1344,59.1770947316,verb_norming_oral_input,001,905,
RUSH,rusa,springa,löpa,1,rusa,löpa,springa,Leg,leg,0,50,50,62,0,0,0,0,,,,,,,,,,,7,4.645,,,,,2018_Jun_13_1344,59.1770947316,verb_norming_oral_input,001,905,
RUSH,rusa,springa,löpa,1,rusa,löpa,springa,Arm,arm,0,50,50,62,0,1,1,1,,,,,,,,,,,1,1.152,,,,,2018_Jun_13_1344,59.1770947316,verb_norming_oral_input,001,905,
RUSH,rusa,springa,löpa,1,rusa,löpa,springa,,,0,50,50,62,,,,,,,,,,,,,,,,,return,2.44938298043,,,2018_Jun_13_1344,59.1770947316,verb_norming_oral_input,001,905,
BIND,binda,linda,vinda,3,linda,vinda,binda,Leg,leg,0,51,51,1,0,0,0,0,,,,,,,,,,,1,5.025,,,,,2018_Jun_13_1344,59.1770947316,verb_norming_oral_input,001,905,
BIND,binda,linda,vinda,3,linda,vinda,binda,Arm,arm,0,51,51,1,0,1,1,1,,,,,,,,,,,7,1.2,,,,,2018_Jun_13_1344,59.1770947316,verb_norming_oral_input,001,905,
BIND,binda,linda,vinda,3,linda,vinda,binda,,,0,51,51,1,,,,,,,,,,,,,,,,,return,1.09080912872,,,2018_Jun_13_1344,59.1770947316,verb_norming_oral_input,001,905,
SQUEEZE,klämma,knuffa,knäppa,1,klämma,knuffa,knäppa,Leg,leg,0,52,52,80,0,0,0,0,,,,,,,,,,,1,5.716,,,,,2018_Jun_13_1344,59.1770947316,verb_norming_oral_input,001,905,
SQUEEZE,klämma,knuffa,knäppa,1,klämma,knuffa,knäppa,Arm,arm,0,52,52,80,0,1,1,1,,,,,,,,,,,7,0.561,,,,,2018_Jun_13_1344,59.1770947316,verb_norming_oral_input,001,905,
SQUEEZE,klämma,knuffa,knäppa,1,klämma,knuffa,knäppa,,,0,52,52,80,,,,,,,,,,,,,,,,,return,1.05742175786,,,2018_Jun_13_1344,59.1770947316,verb_norming_oral_input,001,905,
LIMP,halta,hasa,halka,3,hasa,halka,halta,Leg,leg,0,53,53,41,0,0,0,0,,,,,,,,,,,7,3.825,,,,,2018_Jun_13_1344,59.1770947316,verb_norming_oral_input,001,905,
LIMP,halta,hasa,halka,3,hasa,halka,halta,Arm,arm,0,53,53,41,0,1,1,1,,,,,,,,,,,1,0.666,,,,,2018_Jun_13_1344,59.1770947316,verb_norming_oral_input,001,905,
LIMP,halta,hasa,halka,3,hasa,halka,halta,,,0,53,53,41,,,,,,,,,,,,,,,,,return,5.43453444685,,,2018_Jun_13_1344,59.1770947316,verb_norming_oral_input,001,905,
KNEEL,knäböja,krypa,kräla,1,knäböja,krypa,kräla,Leg,leg,0,54,54,37,0,0,0,0,,,,,,,,,,,7,6.041,,,,,2018_Jun_13_1344,59.1770947316,verb_norming_oral_input,001,905,
KNEEL,knäböja,krypa,kräla,1,knäböja,krypa,kräla,Arm,arm,0,54,54,37,0,1,1,1,,,,,,,,,,,1,3.73,,,,,2018_Jun_13_1344,59.1770947316,verb_norming_oral_input,001,905,
KNEEL,knäböja,krypa,kräla,1,knäböja,krypa,kräla,,,0,54,54,37,,,,,,,,,,,,,,,,,return,5.70277132326,,,2018_Jun_13_1344,59.1770947316,verb_norming_oral_input,001,905,
STROLL,strosa,trava,marschera,1,strosa,marschera,trava,Leg,leg,0,55,55,89,0,0,0,0,,,,,,,,,,,7,7.4,,,,,2018_Jun_13_1344,59.1770947316,verb_norming_oral_input,001,905,
STROLL,strosa,trava,marschera,1,strosa,marschera,trava,Arm,arm,0,55,55,89,0,1,1,1,,,,,,,,,,,1,2.727,,,,,2018_Jun_13_1344,59.1770947316,verb_norming_oral_input,001,905,
STROLL,strosa,trava,marschera,1,strosa,marschera,trava,,,0,55,55,89,,,,,,,,,,,,,,,,,return,1.17469913554,,,2018_Jun_13_1344,59.1770947316,verb_norming_oral_input,001,905,
FLIT,rusa,hasa,svassa,1,rusa,svassa,hasa,Leg,leg,0,56,56,23,0,0,0,0,,,,,,,,,,,4,9.156,,,,,2018_Jun_13_1344,59.1770947316,verb_norming_oral_input,001,905,
FLIT,rusa,hasa,svassa,1,rusa,svassa,hasa,Arm,arm,0,56,56,23,0,1,1,1,,,,,,,,,,,4,0.447,,,,,2018_Jun_13_1344,59.1770947316,verb_norming_oral_input,001,905,
FLIT,rusa,hasa,svassa,1,rusa,svassa,hasa,,,0,56,56,23,,,,,,,,,,,,,,,,,return,2.381697516,,,2018_Jun_13_1344,59.1770947316,verb_norming_oral_input,001,905,
BRUSH,borsta,skrubba,putsa,3,skrubba,putsa,borsta,Leg,leg,0,57,57,4,0,0,0,0,,,,,,,,,,,1,9.346,,,,,2018_Jun_13_1344,59.1770947316,verb_norming_oral_input,001,905,
BRUSH,borsta,skrubba,putsa,3,skrubba,putsa,borsta,Arm,arm,0,57,57,4,0,1,1,1,,,,,,,,,,,7,3.248,,,,,2018_Jun_13_1344,59.1770947316,verb_norming_oral_input,001,905,
BRUSH,borsta,skrubba,putsa,3,skrubba,putsa,borsta,,,0,57,57,4,,,,,,,,,,,,,,,,,return,10.7006946384,,,2018_Jun_13_1344,59.1770947316,verb_norming_oral_input,001,905,
SWITCH,slå på/av,knäppa,nypa,2,knäppa,slå på/av,nypa,Leg,leg,0,58,58,93,0,0,0,0,,,,,,,,,,,1,5.774,,,,,2018_Jun_13_1344,59.1770947316,verb_norming_oral_input,001,905,
SWITCH,slå på/av,knäppa,nypa,2,knäppa,slå på/av,nypa,Arm,arm,0,58,58,93,0,1,1,1,,,,,,,,,,,7,0.866,,,,,2018_Jun_13_1344,59.1770947316,verb_norming_oral_input,001,905,
SWITCH,slå på/av,knäppa,nypa,2,knäppa,slå på/av,nypa,,,0,58,58,93,,,,,,,,,,,,,,,,,return,1.17469795022,,,2018_Jun_13_1344,59.1770947316,verb_norming_oral_input,001,905,
STUMBLE,snubbla,glida,svaja,2,glida,snubbla,svaja,Leg,leg,0,59,59,91,0,0,0,0,,,,,,,,,,,6,32.874,,,,,2018_Jun_13_1344,59.1770947316,verb_norming_oral_input,001,905,
STUMBLE,snubbla,glida,svaja,2,glida,snubbla,svaja,Arm,arm,0,59,59,91,0,1,1,1,,,,,,,,,,,1,3.599,,,,,2018_Jun_13_1344,59.1770947316,verb_norming_oral_input,001,905,
STUMBLE,snubbla,glida,svaja,2,glida,snubbla,svaja,,,0,59,59,91,,,,,,,,,,,,,,,,,return,49.9443744007,,,2018_Jun_13_1344,59.1770947316,verb_norming_oral_input,001,905,
SKATE,åka skridskor,åka skidor,åka kälke,2,åka skidor,åka skridskor,åka kälke,Leg,leg,0,60,60,70,0,0,0,0,,,,,,,,,,,7,4.899,,,,,2018_Jun_13_1344,59.1770947316,verb_norming_oral_input,001,905,
SKATE,åka skridskor,åka skidor,åka kälke,2,åka skidor,åka skridskor,åka kälke,Arm,arm,0,60,60,70,0,1,1,1,,,,,,,,,,,3,8.38,,,,,2018_Jun_13_1344,59.1770947316,verb_norming_oral_input,001,905,
SKATE,åka skridskor,åka skidor,åka kälke,2,åka skidor,åka skridskor,åka kälke,,,0,60,60,70,,,,,,,,,,,,,,,,,return,7.51414741539,,,2018_Jun_13_1344,59.1770947316,verb_norming_oral_input,001,905,
MOUNT,gå uppför,ströva runt,kliva över,2,ströva runt,gå uppför,kliva över,Leg,leg,0,61,61,43,0,0,0,0,,,,,,,,,,,7,4.581,,,,,2018_Jun_13_1344,59.1770947316,verb_norming_oral_input,001,905,
MOUNT,gå uppför,ströva runt,kliva över,2,ströva runt,gå uppför,kliva över,Arm,arm,0,61,61,43,0,1,1,1,,,,,,,,,,,4,3.415,,,,,2018_Jun_13_1344,59.1770947316,verb_norming_oral_input,001,905,
MOUNT,gå uppför,ströva runt,kliva över,2,ströva runt,gå uppför,kliva över,,,0,61,61,43,,,,,,,,,,,,,,,,,return,8.16832328641,,,2018_Jun_13_1344,59.1770947316,verb_norming_oral_input,001,905,
SCRUB,skrubba,sopa,skrapa,1,skrubba,skrapa,sopa,Leg,leg,0,62,62,66,0,0,0,0,,,,,,,,,,,1,12.968,,,,,2018_Jun_13_1344,59.1770947316,verb_norming_oral_input,001,905,
SCRUB,skrubba,sopa,skrapa,1,skrubba,skrapa,sopa,Arm,arm,0,62,62,66,0,1,1,1,,,,,,,,,,,7,1.352,,,,,2018_Jun_13_1344,59.1770947316,verb_norming_oral_input,001,905,
SCRUB,skrubba,sopa,skrapa,1,skrubba,skrapa,sopa,,,0,62,62,66,,,,,,,,,,,,,,,,,return,5.66938869368,,,2018_Jun_13_1344,59.1770947316,verb_norming_oral_input,001,905,
DUNK,dunka,dumpa,dunsa,2,dumpa,dunka,dunsa,Leg,leg,0,63,63,20,0,0,0,0,,,,,,,,,,,7,17.489,,,,,2018_Jun_13_1344,59.1770947316,verb_norming_oral_input,001,905,
DUNK,dunka,dumpa,dunsa,2,dumpa,dunka,dunsa,Arm,arm,0,63,63,20,0,1,1,1,,,,,,,,,,,7,1.201,,,,,2018_Jun_13_1344,59.1770947316,verb_norming_oral_input,001,905,
DUNK,dunka,dumpa,dunsa,2,dumpa,dunka,dunsa,,,0,63,63,20,,,,,,,,,,,,,,,,,return,10.4994395401,,,2018_Jun_13_1344,59.1770947316,verb_norming_oral_input,001,905,
PULL,dra,slänga,släpa,2,släpa,dra,slänga,Leg,leg,0,64,64,54,0,0,0,0,,,,,,,,,,,4,7.92,,,,,2018_Jun_13_1344,59.1770947316,verb_norming_oral_input,001,905,
PULL,dra,slänga,släpa,2,släpa,dra,slänga,Arm,arm,0,64,64,54,0,1,1,1,,,,,,,,,,,7,0.532,,,,,2018_Jun_13_1344,59.1770947316,verb_norming_oral_input,001,905,
PULL,dra,slänga,släpa,2,släpa,dra,slänga,,,0,64,64,54,,,,,,,,,,,,,,,,,return,1.97989930291,,,2018_Jun_13_1344,59.1770947316,verb_norming_oral_input,001,905,
STRUT,svassa,lunka,strosa,1,svassa,strosa,lunka,Leg,leg,0,65,65,90,0,0,0,0,,,,,,,,,,,7,8.821,,,,,2018_Jun_13_1344,59.1770947316,verb_norming_oral_input,001,905,
STRUT,svassa,lunka,strosa,1,svassa,strosa,lunka,Arm,arm,0,65,65,90,0,1,1,1,,,,,,,,,,,4,3.516,,,,,2018_Jun_13_1344,59.1770947316,verb_norming_oral_input,001,905,
STRUT,svassa,lunka,strosa,1,svassa,strosa,lunka,,,0,65,65,90,,,,,,,,,,,,,,,,,return,11.187021352,,,2018_Jun_13_1344,59.1770947316,verb_norming_oral_input,001,905,
KNOCK,knacka,krocka,klicka,3,krocka,klicka,knacka,Leg,leg,0,66,66,38,0,0,0,0,,,,,,,,,,,2,10.432,,,,,2018_Jun_13_1344,59.1770947316,verb_norming_oral_input,001,905,
KNOCK,knacka,krocka,klicka,3,krocka,klicka,knacka,Arm,arm,0,66,66,38,0,1,1,1,,,,,,,,,,,7,0.716,,,,,2018_Jun_13_1344,59.1770947316,verb_norming_oral_input,001,905,
KNOCK,knacka,krocka,klicka,3,krocka,klicka,knacka,,,0,66,66,38,,,,,,,,,,,,,,,,,return,4.91464849067,,,2018_Jun_13_1344,59.1770947316,verb_norming_oral_input,001,905,
GRAB,gripa tag i,fästa ihop,smälla till,1,gripa tag i,fästa ihop,smälla till,Leg,leg,0,67,67,26,0,0,0,0,,,,,,,,,,,2,7.815,,,,,2018_Jun_13_1344,59.1770947316,verb_norming_oral_input,001,905,
GRAB,gripa tag i,fästa ihop,smälla till,1,gripa tag i,fästa ihop,smälla till,Arm,arm,0,67,67,26,0,1,1,1,,,,,,,,,,,7,0.666,,,,,2018_Jun_13_1344,59.1770947316,verb_norming_oral_input,001,905,
GRAB,gripa tag i,fästa ihop,smälla till,1,gripa tag i,fästa ihop,smälla till,,,0,67,67,26,,,,,,,,,,,,,,,,,return,2.26480655341,,,2018_Jun_13_1344,59.1770947316,verb_norming_oral_input,001,905,
CATCH,fånga,krama,omfamna,2,krama,fånga,omfamna,Leg,leg,0,68,68,6,0,0,0,0,,,,,,,,,,,1,4.51,,,,,2018_Jun_13_1344,59.1770947316,verb_norming_oral_input,001,905,
CATCH,fånga,krama,omfamna,2,krama,fånga,omfamna,Arm,arm,0,68,68,6,0,1,1,1,,,,,,,,,,,7,1.051,,,,,2018_Jun_13_1344,59.1770947316,verb_norming_oral_input,001,905,
CATCH,fånga,krama,omfamna,2,krama,fånga,omfamna,,,0,68,68,6,,,,,,,,,,,,,,,,,return,2.36552695285,,,2018_Jun_13_1344,59.1770947316,verb_norming_oral_input,001,905,
SLAP,smälla till,knäppa fast,klämma åt,1,smälla till,knäppa fast,klämma åt,Leg,leg,0,69,69,73,0,0,0,0,,,,,,,,,,,1,20.446,,,,,2018_Jun_13_1344,59.1770947316,verb_norming_oral_input,001,905,
SLAP,smälla till,knäppa fast,klämma åt,1,smälla till,knäppa fast,klämma åt,Arm,arm,0,69,69,73,0,1,1,1,,,,,,,,,,,7,1.538,,,,,2018_Jun_13_1344,59.1770947316,verb_norming_oral_input,001,905,
SLAP,smälla till,knäppa fast,klämma åt,1,smälla till,knäppa fast,klämma åt,,,0,69,69,73,,,,,,,,,,,,,,,,,return,2.55002751924,,,2018_Jun_13_1344,59.1770947316,verb_norming_oral_input,001,905,
BOUNCE,studsa,dunka,kasta,3,kasta,dunka,studsa,Leg,leg,0,70,70,2,0,0,0,0,,,,,,,,,,,7,8.082,,,,,2018_Jun_13_1344,59.1770947316,verb_norming_oral_input,001,905,
BOUNCE,studsa,dunka,kasta,3,kasta,dunka,studsa,Arm,arm,0,70,70,2,0,1,1,1,,,,,,,,,,,3,0.832,,,,,2018_Jun_13_1344,59.1770947316,verb_norming_oral_input,001,905,
BOUNCE,studsa,dunka,kasta,3,kasta,dunka,studsa,,,0,70,70,2,,,,,,,,,,,,,,,,,return,4.73028147061,,,2018_Jun_13_1344,59.1770947316,verb_norming_oral_input,001,905,
STOMP,stampa,stiga,kliva,1,stampa,stiga,kliva,Leg,leg,0,71,71,86,0,0,0,0,,,,,,,,,,,7,3.621,,,,,2018_Jun_13_1344,59.1770947316,verb_norming_oral_input,001,905,
STOMP,stampa,stiga,kliva,1,stampa,stiga,kliva,Arm,arm,0,71,71,86,0,1,1,1,,,,,,,,,,,1,0.917,,,,,2018_Jun_13_1344,59.1770947316,verb_norming_oral_input,001,905,
STOMP,stampa,stiga,kliva,1,stampa,stiga,kliva,,,0,71,71,86,,,,,,,,,,,,,,,,,return,1.35934194062,,,2018_Jun_13_1344,59.1770947316,verb_norming_oral_input,001,905,
CLEAN,rengöra,rensa,plocka,2,plocka,rengöra,rensa,Leg,leg,0,72,72,10,0,0,0,0,,,,,,,,,,,1,8.337,,,,,2018_Jun_13_1344,59.1770947316,verb_norming_oral_input,001,905,
CLEAN,rengöra,rensa,plocka,2,plocka,rengöra,rensa,Arm,arm,0,72,72,10,0,1,1,1,,,,,,,,,,,7,0.832,,,,,2018_Jun_13_1344,59.1770947316,verb_norming_oral_input,001,905,
CLEAN,rengöra,rensa,plocka,2,plocka,rengöra,rensa,,,0,72,72,10,,,,,,,,,,,,,,,,,return,1.19158405299,,,2018_Jun_13_1344,59.1770947316,verb_norming_oral_input,001,905,
BASH,slå,knuffa,trycka,3,trycka,knuffa,slå,Leg,leg,0,73,73,0,0,0,0,0,,,,,,,,,,,1,6.662,,,,,2018_Jun_13_1344,59.1770947316,verb_norming_oral_input,001,905,
BASH,slå,knuffa,trycka,3,trycka,knuffa,slå,Arm,arm,0,73,73,0,0,1,1,1,,,,,,,,,,,7,4.221,,,,,2018_Jun_13_1344,59.1770947316,verb_norming_oral_input,001,905,
BASH,slå,knuffa,trycka,3,trycka,knuffa,slå,,,0,73,73,0,,,,,,,,,,,,,,,,,return,5.63602265862,,,2018_Jun_13_1344,59.1770947316,verb_norming_oral_input,001,905,
TUG,rycka,pressa,slå,2,pressa,rycka,slå,Leg,leg,0,74,74,102,0,0,0,0,,,,,,,,,,,1,17.444,,,,,2018_Jun_13_1344,59.1770947316,verb_norming_oral_input,001,905,
TUG,rycka,pressa,slå,2,pressa,rycka,slå,Arm,arm,0,74,74,102,0,1,1,1,,,,,,,,,,,7,0.666,,,,,2018_Jun_13_1344,59.1770947316,verb_norming_oral_input,001,905,
TUG,rycka,pressa,slå,2,pressa,rycka,slå,,,0,74,74,102,,,,,,,,,,,,,,,,,return,4.15938911645,,,2018_Jun_13_1344,59.1770947316,verb_norming_oral_input,001,905,
TRIP,snubbla,stampa,stappla,2,stampa,snubbla,stappla,Leg,leg,0,75,75,99,0,0,0,0,,,,,,,,,,,7,2.483,,,,,2018_Jun_13_1344,59.1770947316,verb_norming_oral_input,001,905,
TRIP,snubbla,stampa,stappla,2,stampa,snubbla,stappla,Arm,arm,0,75,75,99,0,1,1,1,,,,,,,,,,,1,0.951,,,,,2018_Jun_13_1344,59.1770947316,verb_norming_oral_input,001,905,
TRIP,snubbla,stampa,stappla,2,stampa,snubbla,stappla,,,0,75,75,99,,,,,,,,,,,,,,,,,return,2.85174343144,,,2018_Jun_13_1344,59.1770947316,verb_norming_oral_input,001,905,
SKIM,skumma,vispa,sleva,3,vispa,sleva,skumma,Leg,leg,0,76,76,71,0,0,0,0,,,,,,,,,,,1,7.174,,,,,2018_Jun_13_1344,59.1770947316,verb_norming_oral_input,001,905,
SKIM,skumma,vispa,sleva,3,vispa,sleva,skumma,Arm,arm,0,76,76,71,0,1,1,1,,,,,,,,,,,7,1.655,,,,,2018_Jun_13_1344,59.1770947316,verb_norming_oral_input,001,905,
SKIM,skumma,vispa,sleva,3,vispa,sleva,skumma,,,0,76,76,71,,,,,,,,,,,,,,,,,return,1.17466476119,,,2018_Jun_13_1344,59.1770947316,verb_norming_oral_input,001,905,
FLEE,fly,lyfta,flyga,1,fly,lyfta,flyga,Leg,leg,0,77,77,22,0,0,0,0,,,,,,,,,,,7,4.901,,,,,2018_Jun_13_1344,59.1770947316,verb_norming_oral_input,001,905,
FLEE,fly,lyfta,flyga,1,fly,lyfta,flyga,Arm,arm,0,77,77,22,0,1,1,1,,,,,,,,,,,2,1.219,,,,,2018_Jun_13_1344,59.1770947316,verb_norming_oral_input,001,905,
FLEE,fly,lyfta,flyga,1,fly,lyfta,flyga,,,0,77,77,22,,,,,,,,,,,,,,,,,return,1.1581899653,,,2018_Jun_13_1344,59.1770947316,verb_norming_oral_input,001,905,
PINCH,nypa,plocka,pensla,3,pensla,plocka,nypa,Leg,leg,0,78,78,48,0,0,0,0,,,,,,,,,,,1,5.331,,,,,2018_Jun_13_1344,59.1770947316,verb_norming_oral_input,001,905,
PINCH,nypa,plocka,pensla,3,pensla,plocka,nypa,Arm,arm,0,78,78,48,0,1,1,1,,,,,,,,,,,7,0.481,,,,,2018_Jun_13_1344,59.1770947316,verb_norming_oral_input,001,905,
PINCH,nypa,plocka,pensla,3,pensla,plocka,nypa,,,0,78,78,48,,,,,,,,,,,,,,,,,return,1.22467351283,,,2018_Jun_13_1344,59.1770947316,verb_norming_oral_input,001,905,
MARCH,marschera,trava,traska,2,trava,marschera,traska,Leg,leg,0,79,79,42,0,0,0,0,,,,,,,,,,,7,3.474,,,,,2018_Jun_13_1344,59.1770947316,verb_norming_oral_input,001,905,
MARCH,marschera,trava,traska,2,trava,marschera,traska,Arm,arm,0,79,79,42,0,1,1,1,,,,,,,,,,,4,1.403,,,,,2018_Jun_13_1344,59.1770947316,verb_norming_oral_input,001,905,
MARCH,marschera,trava,traska,2,trava,marschera,traska,,,0,79,79,42,,,,,,,,,,,,,,,,,return,1.12455802291,,,2018_Jun_13_1344,59.1770947316,verb_norming_oral_input,001,905,
SLITHER,hasa,glida,trilla,2,trilla,hasa,glida,Leg,leg,0,80,80,76,0,0,0,0,,,,,,,,,,,4,13.046,,,,,2018_Jun_13_1344,59.1770947316,verb_norming_oral_input,001,905,
SLITHER,hasa,glida,trilla,2,trilla,hasa,glida,Arm,arm,0,80,80,76,0,1,1,1,,,,,,,,,,,4,56.242,,,,,2018_Jun_13_1344,59.1770947316,verb_norming_oral_input,001,905,
SLITHER,hasa,glida,trilla,2,trilla,hasa,glida,,,0,80,80,76,,,,,,,,,,,,,,,,,return,46.7078089434,,,2018_Jun_13_1344,59.1770947316,verb_norming_oral_input,001,905,
LIFT,lyfta,pressa,öka,2,pressa,lyfta,öka,Leg,leg,0,81,81,40,0,0,0,0,,,,,,,,,,,3,5.906,,,,,2018_Jun_13_1344,59.1770947316,verb_norming_oral_input,001,905,
LIFT,lyfta,pressa,öka,2,pressa,lyfta,öka,Arm,arm,0,81,81,40,0,1,1,1,,,,,,,,,,,7,0.532,,,,,2018_Jun_13_1344,59.1770947316,verb_norming_oral_input,001,905,
LIFT,lyfta,pressa,öka,2,pressa,lyfta,öka,,,0,81,81,40,,,,,,,,,,,,,,,,,return,1.392756969,,,2018_Jun_13_1344,59.1770947316,verb_norming_oral_input,001,905,
WANDER,vandra,marschera,spatsera,3,spatsera,marschera,vandra,Leg,leg,0,82,82,106,0,0,0,0,,,,,,,,,,,7,4.327,,,,,2018_Jun_13_1344,59.1770947316,verb_norming_oral_input,001,905,
WANDER,vandra,marschera,spatsera,3,spatsera,marschera,vandra,Arm,arm,0,82,82,106,0,1,1,1,,,,,,,,,,,3,0.462,,,,,2018_Jun_13_1344,59.1770947316,verb_norming_oral_input,001,905,
WANDER,vandra,marschera,spatsera,3,spatsera,marschera,vandra,,,0,82,82,106,,,,,,,,,,,,,,,,,return,1.30855838325,,,2018_Jun_13_1344,59.1770947316,verb_norming_oral_input,001,905,
CRAWL,kravla,huka,klättra,2,huka,kravla,klättra,Leg,leg,0,83,83,14,0,0,0,0,,,,,,,,,,,5,4.431,,,,,2018_Jun_13_1344,59.1770947316,verb_norming_oral_input,001,905,
CRAWL,kravla,huka,klättra,2,huka,kravla,klättra,Arm,arm,0,83,83,14,0,1,1,1,,,,,,,,,,,5,1.52,,,,,2018_Jun_13_1344,59.1770947316,verb_norming_oral_input,001,905,
CRAWL,kravla,huka,klättra,2,huka,kravla,klättra,,,0,83,83,14,,,,,,,,,,,,,,,,,return,16.1512305424,,,2018_Jun_13_1344,59.1770947316,verb_norming_oral_input,001,905,
FOLD,vika ihop,knyta ihop,bunta ihop,3,knyta ihop,bunta ihop,vika ihop,Leg,leg,0,84,84,24,0,0,0,0,,,,,,,,,,,1,6.105,,,,,2018_Jun_13_1344,59.1770947316,verb_norming_oral_input,001,905,
FOLD,vika ihop,knyta ihop,bunta ihop,3,knyta ihop,bunta ihop,vika ihop,Arm,arm,0,84,84,24,0,1,1,1,,,,,,,,,,,7,1.234,,,,,2018_Jun_13_1344,59.1770947316,verb_norming_oral_input,001,905,
FOLD,vika ihop,knyta ihop,bunta ihop,3,knyta ihop,bunta ihop,vika ihop,,,0,84,84,24,,,,,,,,,,,,,,,,,return,0.973534911893,,,2018_Jun_13_1344,59.1770947316,verb_norming_oral_input,001,905,
STRIDE,kliva,tassa,lunka,3,tassa,lunka,kliva,Leg,leg,0,85,85,88,0,0,0,0,,,,,,,,,,,4,8.151,,,,,2018_Jun_13_1344,59.1770947316,verb_norming_oral_input,001,905,
STRIDE,kliva,tassa,lunka,3,tassa,lunka,kliva,Arm,arm,0,85,85,88,0,1,1,1,,,,,,,,,,,4,0.729,,,,,2018_Jun_13_1344,59.1770947316,verb_norming_oral_input,001,905,
STRIDE,kliva,tassa,lunka,3,tassa,lunka,kliva,,,0,85,85,88,,,,,,,,,,,,,,,,,return,1.34208404173,,,2018_Jun_13_1344,59.1770947316,verb_norming_oral_input,001,905,
BRAID,fläta,knyta,binda,2,binda,fläta,knyta,Leg,leg,0,86,86,3,0,0,0,0,,,,,,,,,,,1,7.427,,,,,2018_Jun_13_1344,59.1770947316,verb_norming_oral_input,001,905,
BRAID,fläta,knyta,binda,2,binda,fläta,knyta,Arm,arm,0,86,86,3,0,1,1,1,,,,,,,,,,,7,0.462,,,,,2018_Jun_13_1344,59.1770947316,verb_norming_oral_input,001,905,
BRAID,fläta,knyta,binda,2,binda,fläta,knyta,,,0,86,86,3,,,,,,,,,,,,,,,,,return,1.07409292216,,,2018_Jun_13_1344,59.1770947316,verb_norming_oral_input,001,905,
PUNCH,slå,knuffa,kasta,1,slå,kasta,knuffa,Leg,leg,0,87,87,55,0,0,0,0,,,,,,,,,,,2,3.705,,,,,2018_Jun_13_1344,59.1770947316,verb_norming_oral_input,001,905,
PUNCH,slå,knuffa,kasta,1,slå,kasta,knuffa,Arm,arm,0,87,87,55,0,1,1,1,,,,,,,,,,,7,0.933,,,,,2018_Jun_13_1344,59.1770947316,verb_norming_oral_input,001,905,
PUNCH,slå,knuffa,kasta,1,slå,kasta,knuffa,,,0,87,87,55,,,,,,,,,,,,,,,,,return,1.42634465935,,,2018_Jun_13_1344,59.1770947316,verb_norming_oral_input,001,905,
STAGGER,ragla,lunka,halka,2,lunka,ragla,halka,Leg,leg,0,88,88,82,0,0,0,0,,,,,,,,,,,4,19.385,,,,,2018_Jun_13_1344,59.1770947316,verb_norming_oral_input,001,905,
STAGGER,ragla,lunka,halka,2,lunka,ragla,halka,Arm,arm,0,88,88,82,0,1,1,1,,,,,,,,,,,4,0.563,,,,,2018_Jun_13_1344,59.1770947316,verb_norming_oral_input,001,905,
STAGGER,ragla,lunka,halka,2,lunka,ragla,halka,,,0,88,88,82,,,,,,,,,,,,,,,,,return,1.34243884823,,,2018_Jun_13_1344,59.1770947316,verb_norming_oral_input,001,905,
CLIMB,klättra,kliva,krypa,2,kliva,klättra,krypa,Leg,leg,0,89,89,12,0,0,0,0,,,,,,,,,,,7,7.397,,,,,2018_Jun_13_1344,59.1770947316,verb_norming_oral_input,001,905,
CLIMB,klättra,kliva,krypa,2,kliva,klättra,krypa,Arm,arm,0,89,89,12,0,1,1,1,,,,,,,,,,,7,1.487,,,,,2018_Jun_13_1344,59.1770947316,verb_norming_oral_input,001,905,
CLIMB,klättra,kliva,krypa,2,kliva,klättra,krypa,,,0,89,89,12,,,,,,,,,,,,,,,,,return,0.822492835714,,,2018_Jun_13_1344,59.1770947316,verb_norming_oral_input,001,905,
WRAP,slå in,slå ihop,slå till,3,slå ihop,slå till,slå in,Leg,leg,0,90,90,111,0,0,0,0,,,,,,,,,,,1,5.372,,,,,2018_Jun_13_1344,59.1770947316,verb_norming_oral_input,001,905,
WRAP,slå in,slå ihop,slå till,3,slå ihop,slå till,slå in,Arm,arm,0,90,90,111,0,1,1,1,,,,,,,,,,,7,12.255,,,,,2018_Jun_13_1344,59.1770947316,verb_norming_oral_input,001,905,
WRAP,slå in,slå ihop,slå till,3,slå ihop,slå till,slå in,,,0,90,90,111,,,,,,,,,,,,,,,,,return,2.3823379852,,,2018_Jun_13_1344,59.1770947316,verb_norming_oral_input,001,905,
CHOP,hacka,tälja,riva,2,tälja,hacka,riva,Leg,leg,0,91,91,7,0,0,0,0,,,,,,,,,,,1,1.843,,,,,2018_Jun_13_1344,59.1770947316,verb_norming_oral_input,001,905,
CHOP,hacka,tälja,riva,2,tälja,hacka,riva,Arm,arm,0,91,91,7,0,1,1,1,,,,,,,,,,,7,0.464,,,,,2018_Jun_13_1344,59.1770947316,verb_norming_oral_input,001,905,
CHOP,hacka,tälja,riva,2,tälja,hacka,riva,,,0,91,91,7,,,,,,,,,,,,,,,,,return,0.79020346849,,,2018_Jun_13_1344,59.1770947316,verb_norming_oral_input,001,905,
PLUCK,plocka,rensa,picka,1,plocka,picka,rensa,Leg,leg,0,92,92,50,0,0,0,0,,,,,,,,,,,1,3.955,,,,,2018_Jun_13_1344,59.1770947316,verb_norming_oral_input,001,905,
PLUCK,plocka,rensa,picka,1,plocka,picka,rensa,Arm,arm,0,92,92,50,0,1,1,1,,,,,,,,,,,7,0.43,,,,,2018_Jun_13_1344,59.1770947316,verb_norming_oral_input,001,905,
PLUCK,plocka,rensa,picka,1,plocka,picka,rensa,,,0,92,92,50,,,,,,,,,,,,,,,,,return,1.35921550623,,,2018_Jun_13_1344,59.1770947316,verb_norming_oral_input,001,905,
SWAY,vingla,tassa,ramla,1,vingla,ramla,tassa,Leg,leg,0,93,93,92,0,0,0,0,,,,,,,,,,,6,13.184,,,,,2018_Jun_13_1344,59.1770947316,verb_norming_oral_input,001,905,
SWAY,vingla,tassa,ramla,1,vingla,ramla,tassa,Arm,arm,0,93,93,92,0,1,1,1,,,,,,,,,,,3,37.076,,,,,2018_Jun_13_1344,59.1770947316,verb_norming_oral_input,001,905,
SWAY,vingla,tassa,ramla,1,vingla,ramla,tassa,,,0,93,93,92,,,,,,,,,,,,,,,,,return,3.5562883921,,,2018_Jun_13_1344,59.1770947316,verb_norming_oral_input,001,905,
INCH,röra sig långsamt framåt,dra sig snabbt tillbaka,hasa sig bakåt,3,dra sig snabbt tillbaka,hasa sig bakåt,röra sig långsamt framåt,Leg,leg,0,94,94,33,0,0,0,0,,,,,,,,,,,7,16.218,,,,,2018_Jun_13_1344,59.1770947316,verb_norming_oral_input,001,905,
INCH,röra sig långsamt framåt,dra sig snabbt tillbaka,hasa sig bakåt,3,dra sig snabbt tillbaka,hasa sig bakåt,röra sig långsamt framåt,Arm,arm,0,94,94,33,0,1,1,1,,,,,,,,,,,1,0.614,,,,,2018_Jun_13_1344,59.1770947316,verb_norming_oral_input,001,905,
INCH,röra sig långsamt framåt,dra sig snabbt tillbaka,hasa sig bakåt,3,dra sig snabbt tillbaka,hasa sig bakåt,röra sig långsamt framåt,,,0,94,94,33,,,,,,,,,,,,,,,,,return,2.26459398559,,,2018_Jun_13_1344,59.1770947316,verb_norming_oral_input,001,905,
PLOD,lunka,pulsa,vingla,2,pulsa,lunka,vingla,Leg,leg,0,95,95,49,0,0,0,0,,,,,,,,,,,4,4.917,,,,,2018_Jun_13_1344,59.1770947316,verb_norming_oral_input,001,905,
PLOD,lunka,pulsa,vingla,2,pulsa,lunka,vingla,Arm,arm,0,95,95,49,0,1,1,1,,,,,,,,,,,4,1.284,,,,,2018_Jun_13_1344,59.1770947316,verb_norming_oral_input,001,905,
PLOD,lunka,pulsa,vingla,2,pulsa,lunka,vingla,,,0,95,95,49,,,,,,,,,,,,,,,,,return,1.2925837934,,,2018_Jun_13_1344,59.1770947316,verb_norming_oral_input,001,905,
WIPE,torka,putsa,gnugga,3,gnugga,putsa,torka,Leg,leg,0,96,96,109,0,0,0,0,,,,,,,,,,,1,2.698,,,,,2018_Jun_13_1344,59.1770947316,verb_norming_oral_input,001,905,
WIPE,torka,putsa,gnugga,3,gnugga,putsa,torka,Arm,arm,0,96,96,109,0,1,1,1,,,,,,,,,,,7,0.548,,,,,2018_Jun_13_1344,59.1770947316,verb_norming_oral_input,001,905,
WIPE,torka,putsa,gnugga,3,gnugga,putsa,torka,,,0,96,96,109,,,,,,,,,,,,,,,,,return,2.49969122352,,,2018_Jun_13_1344,59.1770947316,verb_norming_oral_input,001,905,
PACE,gå fram och tillbaka,luffa runt,rusa fram,1,gå fram och tillbaka,rusa fram,luffa runt,Leg,leg,0,97,97,45,0,0,0,0,,,,,,,,,,,7,8.155,,,,,2018_Jun_13_1344,59.1770947316,verb_norming_oral_input,001,905,
PACE,gå fram och tillbaka,luffa runt,rusa fram,1,gå fram och tillbaka,rusa fram,luffa runt,Arm,arm,0,97,97,45,0,1,1,1,,,,,,,,,,,1,0.917,,,,,2018_Jun_13_1344,59.1770947316,verb_norming_oral_input,001,905,
PACE,gå fram och tillbaka,luffa runt,rusa fram,1,gå fram och tillbaka,rusa fram,luffa runt,,,0,97,97,45,,,,,,,,,,,,,,,,,return,11.1869237605,,,2018_Jun_13_1344,59.1770947316,verb_norming_oral_input,001,905,
FILE,fila,putsa,riva,2,riva,fila,putsa,Leg,leg,0,98,98,21,0,0,0,0,,,,,,,,,,,1,11.421,,,,,2018_Jun_13_1344,59.1770947316,verb_norming_oral_input,001,905,
FILE,fila,putsa,riva,2,riva,fila,putsa,Arm,arm,0,98,98,21,0,1,1,1,,,,,,,,,,,7,1.034,,,,,2018_Jun_13_1344,59.1770947316,verb_norming_oral_input,001,905,
FILE,fila,putsa,riva,2,riva,fila,putsa,,,0,98,98,21,,,,,,,,,,,,,,,,,return,13.4677321661,,,2018_Jun_13_1344,59.1770947316,verb_norming_oral_input,001,905,
SCOOP,skyffla,dika,skrapa,1,skyffla,skrapa,dika,Leg,leg,0,99,99,63,0,0,0,0,,,,,,,,,,,1,9.795,,,,,2018_Jun_13_1344,59.1770947316,verb_norming_oral_input,001,905,
SCOOP,skyffla,dika,skrapa,1,skyffla,skrapa,dika,Arm,arm,0,99,99,63,0,1,1,1,,,,,,,,,,,7,1.654,,,,,2018_Jun_13_1344,59.1770947316,verb_norming_oral_input,001,905,
SCOOP,skyffla,dika,skrapa,1,skyffla,skrapa,dika,,,0,99,99,63,,,,,,,,,,,,,,,,,return,4.39490042699,,,2018_Jun_13_1344,59.1770947316,verb_norming_oral_input,001,905,
SLIDE,glida,ramla,hasa,1,glida,ramla,hasa,Leg,leg,0,100,100,74,0,0,0,0,,,,,,,,,,,6,21.914,,,,,2018_Jun_13_1344,59.1770947316,verb_norming_oral_input,001,905,
SLIDE,glida,ramla,hasa,1,glida,ramla,hasa,Arm,arm,0,100,100,74,0,1,1,1,,,,,,,,,,,1,0.798,,,,,2018_Jun_13_1344,59.1770947316,verb_norming_oral_input,001,905,
SLIDE,glida,ramla,hasa,1,glida,ramla,hasa,,,0,100,100,74,,,,,,,,,,,,,,,,,return,11.4218819206,,,2018_Jun_13_1344,59.1770947316,verb_norming_oral_input,001,905,
TRUDGE,släpa sig fram,kasta sig fram,ta sig fram,1,släpa sig fram,ta sig fram,kasta sig fram,Leg,leg,0,101,101,101,0,0,0,0,,,,,,,,,,,6,4.513,,,,,2018_Jun_13_1344,59.1770947316,verb_norming_oral_input,001,905,
TRUDGE,släpa sig fram,kasta sig fram,ta sig fram,1,släpa sig fram,ta sig fram,kasta sig fram,Arm,arm,0,101,101,101,0,1,1,1,,,,,,,,,,,1,0.512,,,,,2018_Jun_13_1344,59.1770947316,verb_norming_oral_input,001,905,
TRUDGE,släpa sig fram,kasta sig fram,ta sig fram,1,släpa sig fram,ta sig fram,kasta sig fram,,,0,101,101,101,,,,,,,,,,,,,,,,,return,1.32575938667,,,2018_Jun_13_1344,59.1770947316,verb_norming_oral_input,001,905,
DELVE,gräva,plöja,rensa,1,gräva,plöja,rensa,Leg,leg,0,102,102,18,0,0,0,0,,,,,,,,,,,4,13.262,,,,,2018_Jun_13_1344,59.1770947316,verb_norming_oral_input,001,905,
DELVE,gräva,plöja,rensa,1,gräva,plöja,rensa,Arm,arm,0,102,102,18,0,1,1,1,,,,,,,,,,,4,1.352,,,,,2018_Jun_13_1344,59.1770947316,verb_norming_oral_input,001,905,
DELVE,gräva,plöja,rensa,1,gräva,plöja,rensa,,,0,102,102,18,,,,,,,,,,,,,,,,,return,0.621202177676,,,2018_Jun_13_1344,59.1770947316,verb_norming_oral_input,001,905,
CLICK,klicka,klappa,klämma,2,klappa,klicka,klämma,Leg,leg,0,103,103,11,0,0,0,0,,,,,,,,,,,1,2.263,,,,,2018_Jun_13_1344,59.1770947316,verb_norming_oral_input,001,905,
CLICK,klicka,klappa,klämma,2,klappa,klicka,klämma,Arm,arm,0,103,103,11,0,1,1,1,,,,,,,,,,,7,2.542,,,,,2018_Jun_13_1344,59.1770947316,verb_norming_oral_input,001,905,
CLICK,klicka,klappa,klämma,2,klappa,klicka,klämma,,,0,103,103,11,,,,,,,,,,,,,,,,,return,5.33387054778,,,2018_Jun_13_1344,59.1770947316,verb_norming_oral_input,001,905,
HOP,skutta,kliva,studsa,2,kliva,skutta,studsa,Leg,leg,0,104,104,32,0,0,0,0,,,,,,,,,,,7,5.938,,,,,2018_Jun_13_1344,59.1770947316,verb_norming_oral_input,001,905,
HOP,skutta,kliva,studsa,2,kliva,skutta,studsa,Arm,arm,0,104,104,32,0,1,1,1,,,,,,,,,,,1,1.169,,,,,2018_Jun_13_1344,59.1770947316,verb_norming_oral_input,001,905,
HOP,skutta,kliva,studsa,2,kliva,skutta,studsa,,,0,104,104,32,,,,,,,,,,,,,,,,,return,1.5084148012,,,2018_Jun_13_1344,59.1770947316,verb_norming_oral_input,001,905,
JUMP,hoppa,kliva,lyfta,3,kliva,lyfta,hoppa,Leg,leg,0,105,105,35,0,0,0,0,,,,,,,,,,,7,6.965,,,,,2018_Jun_13_1344,59.1770947316,verb_norming_oral_input,001,905,
JUMP,hoppa,kliva,lyfta,3,kliva,lyfta,hoppa,Arm,arm,0,105,105,35,0,1,1,1,,,,,,,,,,,2,0.899,,,,,2018_Jun_13_1344,59.1770947316,verb_norming_oral_input,001,905,
JUMP,hoppa,kliva,lyfta,3,kliva,lyfta,hoppa,,,0,105,105,35,,,,,,,,,,,,,,,,,return,0.638050745232,,,2018_Jun_13_1344,59.1770947316,verb_norming_oral_input,001,905,
WASH,tvätta,skura,sopa,3,sopa,skura,tvätta,Leg,leg,0,106,106,107,0,0,0,0,,,,,,,,,,,1,4.13,,,,,2018_Jun_13_1344,59.1770947316,verb_norming_oral_input,001,905,
WASH,tvätta,skura,sopa,3,sopa,skura,tvätta,Arm,arm,0,106,106,107,0,1,1,1,,,,,,,,,,,7,1.135,,,,,2018_Jun_13_1344,59.1770947316,verb_norming_oral_input,001,905,
WASH,tvätta,skura,sopa,3,sopa,skura,tvätta,,,0,106,106,107,,,,,,,,,,,,,,,,,return,0.990294185163,,,2018_Jun_13_1344,59.1770947316,verb_norming_oral_input,001,905,
NIP,nypa,peta,nudda,1,nypa,peta,nudda,Leg,leg,0,107,107,44,0,0,0,0,,,,,,,,,,,1,14.812,,,,,2018_Jun_13_1344,59.1770947316,verb_norming_oral_input,001,905,
NIP,nypa,peta,nudda,1,nypa,peta,nudda,Arm,arm,0,107,107,44,0,1,1,1,,,,,,,,,,,7,1.387,,,,,2018_Jun_13_1344,59.1770947316,verb_norming_oral_input,001,905,
NIP,nypa,peta,nudda,1,nypa,peta,nudda,,,0,107,107,44,,,,,,,,,,,,,,,,,return,2.03022730137,,,2018_Jun_13_1344,59.1770947316,verb_norming_oral_input,001,905,
WHIP,piska,klappa,slå,3,slå,klappa,piska,Leg,leg,0,108,108,108,0,0,0,0,,,,,,,,,,,1,3.536,,,,,2018_Jun_13_1344,59.1770947316,verb_norming_oral_input,001,905,
WHIP,piska,klappa,slå,3,slå,klappa,piska,Arm,arm,0,108,108,108,0,1,1,1,,,,,,,,,,,7,1.655,,,,,2018_Jun_13_1344,59.1770947316,verb_norming_oral_input,001,905,
WHIP,piska,klappa,slå,3,slå,klappa,piska,,,0,108,108,108,,,,,,,,,,,,,,,,,return,0.940062592923,,,2018_Jun_13_1344,59.1770947316,verb_norming_oral_input,001,905,
CLAP,klappa,knäppa,klämma,3,klämma,knäppa,klappa,Leg,leg,0,109,109,8,0,0,0,0,,,,,,,,,,,1,5.3,,,,,2018_Jun_13_1344,59.1770947316,verb_norming_oral_input,001,905,
CLAP,klappa,knäppa,klämma,3,klämma,knäppa,klappa,Arm,arm,0,109,109,8,0,1,1,1,,,,,,,,,,,7,7.877,,,,,2018_Jun_13_1344,59.1770947316,verb_norming_oral_input,001,905,
CLAP,klappa,knäppa,klämma,3,klämma,knäppa,klappa,,,0,109,109,8,,,,,,,,,,,,,,,,,return,4.3613739783,,,2018_Jun_13_1344,59.1770947316,verb_norming_oral_input,001,905,
SNEAK,smyga,hasa,glida,2,glida,smyga,hasa,Leg,leg,0,110,110,78,0,0,0,0,,,,,,,,,,,5,15.533,,,,,2018_Jun_13_1344,59.1770947316,verb_norming_oral_input,001,905,
SNEAK,smyga,hasa,glida,2,glida,smyga,hasa,Arm,arm,0,110,110,78,0,1,1,1,,,,,,,,,,,4,0.464,,,,,2018_Jun_13_1344,59.1770947316,verb_norming_oral_input,001,905,
SNEAK,smyga,hasa,glida,2,glida,smyga,hasa,,,0,110,110,78,,,,,,,,,,,,,,,,,return,0.923308456051,,,2018_Jun_13_1344,59.1770947316,verb_norming_oral_input,001,905,
TRAIPSE,traska,stappla,vandra,2,stappla,traska,vandra,Leg,leg,0,111,111,97,0,0,0,0,,,,,,,,,,,4,2.784,,,,,2018_Jun_13_1344,59.1770947316,verb_norming_oral_input,001,905,
TRAIPSE,traska,stappla,vandra,2,stappla,traska,vandra,Arm,arm,0,111,111,97,0,1,1,1,,,,,,,,,,,4,0.848,,,,,2018_Jun_13_1344,59.1770947316,verb_norming_oral_input,001,905,
TRAIPSE,traska,stappla,vandra,2,stappla,traska,vandra,,,0,111,111,97,,,,,,,,,,,,,,,,,return,2.46616516993,,,2018_Jun_13_1344,59.1770947316,verb_norming_oral_input,001,905,
,,,,,,,,,,,,,,,,,,,,,,,,,,,,,,,,space,14.1722384063,2018_Jun_13_1344,59.1770947316,verb_norming_oral_input,001,905,
