word,target,distrOne,distrTwo,corrAns,w1,w2,w3,category,category_lowercase,trials.thisRepN,trials.thisTrialN,trials.thisN,trials.thisIndex,armleg_loop.thisRepN,armleg_loop.thisTrialN,armleg_loop.thisN,armleg_loop.thisIndex,key_resp_9.keys,key_resp_9.rt,key_resp_2.keys,key_resp_2.rt,key_resp_3.keys,key_resp_3.rt,key_resp_4.keys,key_resp_4.rt,key_resp_6.keys,key_resp_6.rt,key_resp_5.keys,key_resp_5.rt,rating.response,rating.rt,key_resp_7.keys,key_resp_7.rt,key_resp_8.keys,key_resp_8.rt,date,frameRate,expName,session,participant,
,,,,,,,,,,,,,,,,,,space,36.9633337377,,,,,,,,,,,,,,,,,2018_Jun_14_1448,59.6487213268,verb_norming_oral_input,001,906,
,,,,,,,,,,,,,,,,,,,,space,5.51803502023,,,,,,,,,,,,,,,2018_Jun_14_1448,59.6487213268,verb_norming_oral_input,001,906,
,,,,,,,,,,,,,,,,,,,,,,space,48.8380931647,,,,,,,,,,,,,2018_Jun_14_1448,59.6487213268,verb_norming_oral_input,001,906,
,,,,,,,,,,,,,,,,,,,,,,,,space,15.8992602345,,,,,,,,,,,2018_Jun_14_1448,59.6487213268,verb_norming_oral_input,001,906,
,,,,,,,,,,,,,,,,,,,,,,,,,,space,22.3058689331,,,,,,,,,2018_Jun_14_1448,59.6487213268,verb_norming_oral_input,001,906,
,,,,,,,,,,,,,,,,,,,,,,,,,,,,space,6.12177545312,,,,,,,2018_Jun_14_1448,59.6487213268,verb_norming_oral_input,001,906,
ROAM,ströva omkring,ta sig fram,luffa runt,1,ströva omkring,luffa runt,ta sig fram,Arm,arm,0,0,0,58,0,0,0,0,,,,,,,,,,,,,2,22.784,,,,,2018_Jun_14_1448,59.6487213268,verb_norming_oral_input,001,906,
ROAM,ströva omkring,ta sig fram,luffa runt,1,ströva omkring,luffa runt,ta sig fram,Leg,leg,0,0,0,58,0,1,1,1,,,,,,,,,,,,,5,5.329,,,,,2018_Jun_14_1448,59.6487213268,verb_norming_oral_input,001,906,
ROAM,ströva omkring,ta sig fram,luffa runt,1,ströva omkring,luffa runt,ta sig fram,,,0,0,0,58,,,,,,,,,,,,,,,,,,,return,18.0293112788,,,2018_Jun_14_1448,59.6487213268,verb_norming_oral_input,001,906,
JUMP,hoppa,kliva,lyfta,2,kliva,hoppa,lyfta,Arm,arm,0,1,1,35,0,0,0,0,,,,,,,,,,,,,1,7.907,,,,,2018_Jun_14_1448,59.6487213268,verb_norming_oral_input,001,906,
JUMP,hoppa,kliva,lyfta,2,kliva,hoppa,lyfta,Leg,leg,0,1,1,35,0,1,1,1,,,,,,,,,,,,,7,5.413,,,,,2018_Jun_14_1448,59.6487213268,verb_norming_oral_input,001,906,
JUMP,hoppa,kliva,lyfta,2,kliva,hoppa,lyfta,,,0,1,1,35,,,,,,,,,,,,,,,,,,,return,4.93106979747,,,2018_Jun_14_1448,59.6487213268,verb_norming_oral_input,001,906,
STRIDE,kliva,tassa,lunka,1,kliva,tassa,lunka,Arm,arm,0,2,2,88,0,0,0,0,,,,,,,,,,,,,1,12.869,,,,,2018_Jun_14_1448,59.6487213268,verb_norming_oral_input,001,906,
STRIDE,kliva,tassa,lunka,1,kliva,tassa,lunka,Leg,leg,0,2,2,88,0,1,1,1,,,,,,,,,,,,,7,1.806,,,,,2018_Jun_14_1448,59.6487213268,verb_norming_oral_input,001,906,
STRIDE,kliva,tassa,lunka,1,kliva,tassa,lunka,,,0,2,2,88,,,,,,,,,,,,,,,,,,,return,6.82614185971,,,2018_Jun_14_1448,59.6487213268,verb_norming_oral_input,001,906,
SCRAPE,skrapa,rispa,klösa,2,klösa,skrapa,rispa,Arm,arm,0,3,3,64,0,0,0,0,,,,,,,,,,,,,5,29.307,,,,,2018_Jun_14_1448,59.6487213268,verb_norming_oral_input,001,906,
SCRAPE,skrapa,rispa,klösa,2,klösa,skrapa,rispa,Leg,leg,0,3,3,64,0,1,1,1,,,,,,,,,,,,,5,1.589,,,,,2018_Jun_14_1448,59.6487213268,verb_norming_oral_input,001,906,
SCRAPE,skrapa,rispa,klösa,2,klösa,skrapa,rispa,,,0,3,3,64,,,,,,,,,,,,,,,,,,,return,4.07571741217,,,2018_Jun_14_1448,59.6487213268,verb_norming_oral_input,001,906,
SCRATCH,repa,riva,klösa,2,klösa,repa,riva,Arm,arm,0,4,4,65,0,0,0,0,,,,,,,,,,,,,6,14.112,,,,,2018_Jun_14_1448,59.6487213268,verb_norming_oral_input,001,906,
SCRATCH,repa,riva,klösa,2,klösa,repa,riva,Leg,leg,0,4,4,65,0,1,1,1,,,,,,,,,,,,,1,5.294,,,,,2018_Jun_14_1448,59.6487213268,verb_norming_oral_input,001,906,
SCRATCH,repa,riva,klösa,2,klösa,repa,riva,,,0,4,4,65,,,,,,,,,,,,,,,,,,,return,3.15337244665,,,2018_Jun_14_1448,59.6487213268,verb_norming_oral_input,001,906,
LEAP,hoppa,stega,kliva,2,kliva,hoppa,stega,Arm,arm,0,5,5,39,0,0,0,0,,,,,,,,,,,,,1,15.003,,,,,2018_Jun_14_1448,59.6487213268,verb_norming_oral_input,001,906,
LEAP,hoppa,stega,kliva,2,kliva,hoppa,stega,Leg,leg,0,5,5,39,0,1,1,1,,,,,,,,,,,,,7,1.17,,,,,2018_Jun_14_1448,59.6487213268,verb_norming_oral_input,001,906,
LEAP,hoppa,stega,kliva,2,kliva,hoppa,stega,,,0,5,5,39,,,,,,,,,,,,,,,,,,,return,4.66278022725,,,2018_Jun_14_1448,59.6487213268,verb_norming_oral_input,001,906,
SPRINT,spurta,springa,löpa,1,spurta,löpa,springa,Arm,arm,0,6,6,79,0,0,0,0,,,,,,,,,,,,,3,10.219,,,,,2018_Jun_14_1448,59.6487213268,verb_norming_oral_input,001,906,
SPRINT,spurta,springa,löpa,1,spurta,löpa,springa,Leg,leg,0,6,6,79,0,1,1,1,,,,,,,,,,,,,7,7.02,,,,,2018_Jun_14_1448,59.6487213268,verb_norming_oral_input,001,906,
SPRINT,spurta,springa,löpa,1,spurta,löpa,springa,,,0,6,6,79,,,,,,,,,,,,,,,,,,,return,11.3712277311,,,2018_Jun_14_1448,59.6487213268,verb_norming_oral_input,001,906,
STEP,gå,klampa,traska,1,gå,klampa,traska,Arm,arm,0,7,7,84,0,0,0,0,,,,,,,,,,,,,1,7.64,,,,,2018_Jun_14_1448,59.6487213268,verb_norming_oral_input,001,906,
STEP,gå,klampa,traska,1,gå,klampa,traska,Leg,leg,0,7,7,84,0,1,1,1,,,,,,,,,,,,,7,0.6,,,,,2018_Jun_14_1448,59.6487213268,verb_norming_oral_input,001,906,
STEP,gå,klampa,traska,1,gå,klampa,traska,,,0,7,7,84,,,,,,,,,,,,,,,,,,,return,12.159397488,,,2018_Jun_14_1448,59.6487213268,verb_norming_oral_input,001,906,
BASH,slå,knuffa,trycka,1,slå,trycka,knuffa,Arm,arm,0,8,8,0,0,0,0,0,,,,,,,,,,,,,7,5.125,,,,,2018_Jun_14_1448,59.6487213268,verb_norming_oral_input,001,906,
BASH,slå,knuffa,trycka,1,slå,trycka,knuffa,Leg,leg,0,8,8,0,0,1,1,1,,,,,,,,,,,,,1,7.057,,,,,2018_Jun_14_1448,59.6487213268,verb_norming_oral_input,001,906,
BASH,slå,knuffa,trycka,1,slå,trycka,knuffa,,,0,8,8,0,,,,,,,,,,,,,,,,,,,return,4.71308491677,,,2018_Jun_14_1448,59.6487213268,verb_norming_oral_input,001,906,
WASH,tvätta,skura,sopa,2,sopa,tvätta,skura,Arm,arm,0,9,9,107,0,0,0,0,,,,,,,,,,,,,6,12.588,,,,,2018_Jun_14_1448,59.6487213268,verb_norming_oral_input,001,906,
WASH,tvätta,skura,sopa,2,sopa,tvätta,skura,Leg,leg,0,9,9,107,0,1,1,1,,,,,,,,,,,,,1,1.874,,,,,2018_Jun_14_1448,59.6487213268,verb_norming_oral_input,001,906,
WASH,tvätta,skura,sopa,2,sopa,tvätta,skura,,,0,9,9,107,,,,,,,,,,,,,,,,,,,return,3.89118614963,,,2018_Jun_14_1448,59.6487213268,verb_norming_oral_input,001,906,
KICK,sparka,knäa,tåa,1,sparka,knäa,tåa,Arm,arm,0,10,10,36,0,0,0,0,,,,,,,,,,,,,1,3.599,,,,,2018_Jun_14_1448,59.6487213268,verb_norming_oral_input,001,906,
KICK,sparka,knäa,tåa,1,sparka,knäa,tåa,Leg,leg,0,10,10,36,0,1,1,1,,,,,,,,,,,,,7,0.6,,,,,2018_Jun_14_1448,59.6487213268,verb_norming_oral_input,001,906,
KICK,sparka,knäa,tåa,1,sparka,knäa,tåa,,,0,10,10,36,,,,,,,,,,,,,,,,,,,return,4.8639183828,,,2018_Jun_14_1448,59.6487213268,verb_norming_oral_input,001,906,
DIG,gräva,dränera,dika,1,gräva,dränera,dika,Arm,arm,0,11,11,19,0,0,0,0,,,,,,,,,,,,,7,6.531,,,,,2018_Jun_14_1448,59.6487213268,verb_norming_oral_input,001,906,
DIG,gräva,dränera,dika,1,gräva,dränera,dika,Leg,leg,0,11,11,19,0,1,1,1,,,,,,,,,,,,,3,2.377,,,,,2018_Jun_14_1448,59.6487213268,verb_norming_oral_input,001,906,
DIG,gräva,dränera,dika,1,gräva,dränera,dika,,,0,11,11,19,,,,,,,,,,,,,,,,,,,return,2.66701067628,,,2018_Jun_14_1448,59.6487213268,verb_norming_oral_input,001,906,
GRIP,gripa om,hålla om,kasta om,3,hålla om,kasta om,gripa om,Arm,arm,0,12,12,29,0,0,0,0,,,,,,,,,,,,,7,5.543,,,,,2018_Jun_14_1448,59.6487213268,verb_norming_oral_input,001,906,
GRIP,gripa om,hålla om,kasta om,3,hålla om,kasta om,gripa om,Leg,leg,0,12,12,29,0,1,1,1,,,,,,,,,,,,,3,3.299,,,,,2018_Jun_14_1448,59.6487213268,verb_norming_oral_input,001,906,
GRIP,gripa om,hålla om,kasta om,3,hålla om,kasta om,gripa om,,,0,12,12,29,,,,,,,,,,,,,,,,,,,return,3.10311991172,,,2018_Jun_14_1448,59.6487213268,verb_norming_oral_input,001,906,
KNEEL,knäböja,krypa,kräla,3,kräla,krypa,knäböja,Arm,arm,0,13,13,37,0,0,0,0,,,,,,,,,,,,,1,6.063,,,,,2018_Jun_14_1448,59.6487213268,verb_norming_oral_input,001,906,
KNEEL,knäböja,krypa,kräla,3,kräla,krypa,knäböja,Leg,leg,0,13,13,37,0,1,1,1,,,,,,,,,,,,,7,1.369,,,,,2018_Jun_14_1448,59.6487213268,verb_norming_oral_input,001,906,
KNEEL,knäböja,krypa,kräla,3,kräla,krypa,knäböja,,,0,13,13,37,,,,,,,,,,,,,,,,,,,return,5.61877083468,,,2018_Jun_14_1448,59.6487213268,verb_norming_oral_input,001,906,
BOUNCE,studsa,dunka,kasta,2,kasta,studsa,dunka,Arm,arm,0,14,14,2,0,0,0,0,,,,,,,,,,,,,2,7.789,,,,,2018_Jun_14_1448,59.6487213268,verb_norming_oral_input,001,906,
BOUNCE,studsa,dunka,kasta,2,kasta,studsa,dunka,Leg,leg,0,14,14,2,0,1,1,1,,,,,,,,,,,,,7,2.492,,,,,2018_Jun_14_1448,59.6487213268,verb_norming_oral_input,001,906,
BOUNCE,studsa,dunka,kasta,2,kasta,studsa,dunka,,,0,14,14,2,,,,,,,,,,,,,,,,,,,return,3.0695414386,,,2018_Jun_14_1448,59.6487213268,verb_norming_oral_input,001,906,
FOLD,vika ihop,knyta ihop,bunta ihop,1,vika ihop,bunta ihop,knyta ihop,Arm,arm,0,15,15,24,0,0,0,0,,,,,,,,,,,,,5,9.871,,,,,2018_Jun_14_1448,59.6487213268,verb_norming_oral_input,001,906,
FOLD,vika ihop,knyta ihop,bunta ihop,1,vika ihop,bunta ihop,knyta ihop,Leg,leg,0,15,15,24,0,1,1,1,,,,,,,,,,,,,1,1.891,,,,,2018_Jun_14_1448,59.6487213268,verb_norming_oral_input,001,906,
FOLD,vika ihop,knyta ihop,bunta ihop,1,vika ihop,bunta ihop,knyta ihop,,,0,15,15,24,,,,,,,,,,,,,,,,,,,return,3.23723071732,,,2018_Jun_14_1448,59.6487213268,verb_norming_oral_input,001,906,
SLIP,halka,snava,ramla,3,ramla,snava,halka,Arm,arm,0,16,16,75,0,0,0,0,,,,,,,,,,,,,2,14.114,,,,,2018_Jun_14_1448,59.6487213268,verb_norming_oral_input,001,906,
SLIP,halka,snava,ramla,3,ramla,snava,halka,Leg,leg,0,16,16,75,0,1,1,1,,,,,,,,,,,,,7,1.387,,,,,2018_Jun_14_1448,59.6487213268,verb_norming_oral_input,001,906,
SLIP,halka,snava,ramla,3,ramla,snava,halka,,,0,16,16,75,,,,,,,,,,,,,,,,,,,return,2.59992722063,,,2018_Jun_14_1448,59.6487213268,verb_norming_oral_input,001,906,
LIFT,lyfta,pressa,öka,1,lyfta,öka,pressa,Arm,arm,0,17,17,40,0,0,0,0,,,,,,,,,,,,,6,15.959,,,,,2018_Jun_14_1448,59.6487213268,verb_norming_oral_input,001,906,
LIFT,lyfta,pressa,öka,1,lyfta,öka,pressa,Leg,leg,0,17,17,40,0,1,1,1,,,,,,,,,,,,,4,2.797,,,,,2018_Jun_14_1448,59.6487213268,verb_norming_oral_input,001,906,
LIFT,lyfta,pressa,öka,1,lyfta,öka,pressa,,,0,17,17,40,,,,,,,,,,,,,,,,,,,return,5.09878357304,,,2018_Jun_14_1448,59.6487213268,verb_norming_oral_input,001,906,
STROLL,strosa,trava,marschera,2,marschera,strosa,trava,Arm,arm,0,18,18,89,0,0,0,0,,,,,,,,,,,,,1,9.552,,,,,2018_Jun_14_1448,59.6487213268,verb_norming_oral_input,001,906,
STROLL,strosa,trava,marschera,2,marschera,strosa,trava,Leg,leg,0,18,18,89,0,1,1,1,,,,,,,,,,,,,7,6.686,,,,,2018_Jun_14_1448,59.6487213268,verb_norming_oral_input,001,906,
STROLL,strosa,trava,marschera,2,marschera,strosa,trava,,,0,18,18,89,,,,,,,,,,,,,,,,,,,return,6.35643795164,,,2018_Jun_14_1448,59.6487213268,verb_norming_oral_input,001,906,
TOSS,slänga,fånga,gripa,1,slänga,gripa,fånga,Arm,arm,0,19,19,96,0,0,0,0,,,,,,,,,,,,,7,4.404,,,,,2018_Jun_14_1448,59.6487213268,verb_norming_oral_input,001,906,
TOSS,slänga,fånga,gripa,1,slänga,gripa,fånga,Leg,leg,0,19,19,96,0,1,1,1,,,,,,,,,,,,,1,2.276,,,,,2018_Jun_14_1448,59.6487213268,verb_norming_oral_input,001,906,
TOSS,slänga,fånga,gripa,1,slänga,gripa,fånga,,,0,19,19,96,,,,,,,,,,,,,,,,,,,return,2.66705808955,,,2018_Jun_14_1448,59.6487213268,verb_norming_oral_input,001,906,
PAT,klappa,slå,borsta,1,klappa,slå,borsta,Arm,arm,0,20,20,46,0,0,0,0,,,,,,,,,,,,,7,4.354,,,,,2018_Jun_14_1448,59.6487213268,verb_norming_oral_input,001,906,
PAT,klappa,slå,borsta,1,klappa,slå,borsta,Leg,leg,0,20,20,46,0,1,1,1,,,,,,,,,,,,,1,1.858,,,,,2018_Jun_14_1448,59.6487213268,verb_norming_oral_input,001,906,
PAT,klappa,slå,borsta,1,klappa,slå,borsta,,,0,20,20,46,,,,,,,,,,,,,,,,,,,return,2.21419893107,,,2018_Jun_14_1448,59.6487213268,verb_norming_oral_input,001,906,
SCOOP,skyffla,dika,skrapa,2,dika,skyffla,skrapa,Arm,arm,0,21,21,63,0,0,0,0,,,,,,,,,,,,,6,10.726,,,,,2018_Jun_14_1448,59.6487213268,verb_norming_oral_input,001,906,
SCOOP,skyffla,dika,skrapa,2,dika,skyffla,skrapa,Leg,leg,0,21,21,63,0,1,1,1,,,,,,,,,,,,,1,15.123,,,,,2018_Jun_14_1448,59.6487213268,verb_norming_oral_input,001,906,
SCOOP,skyffla,dika,skrapa,2,dika,skyffla,skrapa,,,0,21,21,63,,,,,,,,,,,,,,,,,,,return,19.1697628191,,,2018_Jun_14_1448,59.6487213268,verb_norming_oral_input,001,906,
SHAKE,skaka,röra,vispa,2,vispa,skaka,röra,Arm,arm,0,22,22,69,0,0,0,0,,,,,,,,,,,,,7,6.097,,,,,2018_Jun_14_1448,59.6487213268,verb_norming_oral_input,001,906,
SHAKE,skaka,röra,vispa,2,vispa,skaka,röra,Leg,leg,0,22,22,69,0,1,1,1,,,,,,,,,,,,,4,1.186,,,,,2018_Jun_14_1448,59.6487213268,verb_norming_oral_input,001,906,
SHAKE,skaka,röra,vispa,2,vispa,skaka,röra,,,0,22,22,69,,,,,,,,,,,,,,,,,,,return,3.40505947007,,,2018_Jun_14_1448,59.6487213268,verb_norming_oral_input,001,906,
STAB,sticka,hacka,skära,2,hacka,sticka,skära,Arm,arm,0,23,23,81,0,0,0,0,,,,,,,,,,,,,6,6.014,,,,,2018_Jun_14_1448,59.6487213268,verb_norming_oral_input,001,906,
STAB,sticka,hacka,skära,2,hacka,sticka,skära,Leg,leg,0,23,23,81,0,1,1,1,,,,,,,,,,,,,1,1.319,,,,,2018_Jun_14_1448,59.6487213268,verb_norming_oral_input,001,906,
STAB,sticka,hacka,skära,2,hacka,sticka,skära,,,0,23,23,81,,,,,,,,,,,,,,,,,,,return,2.1136302484,,,2018_Jun_14_1448,59.6487213268,verb_norming_oral_input,001,906,
CLEAN,rengöra,rensa,plocka,3,plocka,rensa,rengöra,Arm,arm,0,24,24,10,0,0,0,0,,,,,,,,,,,,,6,8.507,,,,,2018_Jun_14_1448,59.6487213268,verb_norming_oral_input,001,906,
CLEAN,rengöra,rensa,plocka,3,plocka,rensa,rengöra,Leg,leg,0,24,24,10,0,1,1,1,,,,,,,,,,,,,1,4.304,,,,,2018_Jun_14_1448,59.6487213268,verb_norming_oral_input,001,906,
CLEAN,rengöra,rensa,plocka,3,plocka,rensa,rengöra,,,0,24,24,10,,,,,,,,,,,,,,,,,,,return,2.18070382629,,,2018_Jun_14_1448,59.6487213268,verb_norming_oral_input,001,906,
HOP,skutta,kliva,studsa,2,kliva,skutta,studsa,Arm,arm,0,25,25,32,0,0,0,0,,,,,,,,,,,,,1,6.517,,,,,2018_Jun_14_1448,59.6487213268,verb_norming_oral_input,001,906,
HOP,skutta,kliva,studsa,2,kliva,skutta,studsa,Leg,leg,0,25,25,32,0,1,1,1,,,,,,,,,,,,,7,2.663,,,,,2018_Jun_14_1448,59.6487213268,verb_norming_oral_input,001,906,
HOP,skutta,kliva,studsa,2,kliva,skutta,studsa,,,0,25,25,32,,,,,,,,,,,,,,,,,,,return,2.95218450716,,,2018_Jun_14_1448,59.6487213268,verb_norming_oral_input,001,906,
CLAW,klösa,nypa,rispa,1,klösa,nypa,rispa,Arm,arm,0,26,26,9,0,0,0,0,,,,,,,,,,,,,6,11.28,,,,,2018_Jun_14_1448,59.6487213268,verb_norming_oral_input,001,906,
CLAW,klösa,nypa,rispa,1,klösa,nypa,rispa,Leg,leg,0,26,26,9,0,1,1,1,,,,,,,,,,,,,1,2.478,,,,,2018_Jun_14_1448,59.6487213268,verb_norming_oral_input,001,906,
CLAW,klösa,nypa,rispa,1,klösa,nypa,rispa,,,0,26,26,9,,,,,,,,,,,,,,,,,,,return,2.85151783707,,,2018_Jun_14_1448,59.6487213268,verb_norming_oral_input,001,906,
SWITCH,slå på/av,knäppa,nypa,2,knäppa,slå på/av,nypa,Arm,arm,0,27,27,93,0,0,0,0,,,,,,,,,,,,,3,13.426,,,,,2018_Jun_14_1448,59.6487213268,verb_norming_oral_input,001,906,
SWITCH,slå på/av,knäppa,nypa,2,knäppa,slå på/av,nypa,Leg,leg,0,27,27,93,0,1,1,1,,,,,,,,,,,,,3,7.743,,,,,2018_Jun_14_1448,59.6487213268,verb_norming_oral_input,001,906,
SWITCH,slå på/av,knäppa,nypa,2,knäppa,slå på/av,nypa,,,0,27,27,93,,,,,,,,,,,,,,,,,,,return,3.85784671843,,,2018_Jun_14_1448,59.6487213268,verb_norming_oral_input,001,906,
POKE,peta,trycka,knuffa,2,knuffa,peta,trycka,Arm,arm,0,28,28,51,0,0,0,0,,,,,,,,,,,,,6,6.702,,,,,2018_Jun_14_1448,59.6487213268,verb_norming_oral_input,001,906,
POKE,peta,trycka,knuffa,2,knuffa,peta,trycka,Leg,leg,0,28,28,51,0,1,1,1,,,,,,,,,,,,,5,2.058,,,,,2018_Jun_14_1448,59.6487213268,verb_norming_oral_input,001,906,
POKE,peta,trycka,knuffa,2,knuffa,peta,trycka,,,0,28,28,51,,,,,,,,,,,,,,,,,,,return,3.92481203602,,,2018_Jun_14_1448,59.6487213268,verb_norming_oral_input,001,906,
CRAWL,kravla,huka,klättra,2,klättra,kravla,huka,Arm,arm,0,29,29,14,0,0,0,0,,,,,,,,,,,,,5,16.159,,,,,2018_Jun_14_1448,59.6487213268,verb_norming_oral_input,001,906,
CRAWL,kravla,huka,klättra,2,klättra,kravla,huka,Leg,leg,0,29,29,14,0,1,1,1,,,,,,,,,,,,,5,1.924,,,,,2018_Jun_14_1448,59.6487213268,verb_norming_oral_input,001,906,
CRAWL,kravla,huka,klättra,2,klättra,kravla,huka,,,0,29,29,14,,,,,,,,,,,,,,,,,,,return,2.23086192979,,,2018_Jun_14_1448,59.6487213268,verb_norming_oral_input,001,906,
WHIP,piska,klappa,slå,2,slå,piska,klappa,Arm,arm,0,30,30,108,0,0,0,0,,,,,,,,,,,,,4,10.844,,,,,2018_Jun_14_1448,59.6487213268,verb_norming_oral_input,001,906,
WHIP,piska,klappa,slå,2,slå,piska,klappa,Leg,leg,0,30,30,108,0,1,1,1,,,,,,,,,,,,,1,1.472,,,,,2018_Jun_14_1448,59.6487213268,verb_norming_oral_input,001,906,
WHIP,piska,klappa,slå,2,slå,piska,klappa,,,0,30,30,108,,,,,,,,,,,,,,,,,,,return,3.69005036474,,,2018_Jun_14_1448,59.6487213268,verb_norming_oral_input,001,906,
SNEAK,smyga,hasa,glida,3,hasa,glida,smyga,Arm,arm,0,31,31,78,0,0,0,0,,,,,,,,,,,,,4,10.909,,,,,2018_Jun_14_1448,59.6487213268,verb_norming_oral_input,001,906,
SNEAK,smyga,hasa,glida,3,hasa,glida,smyga,Leg,leg,0,31,31,78,0,1,1,1,,,,,,,,,,,,,5,3.835,,,,,2018_Jun_14_1448,59.6487213268,verb_norming_oral_input,001,906,
SNEAK,smyga,hasa,glida,3,hasa,glida,smyga,,,0,31,31,78,,,,,,,,,,,,,,,,,,,return,2.11363815061,,,2018_Jun_14_1448,59.6487213268,verb_norming_oral_input,001,906,
ROLL,vingla,snubbla,svassa,3,snubbla,svassa,vingla,Arm,arm,0,32,32,59,0,0,0,0,,,,,,,,,,,,,3,6.232,,,,,2018_Jun_14_1448,59.6487213268,verb_norming_oral_input,001,906,
ROLL,vingla,snubbla,svassa,3,snubbla,svassa,vingla,Leg,leg,0,32,32,59,0,1,1,1,,,,,,,,,,,,,3,3.97,,,,,2018_Jun_14_1448,59.6487213268,verb_norming_oral_input,001,906,
ROLL,vingla,snubbla,svassa,3,snubbla,svassa,vingla,,,0,32,32,59,,,,,,,,,,,,,,,,,,,return,3.47201925611,,,2018_Jun_14_1448,59.6487213268,verb_norming_oral_input,001,906,
STAGGER,ragla,lunka,halka,2,halka,ragla,lunka,Arm,arm,0,33,33,82,0,0,0,0,,,,,,,,,,,,,3,31.989,,,,,2018_Jun_14_1448,59.6487213268,verb_norming_oral_input,001,906,
STAGGER,ragla,lunka,halka,2,halka,ragla,lunka,Leg,leg,0,33,33,82,0,1,1,1,,,,,,,,,,,,,3,4.554,,,,,2018_Jun_14_1448,59.6487213268,verb_norming_oral_input,001,906,
STAGGER,ragla,lunka,halka,2,halka,ragla,lunka,,,0,33,33,82,,,,,,,,,,,,,,,,,,,return,23.0439078491,,,2018_Jun_14_1448,59.6487213268,verb_norming_oral_input,001,906,
TRIP,snubbla,stampa,stappla,1,snubbla,stappla,stampa,Arm,arm,0,34,34,99,0,0,0,0,,,,,,,,,,,,,1,7.959,,,,,2018_Jun_14_1448,59.6487213268,verb_norming_oral_input,001,906,
TRIP,snubbla,stampa,stappla,1,snubbla,stappla,stampa,Leg,leg,0,34,34,99,0,1,1,1,,,,,,,,,,,,,7,1.605,,,,,2018_Jun_14_1448,59.6487213268,verb_norming_oral_input,001,906,
TRIP,snubbla,stampa,stappla,1,snubbla,stappla,stampa,,,0,34,34,99,,,,,,,,,,,,,,,,,,,return,4.29379000742,,,2018_Jun_14_1448,59.6487213268,verb_norming_oral_input,001,906,
RUSH,rusa,springa,löpa,2,löpa,rusa,springa,Arm,arm,0,35,35,62,0,0,0,0,,,,,,,,,,,,,1,6.131,,,,,2018_Jun_14_1448,59.6487213268,verb_norming_oral_input,001,906,
RUSH,rusa,springa,löpa,2,löpa,rusa,springa,Leg,leg,0,35,35,62,0,1,1,1,,,,,,,,,,,,,5,4.624,,,,,2018_Jun_14_1448,59.6487213268,verb_norming_oral_input,001,906,
RUSH,rusa,springa,löpa,2,löpa,rusa,springa,,,0,35,35,62,,,,,,,,,,,,,,,,,,,return,6.5747725052,,,2018_Jun_14_1448,59.6487213268,verb_norming_oral_input,001,906,
BRUSH,borsta,skrubba,putsa,1,borsta,putsa,skrubba,Arm,arm,0,36,36,4,0,0,0,0,,,,,,,,,,,,,6,9.317,,,,,2018_Jun_14_1448,59.6487213268,verb_norming_oral_input,001,906,
BRUSH,borsta,skrubba,putsa,1,borsta,putsa,skrubba,Leg,leg,0,36,36,4,0,1,1,1,,,,,,,,,,,,,1,1.337,,,,,2018_Jun_14_1448,59.6487213268,verb_norming_oral_input,001,906,
BRUSH,borsta,skrubba,putsa,1,borsta,putsa,skrubba,,,0,36,36,4,,,,,,,,,,,,,,,,,,,return,3.38816256588,,,2018_Jun_14_1448,59.6487213268,verb_norming_oral_input,001,906,
CHOP,hacka,tälja,riva,3,riva,tälja,hacka,Arm,arm,0,37,37,7,0,0,0,0,,,,,,,,,,,,,7,4.572,,,,,2018_Jun_14_1448,59.6487213268,verb_norming_oral_input,001,906,
CHOP,hacka,tälja,riva,3,riva,tälja,hacka,Leg,leg,0,37,37,7,0,1,1,1,,,,,,,,,,,,,1,1.807,,,,,2018_Jun_14_1448,59.6487213268,verb_norming_oral_input,001,906,
CHOP,hacka,tälja,riva,3,riva,tälja,hacka,,,0,37,37,7,,,,,,,,,,,,,,,,,,,return,1.59241735373,,,2018_Jun_14_1448,59.6487213268,verb_norming_oral_input,001,906,
STRAY,ströva,vandra,promenera,1,ströva,vandra,promenera,Arm,arm,0,38,38,87,0,0,0,0,,,,,,,,,,,,,2,27.127,,,,,2018_Jun_14_1448,59.6487213268,verb_norming_oral_input,001,906,
STRAY,ströva,vandra,promenera,1,ströva,vandra,promenera,Leg,leg,0,38,38,87,0,1,1,1,,,,,,,,,,,,,6,9.119,,,,,2018_Jun_14_1448,59.6487213268,verb_norming_oral_input,001,906,
STRAY,ströva,vandra,promenera,1,ströva,vandra,promenera,,,0,38,38,87,,,,,,,,,,,,,,,,,,,return,35.3370486899,,,2018_Jun_14_1448,59.6487213268,verb_norming_oral_input,001,906,
GRATE,riva,hugga,rispa,3,hugga,rispa,riva,Arm,arm,0,39,39,28,0,0,0,0,,,,,,,,,,,,,6,9.366,,,,,2018_Jun_14_1448,59.6487213268,verb_norming_oral_input,001,906,
GRATE,riva,hugga,rispa,3,hugga,rispa,riva,Leg,leg,0,39,39,28,0,1,1,1,,,,,,,,,,,,,1,7.458,,,,,2018_Jun_14_1448,59.6487213268,verb_norming_oral_input,001,906,
GRATE,riva,hugga,rispa,3,hugga,rispa,riva,,,0,39,39,28,,,,,,,,,,,,,,,,,,,return,17.4759146514,,,2018_Jun_14_1448,59.6487213268,verb_norming_oral_input,001,906,
STUMBLE,snubbla,glida,svaja,1,snubbla,glida,svaja,Arm,arm,0,40,40,91,0,0,0,0,,,,,,,,,,,,,1,4.821,,,,,2018_Jun_14_1448,59.6487213268,verb_norming_oral_input,001,906,
STUMBLE,snubbla,glida,svaja,1,snubbla,glida,svaja,Leg,leg,0,40,40,91,0,1,1,1,,,,,,,,,,,,,7,0.833,,,,,2018_Jun_14_1448,59.6487213268,verb_norming_oral_input,001,906,
STUMBLE,snubbla,glida,svaja,1,snubbla,glida,svaja,,,0,40,40,91,,,,,,,,,,,,,,,,,,,return,2.68452355788,,,2018_Jun_14_1448,59.6487213268,verb_norming_oral_input,001,906,
GLIDE,glida,hasa,snava,2,hasa,glida,snava,Arm,arm,0,41,41,25,0,0,0,0,,,,,,,,,,,,,1,5.396,,,,,2018_Jun_14_1448,59.6487213268,verb_norming_oral_input,001,906,
GLIDE,glida,hasa,snava,2,hasa,glida,snava,Leg,leg,0,41,41,25,0,1,1,1,,,,,,,,,,,,,5,2.677,,,,,2018_Jun_14_1448,59.6487213268,verb_norming_oral_input,001,906,
GLIDE,glida,hasa,snava,2,hasa,glida,snava,,,0,41,41,25,,,,,,,,,,,,,,,,,,,return,9.69408839493,,,2018_Jun_14_1448,59.6487213268,verb_norming_oral_input,001,906,
SKIP,hoppa,kliva,strutta,3,strutta,kliva,hoppa,Arm,arm,0,42,42,72,0,0,0,0,,,,,,,,,,,,,1,11.396,,,,,2018_Jun_14_1448,59.6487213268,verb_norming_oral_input,001,906,
SKIP,hoppa,kliva,strutta,3,strutta,kliva,hoppa,Leg,leg,0,42,42,72,0,1,1,1,,,,,,,,,,,,,5,1.522,,,,,2018_Jun_14_1448,59.6487213268,verb_norming_oral_input,001,906,
SKIP,hoppa,kliva,strutta,3,strutta,kliva,hoppa,,,0,42,42,72,,,,,,,,,,,,,,,,,,,return,19.7064332301,,,2018_Jun_14_1448,59.6487213268,verb_norming_oral_input,001,906,
WADE,vada,pulsa,plöja,2,pulsa,vada,plöja,Arm,arm,0,43,43,104,0,0,0,0,,,,,,,,,,,,,1,3.129,,,,,2018_Jun_14_1448,59.6487213268,verb_norming_oral_input,001,906,
WADE,vada,pulsa,plöja,2,pulsa,vada,plöja,Leg,leg,0,43,43,104,0,1,1,1,,,,,,,,,,,,,7,1.388,,,,,2018_Jun_14_1448,59.6487213268,verb_norming_oral_input,001,906,
WADE,vada,pulsa,plöja,2,pulsa,vada,plöja,,,0,43,43,104,,,,,,,,,,,,,,,,,,,return,3.17000186097,,,2018_Jun_14_1448,59.6487213268,verb_norming_oral_input,001,906,
SLITHER,hasa,glida,trilla,1,hasa,trilla,glida,Arm,arm,0,44,44,76,0,0,0,0,,,,,,,,,,,,,3,7.471,,,,,2018_Jun_14_1448,59.6487213268,verb_norming_oral_input,001,906,
SLITHER,hasa,glida,trilla,1,hasa,trilla,glida,Leg,leg,0,44,44,76,0,1,1,1,,,,,,,,,,,,,3,1.554,,,,,2018_Jun_14_1448,59.6487213268,verb_norming_oral_input,001,906,
SLITHER,hasa,glida,trilla,1,hasa,trilla,glida,,,0,44,44,76,,,,,,,,,,,,,,,,,,,return,4.19286533011,,,2018_Jun_14_1448,59.6487213268,verb_norming_oral_input,001,906,
STRUT,svassa,lunka,strosa,3,strosa,lunka,svassa,Arm,arm,0,45,45,90,0,0,0,0,,,,,,,,,,,,,1,6.281,,,,,2018_Jun_14_1448,59.6487213268,verb_norming_oral_input,001,906,
STRUT,svassa,lunka,strosa,3,strosa,lunka,svassa,Leg,leg,0,45,45,90,0,1,1,1,,,,,,,,,,,,,5,3.618,,,,,2018_Jun_14_1448,59.6487213268,verb_norming_oral_input,001,906,
STRUT,svassa,lunka,strosa,3,strosa,lunka,svassa,,,0,45,45,90,,,,,,,,,,,,,,,,,,,return,2.66691861552,,,2018_Jun_14_1448,59.6487213268,verb_norming_oral_input,001,906,
CLAP,klappa,knäppa,klämma,1,klappa,knäppa,klämma,Arm,arm,0,46,46,8,0,0,0,0,,,,,,,,,,,,,7,4.907,,,,,2018_Jun_14_1448,59.6487213268,verb_norming_oral_input,001,906,
CLAP,klappa,knäppa,klämma,1,klappa,knäppa,klämma,Leg,leg,0,46,46,8,0,1,1,1,,,,,,,,,,,,,1,1.337,,,,,2018_Jun_14_1448,59.6487213268,verb_norming_oral_input,001,906,
CLAP,klappa,knäppa,klämma,1,klappa,knäppa,klämma,,,0,46,46,8,,,,,,,,,,,,,,,,,,,return,2.83471615453,,,2018_Jun_14_1448,59.6487213268,verb_norming_oral_input,001,906,
TIPTOE,gå på tå,snava,sparka,1,gå på tå,snava,sparka,Arm,arm,0,47,47,95,0,0,0,0,,,,,,,,,,,,,1,3.464,,,,,2018_Jun_14_1448,59.6487213268,verb_norming_oral_input,001,906,
TIPTOE,gå på tå,snava,sparka,1,gå på tå,snava,sparka,Leg,leg,0,47,47,95,0,1,1,1,,,,,,,,,,,,,7,24.162,,,,,2018_Jun_14_1448,59.6487213268,verb_norming_oral_input,001,906,
TIPTOE,gå på tå,snava,sparka,1,gå på tå,snava,sparka,,,0,47,47,95,,,,,,,,,,,,,,,,,,,return,7.94979961967,,,2018_Jun_14_1448,59.6487213268,verb_norming_oral_input,001,906,
BRAID,fläta,knyta,binda,2,knyta,fläta,binda,Arm,arm,0,48,48,3,0,0,0,0,,,,,,,,,,,,,3,5.644,,,,,2018_Jun_14_1448,59.6487213268,verb_norming_oral_input,001,906,
BRAID,fläta,knyta,binda,2,knyta,fläta,binda,Leg,leg,0,48,48,3,0,1,1,1,,,,,,,,,,,,,3,0.901,,,,,2018_Jun_14_1448,59.6487213268,verb_norming_oral_input,001,906,
BRAID,fläta,knyta,binda,2,knyta,fläta,binda,,,0,48,48,3,,,,,,,,,,,,,,,,,,,return,4.84729410491,,,2018_Jun_14_1448,59.6487213268,verb_norming_oral_input,001,906,
MARCH,marschera,trava,traska,1,marschera,traska,trava,Arm,arm,0,49,49,42,0,0,0,0,,,,,,,,,,,,,1,9.434,,,,,2018_Jun_14_1448,59.6487213268,verb_norming_oral_input,001,906,
MARCH,marschera,trava,traska,1,marschera,traska,trava,Leg,leg,0,49,49,42,0,1,1,1,,,,,,,,,,,,,7,1.119,,,,,2018_Jun_14_1448,59.6487213268,verb_norming_oral_input,001,906,
MARCH,marschera,trava,traska,1,marschera,traska,trava,,,0,49,49,42,,,,,,,,,,,,,,,,,,,return,3.45521994424,,,2018_Jun_14_1448,59.6487213268,verb_norming_oral_input,001,906,
MOUNT,gå uppför,ströva runt,kliva över,3,kliva över,ströva runt,gå uppför,Arm,arm,0,50,50,43,0,0,0,0,,,,,,,,,,,,,3,4.217,,,,,2018_Jun_14_1448,59.6487213268,verb_norming_oral_input,001,906,
MOUNT,gå uppför,ströva runt,kliva över,3,kliva över,ströva runt,gå uppför,Leg,leg,0,50,50,43,0,1,1,1,,,,,,,,,,,,,7,1.436,,,,,2018_Jun_14_1448,59.6487213268,verb_norming_oral_input,001,906,
MOUNT,gå uppför,ströva runt,kliva över,3,kliva över,ströva runt,gå uppför,,,0,50,50,43,,,,,,,,,,,,,,,,,,,return,2.4152541134,,,2018_Jun_14_1448,59.6487213268,verb_norming_oral_input,001,906,
TRAIPSE,traska,stappla,vandra,1,traska,stappla,vandra,Arm,arm,0,51,51,97,0,0,0,0,,,,,,,,,,,,,3,9.165,,,,,2018_Jun_14_1448,59.6487213268,verb_norming_oral_input,001,906,
TRAIPSE,traska,stappla,vandra,1,traska,stappla,vandra,Leg,leg,0,51,51,97,0,1,1,1,,,,,,,,,,,,,3,1.101,,,,,2018_Jun_14_1448,59.6487213268,verb_norming_oral_input,001,906,
TRAIPSE,traska,stappla,vandra,1,traska,stappla,vandra,,,0,51,51,97,,,,,,,,,,,,,,,,,,,return,2.465837751,,,2018_Jun_14_1448,59.6487213268,verb_norming_oral_input,001,906,
STOMP,stampa,stiga,kliva,2,stiga,stampa,kliva,Arm,arm,0,52,52,86,0,0,0,0,,,,,,,,,,,,,1,2.944,,,,,2018_Jun_14_1448,59.6487213268,verb_norming_oral_input,001,906,
STOMP,stampa,stiga,kliva,2,stiga,stampa,kliva,Leg,leg,0,52,52,86,0,1,1,1,,,,,,,,,,,,,7,0.901,,,,,2018_Jun_14_1448,59.6487213268,verb_norming_oral_input,001,906,
STOMP,stampa,stiga,kliva,2,stiga,stampa,kliva,,,0,52,52,86,,,,,,,,,,,,,,,,,,,return,2.01296081254,,,2018_Jun_14_1448,59.6487213268,verb_norming_oral_input,001,906,
CUT,skära,sticka,spetsa,3,sticka,spetsa,skära,Arm,arm,0,53,53,16,0,0,0,0,,,,,,,,,,,,,1,6.92,,,,,2018_Jun_14_1448,59.6487213268,verb_norming_oral_input,001,906,
CUT,skära,sticka,spetsa,3,sticka,spetsa,skära,Leg,leg,0,53,53,16,0,1,1,1,,,,,,,,,,,,,1,15.745,,,,,2018_Jun_14_1448,59.6487213268,verb_norming_oral_input,001,906,
CUT,skära,sticka,spetsa,3,sticka,spetsa,skära,,,0,53,53,16,,,,,,,,,,,,,,,,,,,return,3.18694657354,,,2018_Jun_14_1448,59.6487213268,verb_norming_oral_input,001,906,
PLOD,lunka,pulsa,vingla,1,lunka,vingla,pulsa,Arm,arm,0,54,54,49,0,0,0,0,,,,,,,,,,,,,3,4.404,,,,,2018_Jun_14_1448,59.6487213268,verb_norming_oral_input,001,906,
PLOD,lunka,pulsa,vingla,1,lunka,vingla,pulsa,Leg,leg,0,54,54,49,0,1,1,1,,,,,,,,,,,,,3,1.806,,,,,2018_Jun_14_1448,59.6487213268,verb_norming_oral_input,001,906,
PLOD,lunka,pulsa,vingla,1,lunka,vingla,pulsa,,,0,54,54,49,,,,,,,,,,,,,,,,,,,return,4.32730644817,,,2018_Jun_14_1448,59.6487213268,verb_norming_oral_input,001,906,
PLUCK,plocka,rensa,picka,3,picka,rensa,plocka,Arm,arm,0,55,55,50,0,0,0,0,,,,,,,,,,,,,5,7.471,,,,,2018_Jun_14_1448,59.6487213268,verb_norming_oral_input,001,906,
PLUCK,plocka,rensa,picka,3,picka,rensa,plocka,Leg,leg,0,55,55,50,0,1,1,1,,,,,,,,,,,,,1,1.924,,,,,2018_Jun_14_1448,59.6487213268,verb_norming_oral_input,001,906,
PLUCK,plocka,rensa,picka,3,picka,rensa,plocka,,,0,55,55,50,,,,,,,,,,,,,,,,,,,return,1.96266560566,,,2018_Jun_14_1448,59.6487213268,verb_norming_oral_input,001,906,
WRAP,slå in,slå ihop,slå till,1,slå in,slå ihop,slå till,Arm,arm,0,56,56,111,0,0,0,0,,,,,,,,,,,,,1,5.997,,,,,2018_Jun_14_1448,59.6487213268,verb_norming_oral_input,001,906,
WRAP,slå in,slå ihop,slå till,1,slå in,slå ihop,slå till,Leg,leg,0,56,56,111,0,1,1,1,,,,,,,,,,,,,1,5.245,,,,,2018_Jun_14_1448,59.6487213268,verb_norming_oral_input,001,906,
WRAP,slå in,slå ihop,slå till,1,slå in,slå ihop,slå till,,,0,56,56,111,,,,,,,,,,,,,,,,,,,return,11.5387147132,,,2018_Jun_14_1448,59.6487213268,verb_norming_oral_input,001,906,
SLIDE,glida,ramla,hasa,3,ramla,hasa,glida,Arm,arm,0,57,57,74,0,0,0,0,,,,,,,,,,,,,2,5.627,,,,,2018_Jun_14_1448,59.6487213268,verb_norming_oral_input,001,906,
SLIDE,glida,ramla,hasa,3,ramla,hasa,glida,Leg,leg,0,57,57,74,0,1,1,1,,,,,,,,,,,,,4,2.008,,,,,2018_Jun_14_1448,59.6487213268,verb_norming_oral_input,001,906,
SLIDE,glida,ramla,hasa,3,ramla,hasa,glida,,,0,57,57,74,,,,,,,,,,,,,,,,,,,return,10.4151893153,,,2018_Jun_14_1448,59.6487213268,verb_norming_oral_input,001,906,
WALK,gå,promenera,marschera,3,marschera,promenera,gå,Arm,arm,0,58,58,105,0,0,0,0,,,,,,,,,,,,,3,8.009,,,,,2018_Jun_14_1448,59.6487213268,verb_norming_oral_input,001,906,
WALK,gå,promenera,marschera,3,marschera,promenera,gå,Leg,leg,0,58,58,105,0,1,1,1,,,,,,,,,,,,,7,2.377,,,,,2018_Jun_14_1448,59.6487213268,verb_norming_oral_input,001,906,
WALK,gå,promenera,marschera,3,marschera,promenera,gå,,,0,58,58,105,,,,,,,,,,,,,,,,,,,return,2.66690004532,,,2018_Jun_14_1448,59.6487213268,verb_norming_oral_input,001,906,
DUNK,dunka,dumpa,dunsa,2,dumpa,dunka,dunsa,Arm,arm,0,59,59,20,0,0,0,0,,,,,,,,,,,,,6,7.052,,,,,2018_Jun_14_1448,59.6487213268,verb_norming_oral_input,001,906,
DUNK,dunka,dumpa,dunsa,2,dumpa,dunka,dunsa,Leg,leg,0,59,59,20,0,1,1,1,,,,,,,,,,,,,3,2.778,,,,,2018_Jun_14_1448,59.6487213268,verb_norming_oral_input,001,906,
DUNK,dunka,dumpa,dunsa,2,dumpa,dunka,dunsa,,,0,59,59,20,,,,,,,,,,,,,,,,,,,return,11.1866616988,,,2018_Jun_14_1448,59.6487213268,verb_norming_oral_input,001,906,
PUSH,knuffa,kasta,klämma,2,klämma,knuffa,kasta,Arm,arm,0,60,60,56,0,0,0,0,,,,,,,,,,,,,6,9.552,,,,,2018_Jun_14_1448,59.6487213268,verb_norming_oral_input,001,906,
PUSH,knuffa,kasta,klämma,2,klämma,knuffa,kasta,Leg,leg,0,60,60,56,0,1,1,1,,,,,,,,,,,,,2,2.142,,,,,2018_Jun_14_1448,59.6487213268,verb_norming_oral_input,001,906,
PUSH,knuffa,kasta,klämma,2,klämma,knuffa,kasta,,,0,60,60,56,,,,,,,,,,,,,,,,,,,return,2.02973760311,,,2018_Jun_14_1448,59.6487213268,verb_norming_oral_input,001,906,
FILE,fila,putsa,riva,3,riva,putsa,fila,Arm,arm,0,61,61,21,0,0,0,0,,,,,,,,,,,,,5,9.066,,,,,2018_Jun_14_1448,59.6487213268,verb_norming_oral_input,001,906,
FILE,fila,putsa,riva,3,riva,putsa,fila,Leg,leg,0,61,61,21,0,1,1,1,,,,,,,,,,,,,1,1.69,,,,,2018_Jun_14_1448,59.6487213268,verb_norming_oral_input,001,906,
FILE,fila,putsa,riva,3,riva,putsa,fila,,,0,61,61,21,,,,,,,,,,,,,,,,,,,return,3.38816296099,,,2018_Jun_14_1448,59.6487213268,verb_norming_oral_input,001,906,
CLICK,klicka,klappa,klämma,3,klämma,klappa,klicka,Arm,arm,0,62,62,11,0,0,0,0,,,,,,,,,,,,,7,6.13,,,,,2018_Jun_14_1448,59.6487213268,verb_norming_oral_input,001,906,
CLICK,klicka,klappa,klämma,3,klämma,klappa,klicka,Leg,leg,0,62,62,11,0,1,1,1,,,,,,,,,,,,,1,1.722,,,,,2018_Jun_14_1448,59.6487213268,verb_norming_oral_input,001,906,
CLICK,klicka,klappa,klämma,3,klämma,klappa,klicka,,,0,62,62,11,,,,,,,,,,,,,,,,,,,return,1.8955371074,,,2018_Jun_14_1448,59.6487213268,verb_norming_oral_input,001,906,
THROW,kasta,greppa,träffa,2,träffa,kasta,greppa,Arm,arm,0,63,63,94,0,0,0,0,,,,,,,,,,,,,7,2.273,,,,,2018_Jun_14_1448,59.6487213268,verb_norming_oral_input,001,906,
THROW,kasta,greppa,träffa,2,träffa,kasta,greppa,Leg,leg,0,63,63,94,0,1,1,1,,,,,,,,,,,,,1,1.136,,,,,2018_Jun_14_1448,59.6487213268,verb_norming_oral_input,001,906,
THROW,kasta,greppa,träffa,2,träffa,kasta,greppa,,,0,63,63,94,,,,,,,,,,,,,,,,,,,return,1.79478588365,,,2018_Jun_14_1448,59.6487213268,verb_norming_oral_input,001,906,
STIR,röra,sleva,vispa,3,sleva,vispa,röra,Arm,arm,0,64,64,85,0,0,0,0,,,,,,,,,,,,,6,5.51,,,,,2018_Jun_14_1448,59.6487213268,verb_norming_oral_input,001,906,
STIR,röra,sleva,vispa,3,sleva,vispa,röra,Leg,leg,0,64,64,85,0,1,1,1,,,,,,,,,,,,,1,2.344,,,,,2018_Jun_14_1448,59.6487213268,verb_norming_oral_input,001,906,
STIR,röra,sleva,vispa,3,sleva,vispa,röra,,,0,64,64,85,,,,,,,,,,,,,,,,,,,return,2.24781770546,,,2018_Jun_14_1448,59.6487213268,verb_norming_oral_input,001,906,
CARVE,tälja,hacka,riva,2,riva,tälja,hacka,Arm,arm,0,65,65,5,0,0,0,0,,,,,,,,,,,,,6,12.235,,,,,2018_Jun_14_1448,59.6487213268,verb_norming_oral_input,001,906,
CARVE,tälja,hacka,riva,2,riva,tälja,hacka,Leg,leg,0,65,65,5,0,1,1,1,,,,,,,,,,,,,1,17.671,,,,,2018_Jun_14_1448,59.6487213268,verb_norming_oral_input,001,906,
CARVE,tälja,hacka,riva,2,riva,tälja,hacka,,,0,65,65,5,,,,,,,,,,,,,,,,,,,return,3.37144978322,,,2018_Jun_14_1448,59.6487213268,verb_norming_oral_input,001,906,
WIPE,torka,putsa,gnugga,3,gnugga,putsa,torka,Arm,arm,0,66,66,109,0,0,0,0,,,,,,,,,,,,,6,11.414,,,,,2018_Jun_14_1448,59.6487213268,verb_norming_oral_input,001,906,
WIPE,torka,putsa,gnugga,3,gnugga,putsa,torka,Leg,leg,0,66,66,109,0,1,1,1,,,,,,,,,,,,,1,1.136,,,,,2018_Jun_14_1448,59.6487213268,verb_norming_oral_input,001,906,
WIPE,torka,putsa,gnugga,3,gnugga,putsa,torka,,,0,66,66,109,,,,,,,,,,,,,,,,,,,return,2.46574885112,,,2018_Jun_14_1448,59.6487213268,verb_norming_oral_input,001,906,
SCUFF,hasa sig fram,dra sig fram,kasta sig fram,2,dra sig fram,hasa sig fram,kasta sig fram,Arm,arm,0,67,67,67,0,0,0,0,,,,,,,,,,,,,3,6.063,,,,,2018_Jun_14_1448,59.6487213268,verb_norming_oral_input,001,906,
SCUFF,hasa sig fram,dra sig fram,kasta sig fram,2,dra sig fram,hasa sig fram,kasta sig fram,Leg,leg,0,67,67,67,0,1,1,1,,,,,,,,,,,,,3,1.102,,,,,2018_Jun_14_1448,59.6487213268,verb_norming_oral_input,001,906,
SCUFF,hasa sig fram,dra sig fram,kasta sig fram,2,dra sig fram,hasa sig fram,kasta sig fram,,,0,67,67,67,,,,,,,,,,,,,,,,,,,return,5.60192727041,,,2018_Jun_14_1448,59.6487213268,verb_norming_oral_input,001,906,
CLIMB,klättra,kliva,krypa,1,klättra,kliva,krypa,Arm,arm,0,68,68,12,0,0,0,0,,,,,,,,,,,,,6,8.579,,,,,2018_Jun_14_1448,59.6487213268,verb_norming_oral_input,001,906,
CLIMB,klättra,kliva,krypa,1,klättra,kliva,krypa,Leg,leg,0,68,68,12,0,1,1,1,,,,,,,,,,,,,6,1.79,,,,,2018_Jun_14_1448,59.6487213268,verb_norming_oral_input,001,906,
CLIMB,klättra,kliva,krypa,1,klättra,kliva,krypa,,,0,68,68,12,,,,,,,,,,,,,,,,,,,return,1.44278146789,,,2018_Jun_14_1448,59.6487213268,verb_norming_oral_input,001,906,
SWAY,vingla,tassa,ramla,2,tassa,vingla,ramla,Arm,arm,0,69,69,92,0,0,0,0,,,,,,,,,,,,,2,24.445,,,,,2018_Jun_14_1448,59.6487213268,verb_norming_oral_input,001,906,
SWAY,vingla,tassa,ramla,2,tassa,vingla,ramla,Leg,leg,0,69,69,92,0,1,1,1,,,,,,,,,,,,,5,10.98,,,,,2018_Jun_14_1448,59.6487213268,verb_norming_oral_input,001,906,
SWAY,vingla,tassa,ramla,2,tassa,vingla,ramla,,,0,69,69,92,,,,,,,,,,,,,,,,,,,return,2.33162856286,,,2018_Jun_14_1448,59.6487213268,verb_norming_oral_input,001,906,
PULL,dra,slänga,släpa,3,släpa,slänga,dra,Arm,arm,0,70,70,54,0,0,0,0,,,,,,,,,,,,,6,9.301,,,,,2018_Jun_14_1448,59.6487213268,verb_norming_oral_input,001,906,
PULL,dra,slänga,släpa,3,släpa,slänga,dra,Leg,leg,0,70,70,54,0,1,1,1,,,,,,,,,,,,,3,1.991,,,,,2018_Jun_14_1448,59.6487213268,verb_norming_oral_input,001,906,
PULL,dra,slänga,släpa,3,släpa,slänga,dra,,,0,70,70,54,,,,,,,,,,,,,,,,,,,return,2.8347374905,,,2018_Jun_14_1448,59.6487213268,verb_norming_oral_input,001,906,
RUB,gnugga,riva,klappa,2,klappa,gnugga,riva,Arm,arm,0,71,71,60,0,0,0,0,,,,,,,,,,,,,6,12.723,,,,,2018_Jun_14_1448,59.6487213268,verb_norming_oral_input,001,906,
RUB,gnugga,riva,klappa,2,klappa,gnugga,riva,Leg,leg,0,71,71,60,0,1,1,1,,,,,,,,,,,,,1,1.187,,,,,2018_Jun_14_1448,59.6487213268,verb_norming_oral_input,001,906,
RUB,gnugga,riva,klappa,2,klappa,gnugga,riva,,,0,71,71,60,,,,,,,,,,,,,,,,,,,return,2.0129967676,,,2018_Jun_14_1448,59.6487213268,verb_norming_oral_input,001,906,
FLIT,rusa,hasa,svassa,2,hasa,rusa,svassa,Arm,arm,0,72,72,23,0,0,0,0,,,,,,,,,,,,,3,3.834,,,,,2018_Jun_14_1448,59.6487213268,verb_norming_oral_input,001,906,
FLIT,rusa,hasa,svassa,2,hasa,rusa,svassa,Leg,leg,0,72,72,23,0,1,1,1,,,,,,,,,,,,,3,1.203,,,,,2018_Jun_14_1448,59.6487213268,verb_norming_oral_input,001,906,
FLIT,rusa,hasa,svassa,2,hasa,rusa,svassa,,,0,72,72,23,,,,,,,,,,,,,,,,,,,return,3.80747051388,,,2018_Jun_14_1448,59.6487213268,verb_norming_oral_input,001,906,
TRUDGE,släpa sig fram,kasta sig fram,ta sig fram,1,släpa sig fram,ta sig fram,kasta sig fram,Arm,arm,0,73,73,101,0,0,0,0,,,,,,,,,,,,,3,7.051,,,,,2018_Jun_14_1448,59.6487213268,verb_norming_oral_input,001,906,
TRUDGE,släpa sig fram,kasta sig fram,ta sig fram,1,släpa sig fram,ta sig fram,kasta sig fram,Leg,leg,0,73,73,101,0,1,1,1,,,,,,,,,,,,,3,1.117,,,,,2018_Jun_14_1448,59.6487213268,verb_norming_oral_input,001,906,
TRUDGE,släpa sig fram,kasta sig fram,ta sig fram,1,släpa sig fram,ta sig fram,kasta sig fram,,,0,73,73,101,,,,,,,,,,,,,,,,,,,return,6.08825861726,,,2018_Jun_14_1448,59.6487213268,verb_norming_oral_input,001,906,
LIMP,halta,hasa,halka,1,halta,halka,hasa,Arm,arm,0,74,74,41,0,0,0,0,,,,,,,,,,,,,2,7.288,,,,,2018_Jun_14_1448,59.6487213268,verb_norming_oral_input,001,906,
LIMP,halta,hasa,halka,1,halta,halka,hasa,Leg,leg,0,74,74,41,0,1,1,1,,,,,,,,,,,,,7,2.075,,,,,2018_Jun_14_1448,59.6487213268,verb_norming_oral_input,001,906,
LIMP,halta,hasa,halka,1,halta,halka,hasa,,,0,74,74,41,,,,,,,,,,,,,,,,,,,return,1.96262648971,,,2018_Jun_14_1448,59.6487213268,verb_norming_oral_input,001,906,
PUNCH,slå,knuffa,kasta,3,kasta,knuffa,slå,Arm,arm,0,75,75,55,0,0,0,0,,,,,,,,,,,,,7,4.066,,,,,2018_Jun_14_1448,59.6487213268,verb_norming_oral_input,001,906,
PUNCH,slå,knuffa,kasta,3,kasta,knuffa,slå,Leg,leg,0,75,75,55,0,1,1,1,,,,,,,,,,,,,1,1.268,,,,,2018_Jun_14_1448,59.6487213268,verb_norming_oral_input,001,906,
PUNCH,slå,knuffa,kasta,3,kasta,knuffa,slå,,,0,75,75,55,,,,,,,,,,,,,,,,,,,return,2.06193635006,,,2018_Jun_14_1448,59.6487213268,verb_norming_oral_input,001,906,
RUN,springa,rusa,jogga,2,rusa,springa,jogga,Arm,arm,0,76,76,61,0,0,0,0,,,,,,,,,,,,,2,3.999,,,,,2018_Jun_14_1448,59.6487213268,verb_norming_oral_input,001,906,
RUN,springa,rusa,jogga,2,rusa,springa,jogga,Leg,leg,0,76,76,61,0,1,1,1,,,,,,,,,,,,,7,1.353,,,,,2018_Jun_14_1448,59.6487213268,verb_norming_oral_input,001,906,
RUN,springa,rusa,jogga,2,rusa,springa,jogga,,,0,76,76,61,,,,,,,,,,,,,,,,,,,return,1.89558886689,,,2018_Jun_14_1448,59.6487213268,verb_norming_oral_input,001,906,
JOG,jogga,spurta,rusa,2,rusa,jogga,spurta,Arm,arm,0,77,77,34,0,0,0,0,,,,,,,,,,,,,2,10.339,,,,,2018_Jun_14_1448,59.6487213268,verb_norming_oral_input,001,906,
JOG,jogga,spurta,rusa,2,rusa,jogga,spurta,Leg,leg,0,77,77,34,0,1,1,1,,,,,,,,,,,,,7,1.168,,,,,2018_Jun_14_1448,59.6487213268,verb_norming_oral_input,001,906,
JOG,jogga,spurta,rusa,2,rusa,jogga,spurta,,,0,77,77,34,,,,,,,,,,,,,,,,,,,return,1.92898756468,,,2018_Jun_14_1448,59.6487213268,verb_norming_oral_input,001,906,
DELVE,gräva,plöja,rensa,3,rensa,plöja,gräva,Arm,arm,0,78,78,18,0,0,0,0,,,,,,,,,,,,,2,18.742,,,,,2018_Jun_14_1448,59.6487213268,verb_norming_oral_input,001,906,
DELVE,gräva,plöja,rensa,3,rensa,plöja,gräva,Leg,leg,0,78,78,18,0,1,1,1,,,,,,,,,,,,,5,2.729,,,,,2018_Jun_14_1448,59.6487213268,verb_norming_oral_input,001,906,
DELVE,gräva,plöja,rensa,3,rensa,plöja,gräva,,,0,78,78,18,,,,,,,,,,,,,,,,,,,return,2.44900090362,,,2018_Jun_14_1448,59.6487213268,verb_norming_oral_input,001,906,
TREAD,trampa,stampa,klampa,1,trampa,klampa,stampa,Arm,arm,0,79,79,98,0,0,0,0,,,,,,,,,,,,,1,14.047,,,,,2018_Jun_14_1448,59.6487213268,verb_norming_oral_input,001,906,
TREAD,trampa,stampa,klampa,1,trampa,klampa,stampa,Leg,leg,0,79,79,98,0,1,1,1,,,,,,,,,,,,,5,11.248,,,,,2018_Jun_14_1448,59.6487213268,verb_norming_oral_input,001,906,
TREAD,trampa,stampa,klampa,1,trampa,klampa,stampa,,,0,79,79,98,,,,,,,,,,,,,,,,,,,return,2.3986594688,,,2018_Jun_14_1448,59.6487213268,verb_norming_oral_input,001,906,
SLAP,smälla till,knäppa fast,klämma åt,1,smälla till,knäppa fast,klämma åt,Arm,arm,0,80,80,73,0,0,0,0,,,,,,,,,,,,,6,19.9,,,,,2018_Jun_14_1448,59.6487213268,verb_norming_oral_input,001,906,
SLAP,smälla till,knäppa fast,klämma åt,1,smälla till,knäppa fast,klämma åt,Leg,leg,0,80,80,73,0,1,1,1,,,,,,,,,,,,,1,0.934,,,,,2018_Jun_14_1448,59.6487213268,verb_norming_oral_input,001,906,
SLAP,smälla till,knäppa fast,klämma åt,1,smälla till,knäppa fast,klämma åt,,,0,80,80,73,,,,,,,,,,,,,,,,,,,return,2.11351369078,,,2018_Jun_14_1448,59.6487213268,verb_norming_oral_input,001,906,
PEEL,skala,rensa,plocka,3,rensa,plocka,skala,Arm,arm,0,81,81,47,0,0,0,0,,,,,,,,,,,,,7,2.575,,,,,2018_Jun_14_1448,59.6487213268,verb_norming_oral_input,001,906,
PEEL,skala,rensa,plocka,3,rensa,plocka,skala,Leg,leg,0,81,81,47,0,1,1,1,,,,,,,,,,,,,1,1.589,,,,,2018_Jun_14_1448,59.6487213268,verb_norming_oral_input,001,906,
PEEL,skala,rensa,plocka,3,rensa,plocka,skala,,,0,81,81,47,,,,,,,,,,,,,,,,,,,return,1.86201394977,,,2018_Jun_14_1448,59.6487213268,verb_norming_oral_input,001,906,
HIKE,vandra,flanera,lunka,2,flanera,vandra,lunka,Arm,arm,0,82,82,31,0,0,0,0,,,,,,,,,,,,,1,11.179,,,,,2018_Jun_14_1448,59.6487213268,verb_norming_oral_input,001,906,
HIKE,vandra,flanera,lunka,2,flanera,vandra,lunka,Leg,leg,0,82,82,31,0,1,1,1,,,,,,,,,,,,,7,5.798,,,,,2018_Jun_14_1448,59.6487213268,verb_norming_oral_input,001,906,
HIKE,vandra,flanera,lunka,2,flanera,vandra,lunka,,,0,82,82,31,,,,,,,,,,,,,,,,,,,return,2.98566815373,,,2018_Jun_14_1448,59.6487213268,verb_norming_oral_input,001,906,
BIND,binda,linda,vinda,2,linda,binda,vinda,Arm,arm,0,83,83,1,0,0,0,0,,,,,,,,,,,,,6,6.08,,,,,2018_Jun_14_1448,59.6487213268,verb_norming_oral_input,001,906,
BIND,binda,linda,vinda,2,linda,binda,vinda,Leg,leg,0,83,83,1,0,1,1,1,,,,,,,,,,,,,1,1.47,,,,,2018_Jun_14_1448,59.6487213268,verb_norming_oral_input,001,906,
BIND,binda,linda,vinda,2,linda,binda,vinda,,,0,83,83,1,,,,,,,,,,,,,,,,,,,return,2.88499437165,,,2018_Jun_14_1448,59.6487213268,verb_norming_oral_input,001,906,
GRASP,gripa,klämma,omfamna,1,gripa,omfamna,klämma,Arm,arm,0,84,84,27,0,0,0,0,,,,,,,,,,,,,4,19.765,,,,,2018_Jun_14_1448,59.6487213268,verb_norming_oral_input,001,906,
GRASP,gripa,klämma,omfamna,1,gripa,omfamna,klämma,Leg,leg,0,84,84,27,0,1,1,1,,,,,,,,,,,,,1,1.654,,,,,2018_Jun_14_1448,59.6487213268,verb_norming_oral_input,001,906,
GRASP,gripa,klämma,omfamna,1,gripa,omfamna,klämma,,,0,84,84,27,,,,,,,,,,,,,,,,,,,return,2.31472296624,,,2018_Jun_14_1448,59.6487213268,verb_norming_oral_input,001,906,
WANDER,vandra,marschera,spatsera,3,marschera,spatsera,vandra,Arm,arm,0,85,85,106,0,0,0,0,,,,,,,,,,,,,1,13.508,,,,,2018_Jun_14_1448,59.6487213268,verb_norming_oral_input,001,906,
WANDER,vandra,marschera,spatsera,3,marschera,spatsera,vandra,Leg,leg,0,85,85,106,0,1,1,1,,,,,,,,,,,,,5,3.414,,,,,2018_Jun_14_1448,59.6487213268,verb_norming_oral_input,001,906,
WANDER,vandra,marschera,spatsera,3,marschera,spatsera,vandra,,,0,85,85,106,,,,,,,,,,,,,,,,,,,return,2.85156406501,,,2018_Jun_14_1448,59.6487213268,verb_norming_oral_input,001,906,
CREEP,krypa,knäböja,klättra,2,knäböja,krypa,klättra,Arm,arm,0,86,86,15,0,0,0,0,,,,,,,,,,,,,4,4.554,,,,,2018_Jun_14_1448,59.6487213268,verb_norming_oral_input,001,906,
CREEP,krypa,knäböja,klättra,2,knäböja,krypa,klättra,Leg,leg,0,86,86,15,0,1,1,1,,,,,,,,,,,,,4,3.064,,,,,2018_Jun_14_1448,59.6487213268,verb_norming_oral_input,001,906,
CREEP,krypa,knäböja,klättra,2,knäböja,krypa,klättra,,,0,86,86,15,,,,,,,,,,,,,,,,,,,return,2.76772001832,,,2018_Jun_14_1448,59.6487213268,verb_norming_oral_input,001,906,
POLISH,polera,sopa,tvätta,3,sopa,tvätta,polera,Arm,arm,0,87,87,52,0,0,0,0,,,,,,,,,,,,,6,4.973,,,,,2018_Jun_14_1448,59.6487213268,verb_norming_oral_input,001,906,
POLISH,polera,sopa,tvätta,3,sopa,tvätta,polera,Leg,leg,0,87,87,52,0,1,1,1,,,,,,,,,,,,,2,2.611,,,,,2018_Jun_14_1448,59.6487213268,verb_norming_oral_input,001,906,
POLISH,polera,sopa,tvätta,3,sopa,tvätta,polera,,,0,87,87,52,,,,,,,,,,,,,,,,,,,return,2.14714985004,,,2018_Jun_14_1448,59.6487213268,verb_norming_oral_input,001,906,
RAMBLE,ströva,strutta,spurta,3,spurta,strutta,ströva,Arm,arm,0,88,88,57,0,0,0,0,,,,,,,,,,,,,3,20.084,,,,,2018_Jun_14_1448,59.6487213268,verb_norming_oral_input,001,906,
RAMBLE,ströva,strutta,spurta,3,spurta,strutta,ströva,Leg,leg,0,88,88,57,0,1,1,1,,,,,,,,,,,,,3,3.198,,,,,2018_Jun_14_1448,59.6487213268,verb_norming_oral_input,001,906,
RAMBLE,ströva,strutta,spurta,3,spurta,strutta,ströva,,,0,88,88,57,,,,,,,,,,,,,,,,,,,return,2.31471387869,,,2018_Jun_14_1448,59.6487213268,verb_norming_oral_input,001,906,
INCH,röra sig långsamt framåt,dra sig snabbt tillbaka,hasa sig bakåt,2,hasa sig bakåt,röra sig långsamt framåt,dra sig snabbt tillbaka,Arm,arm,0,89,89,33,0,0,0,0,,,,,,,,,,,,,3,10.456,,,,,2018_Jun_14_1448,59.6487213268,verb_norming_oral_input,001,906,
INCH,röra sig långsamt framåt,dra sig snabbt tillbaka,hasa sig bakåt,2,hasa sig bakåt,röra sig långsamt framåt,dra sig snabbt tillbaka,Leg,leg,0,89,89,33,0,1,1,1,,,,,,,,,,,,,3,0.9,,,,,2018_Jun_14_1448,59.6487213268,verb_norming_oral_input,001,906,
INCH,röra sig långsamt framåt,dra sig snabbt tillbaka,hasa sig bakåt,2,hasa sig bakåt,röra sig långsamt framåt,dra sig snabbt tillbaka,,,0,89,89,33,,,,,,,,,,,,,,,,,,,return,5.6904928886,,,2018_Jun_14_1448,59.6487213268,verb_norming_oral_input,001,906,
DANCE,dansa,snurra,svänga,1,dansa,svänga,snurra,Arm,arm,0,90,90,17,0,0,0,0,,,,,,,,,,,,,3,4.111,,,,,2018_Jun_14_1448,59.6487213268,verb_norming_oral_input,001,906,
DANCE,dansa,snurra,svänga,1,dansa,svänga,snurra,Leg,leg,0,90,90,17,0,1,1,1,,,,,,,,,,,,,6,2.527,,,,,2018_Jun_14_1448,59.6487213268,verb_norming_oral_input,001,906,
DANCE,dansa,snurra,svänga,1,dansa,svänga,snurra,,,0,90,90,17,,,,,,,,,,,,,,,,,,,return,2.21430324026,,,2018_Jun_14_1448,59.6487213268,verb_norming_oral_input,001,906,
CATCH,fånga,krama,omfamna,1,fånga,krama,omfamna,Arm,arm,0,91,91,6,0,0,0,0,,,,,,,,,,,,,7,3.783,,,,,2018_Jun_14_1448,59.6487213268,verb_norming_oral_input,001,906,
CATCH,fånga,krama,omfamna,1,fånga,krama,omfamna,Leg,leg,0,91,91,6,0,1,1,1,,,,,,,,,,,,,1,2.527,,,,,2018_Jun_14_1448,59.6487213268,verb_norming_oral_input,001,906,
CATCH,fånga,krama,omfamna,1,fånga,krama,omfamna,,,0,91,91,6,,,,,,,,,,,,,,,,,,,return,2.09681631743,,,2018_Jun_14_1448,59.6487213268,verb_norming_oral_input,001,906,
TUG,rycka,pressa,slå,3,slå,pressa,rycka,Arm,arm,0,92,92,102,0,0,0,0,,,,,,,,,,,,,6,9.484,,,,,2018_Jun_14_1448,59.6487213268,verb_norming_oral_input,001,906,
TUG,rycka,pressa,slå,3,slå,pressa,rycka,Leg,leg,0,92,92,102,0,1,1,1,,,,,,,,,,,,,1,1.035,,,,,2018_Jun_14_1448,59.6487213268,verb_norming_oral_input,001,906,
TUG,rycka,pressa,slå,3,slå,pressa,rycka,,,0,92,92,102,,,,,,,,,,,,,,,,,,,return,3.38802664784,,,2018_Jun_14_1448,59.6487213268,verb_norming_oral_input,001,906,
TWINE,tvinna,binda,knyta,1,tvinna,binda,knyta,Arm,arm,0,93,93,103,0,0,0,0,,,,,,,,,,,,,4,20.938,,,,,2018_Jun_14_1448,59.6487213268,verb_norming_oral_input,001,906,
TWINE,tvinna,binda,knyta,1,tvinna,binda,knyta,Leg,leg,0,93,93,103,0,1,1,1,,,,,,,,,,,,,4,0.765,,,,,2018_Jun_14_1448,59.6487213268,verb_norming_oral_input,001,906,
TWINE,tvinna,binda,knyta,1,tvinna,binda,knyta,,,0,93,93,103,,,,,,,,,,,,,,,,,,,return,2.58318322424,,,2018_Jun_14_1448,59.6487213268,verb_norming_oral_input,001,906,
PINCH,nypa,plocka,pensla,1,nypa,plocka,pensla,Arm,arm,0,94,94,48,0,0,0,0,,,,,,,,,,,,,6,12.217,,,,,2018_Jun_14_1448,59.6487213268,verb_norming_oral_input,001,906,
PINCH,nypa,plocka,pensla,1,nypa,plocka,pensla,Leg,leg,0,94,94,48,0,1,1,1,,,,,,,,,,,,,1,1.017,,,,,2018_Jun_14_1448,59.6487213268,verb_norming_oral_input,001,906,
PINCH,nypa,plocka,pensla,1,nypa,plocka,pensla,,,0,94,94,48,,,,,,,,,,,,,,,,,,,return,2.21410608008,,,2018_Jun_14_1448,59.6487213268,verb_norming_oral_input,001,906,
CLUTCH,gripa tag i,sätta ihop,dra ut,2,dra ut,gripa tag i,sätta ihop,Arm,arm,0,95,95,13,0,0,0,0,,,,,,,,,,,,,3,14.934,,,,,2018_Jun_14_1448,59.6487213268,verb_norming_oral_input,001,906,
CLUTCH,gripa tag i,sätta ihop,dra ut,2,dra ut,gripa tag i,sätta ihop,Leg,leg,0,95,95,13,0,1,1,1,,,,,,,,,,,,,3,2.393,,,,,2018_Jun_14_1448,59.6487213268,verb_norming_oral_input,001,906,
CLUTCH,gripa tag i,sätta ihop,dra ut,2,dra ut,gripa tag i,sätta ihop,,,0,95,95,13,,,,,,,,,,,,,,,,,,,return,1.71101690797,,,2018_Jun_14_1448,59.6487213268,verb_norming_oral_input,001,906,
KNOCK,knacka,krocka,klicka,2,krocka,knacka,klicka,Arm,arm,0,96,96,38,0,0,0,0,,,,,,,,,,,,,7,5.206,,,,,2018_Jun_14_1448,59.6487213268,verb_norming_oral_input,001,906,
KNOCK,knacka,krocka,klicka,2,krocka,knacka,klicka,Leg,leg,0,96,96,38,0,1,1,1,,,,,,,,,,,,,3,2.643,,,,,2018_Jun_14_1448,59.6487213268,verb_norming_oral_input,001,906,
KNOCK,knacka,krocka,klicka,2,krocka,knacka,klicka,,,0,96,96,38,,,,,,,,,,,,,,,,,,,return,1.87878086258,,,2018_Jun_14_1448,59.6487213268,verb_norming_oral_input,001,906,
SNATCH,rycka till sig,knuffa ifrån sig,plocka åt sig,2,knuffa ifrån sig,rycka till sig,plocka åt sig,Arm,arm,0,97,97,77,0,0,0,0,,,,,,,,,,,,,5,14.379,,,,,2018_Jun_14_1448,59.6487213268,verb_norming_oral_input,001,906,
SNATCH,rycka till sig,knuffa ifrån sig,plocka åt sig,2,knuffa ifrån sig,rycka till sig,plocka åt sig,Leg,leg,0,97,97,77,0,1,1,1,,,,,,,,,,,,,1,1.94,,,,,2018_Jun_14_1448,59.6487213268,verb_norming_oral_input,001,906,
SNATCH,rycka till sig,knuffa ifrån sig,plocka åt sig,2,knuffa ifrån sig,rycka till sig,plocka åt sig,,,0,97,97,77,,,,,,,,,,,,,,,,,,,return,1.77816002532,,,2018_Jun_14_1448,59.6487213268,verb_norming_oral_input,001,906,
PRANCE,kråma sig,promenera,traska,1,kråma sig,traska,promenera,Arm,arm,0,98,98,53,0,0,0,0,,,,,,,,,,,,,3,7.89,,,,,2018_Jun_14_1448,59.6487213268,verb_norming_oral_input,001,906,
PRANCE,kråma sig,promenera,traska,1,kråma sig,traska,promenera,Leg,leg,0,98,98,53,0,1,1,1,,,,,,,,,,,,,3,0.999,,,,,2018_Jun_14_1448,59.6487213268,verb_norming_oral_input,001,906,
PRANCE,kråma sig,promenera,traska,1,kråma sig,traska,promenera,,,0,98,98,53,,,,,,,,,,,,,,,,,,,return,23.764989014,,,2018_Jun_14_1448,59.6487213268,verb_norming_oral_input,001,906,
SCRUB,skrubba,sopa,skrapa,2,sopa,skrubba,skrapa,Arm,arm,0,99,99,66,0,0,0,0,,,,,,,,,,,,,6,12.3,,,,,2018_Jun_14_1448,59.6487213268,verb_norming_oral_input,001,906,
SCRUB,skrubba,sopa,skrapa,2,sopa,skrubba,skrapa,Leg,leg,0,99,99,66,0,1,1,1,,,,,,,,,,,,,1,1.572,,,,,2018_Jun_14_1448,59.6487213268,verb_norming_oral_input,001,906,
SCRUB,skrubba,sopa,skrapa,2,sopa,skrubba,skrapa,,,0,99,99,66,,,,,,,,,,,,,,,,,,,return,1.8117076798,,,2018_Jun_14_1448,59.6487213268,verb_norming_oral_input,001,906,
GRAB,gripa tag i,fästa ihop,smälla till,1,gripa tag i,smälla till,fästa ihop,Arm,arm,0,100,100,26,0,0,0,0,,,,,,,,,,,,,7,10.977,,,,,2018_Jun_14_1448,59.6487213268,verb_norming_oral_input,001,906,
GRAB,gripa tag i,fästa ihop,smälla till,1,gripa tag i,smälla till,fästa ihop,Leg,leg,0,100,100,26,0,1,1,1,,,,,,,,,,,,,1,5.411,,,,,2018_Jun_14_1448,59.6487213268,verb_norming_oral_input,001,906,
GRAB,gripa tag i,fästa ihop,smälla till,1,gripa tag i,smälla till,fästa ihop,,,0,100,100,26,,,,,,,,,,,,,,,,,,,return,3.4720378263,,,2018_Jun_14_1448,59.6487213268,verb_norming_oral_input,001,906,
WOBBLE,vingla,ramla,glida,3,glida,ramla,vingla,Arm,arm,0,101,101,110,0,0,0,0,,,,,,,,,,,,,2,7.422,,,,,2018_Jun_14_1448,59.6487213268,verb_norming_oral_input,001,906,
WOBBLE,vingla,ramla,glida,3,glida,ramla,vingla,Leg,leg,0,101,101,110,0,1,1,1,,,,,,,,,,,,,6,2.644,,,,,2018_Jun_14_1448,59.6487213268,verb_norming_oral_input,001,906,
WOBBLE,vingla,ramla,glida,3,glida,ramla,vingla,,,0,101,101,110,,,,,,,,,,,,,,,,,,,return,3.63989621235,,,2018_Jun_14_1448,59.6487213268,verb_norming_oral_input,001,906,
FLEE,fly,lyfta,flyga,3,lyfta,flyga,fly,Arm,arm,0,102,102,22,0,0,0,0,,,,,,,,,,,,,1,3.28,,,,,2018_Jun_14_1448,59.6487213268,verb_norming_oral_input,001,906,
FLEE,fly,lyfta,flyga,3,lyfta,flyga,fly,Leg,leg,0,102,102,22,0,1,1,1,,,,,,,,,,,,,7,1.673,,,,,2018_Jun_14_1448,59.6487213268,verb_norming_oral_input,001,906,
FLEE,fly,lyfta,flyga,3,lyfta,flyga,fly,,,0,102,102,22,,,,,,,,,,,,,,,,,,,return,3.22045353164,,,2018_Jun_14_1448,59.6487213268,verb_norming_oral_input,001,906,
TROT,trava,promenera,flanera,3,flanera,promenera,trava,Arm,arm,0,103,103,100,0,0,0,0,,,,,,,,,,,,,1,13.98,,,,,2018_Jun_14_1448,59.6487213268,verb_norming_oral_input,001,906,
TROT,trava,promenera,flanera,3,flanera,promenera,trava,Leg,leg,0,103,103,100,0,1,1,1,,,,,,,,,,,,,7,3.014,,,,,2018_Jun_14_1448,59.6487213268,verb_norming_oral_input,001,906,
TROT,trava,promenera,flanera,3,flanera,promenera,trava,,,0,103,103,100,,,,,,,,,,,,,,,,,,,return,16.87201894,,,2018_Jun_14_1448,59.6487213268,verb_norming_oral_input,001,906,
SQUEEZE,klämma,knuffa,knäppa,2,knuffa,klämma,knäppa,Arm,arm,0,104,104,80,0,0,0,0,,,,,,,,,,,,,6,4.379,,,,,2018_Jun_14_1448,59.6487213268,verb_norming_oral_input,001,906,
SQUEEZE,klämma,knuffa,knäppa,2,knuffa,klämma,knäppa,Leg,leg,0,104,104,80,0,1,1,1,,,,,,,,,,,,,4,4.034,,,,,2018_Jun_14_1448,59.6487213268,verb_norming_oral_input,001,906,
SQUEEZE,klämma,knuffa,knäppa,2,knuffa,klämma,knäppa,,,0,104,104,80,,,,,,,,,,,,,,,,,,,return,1.49287832925,,,2018_Jun_14_1448,59.6487213268,verb_norming_oral_input,001,906,
SEIZE,fånga,klämma,fästa,2,klämma,fånga,fästa,Arm,arm,0,105,105,68,0,0,0,0,,,,,,,,,,,,,4,14.699,,,,,2018_Jun_14_1448,59.6487213268,verb_norming_oral_input,001,906,
SEIZE,fånga,klämma,fästa,2,klämma,fånga,fästa,Leg,leg,0,105,105,68,0,1,1,1,,,,,,,,,,,,,3,1.822,,,,,2018_Jun_14_1448,59.6487213268,verb_norming_oral_input,001,906,
SEIZE,fånga,klämma,fästa,2,klämma,fånga,fästa,,,0,105,105,68,,,,,,,,,,,,,,,,,,,return,5.88702840095,,,2018_Jun_14_1448,59.6487213268,verb_norming_oral_input,001,906,
NIP,nypa,peta,nudda,2,nudda,nypa,peta,Arm,arm,0,106,106,44,0,0,0,0,,,,,,,,,,,,,6,14.114,,,,,2018_Jun_14_1448,59.6487213268,verb_norming_oral_input,001,906,
NIP,nypa,peta,nudda,2,nudda,nypa,peta,Leg,leg,0,106,106,44,0,1,1,1,,,,,,,,,,,,,2,0.901,,,,,2018_Jun_14_1448,59.6487213268,verb_norming_oral_input,001,906,
NIP,nypa,peta,nudda,2,nudda,nypa,peta,,,0,106,106,44,,,,,,,,,,,,,,,,,,,return,7.52938259625,,,2018_Jun_14_1448,59.6487213268,verb_norming_oral_input,001,906,
SKATE,åka skridskor,åka skidor,åka kälke,3,åka kälke,åka skidor,åka skridskor,Arm,arm,0,107,107,70,0,0,0,0,,,,,,,,,,,,,2,3.513,,,,,2018_Jun_14_1448,59.6487213268,verb_norming_oral_input,001,906,
SKATE,åka skridskor,åka skidor,åka kälke,3,åka kälke,åka skidor,åka skridskor,Leg,leg,0,107,107,70,0,1,1,1,,,,,,,,,,,,,6,14.651,,,,,2018_Jun_14_1448,59.6487213268,verb_norming_oral_input,001,906,
SKATE,åka skridskor,åka skidor,åka kälke,3,åka kälke,åka skidor,åka skridskor,,,0,107,107,70,,,,,,,,,,,,,,,,,,,return,32.2511615263,,,2018_Jun_14_1448,59.6487213268,verb_norming_oral_input,001,906,
SKIM,skumma,vispa,sleva,2,sleva,skumma,vispa,Arm,arm,0,108,108,71,0,0,0,0,,,,,,,,,,,,,3,3.833,,,,,2018_Jun_14_1448,59.6487213268,verb_norming_oral_input,001,906,
SKIM,skumma,vispa,sleva,2,sleva,skumma,vispa,Leg,leg,0,108,108,71,0,1,1,1,,,,,,,,,,,,,3,0.834,,,,,2018_Jun_14_1448,59.6487213268,verb_norming_oral_input,001,906,
SKIM,skumma,vispa,sleva,2,sleva,skumma,vispa,,,0,108,108,71,,,,,,,,,,,,,,,,,,,return,2.16391834329,,,2018_Jun_14_1448,59.6487213268,verb_norming_oral_input,001,906,
HACK,hacka,skära,kåpa,2,skära,hacka,kåpa,Arm,arm,0,109,109,30,0,0,0,0,,,,,,,,,,,,,6,4.856,,,,,2018_Jun_14_1448,59.6487213268,verb_norming_oral_input,001,906,
HACK,hacka,skära,kåpa,2,skära,hacka,kåpa,Leg,leg,0,109,109,30,0,1,1,1,,,,,,,,,,,,,2,1.237,,,,,2018_Jun_14_1448,59.6487213268,verb_norming_oral_input,001,906,
HACK,hacka,skära,kåpa,2,skära,hacka,kåpa,,,0,109,109,30,,,,,,,,,,,,,,,,,,,return,1.59372872576,,,2018_Jun_14_1448,59.6487213268,verb_norming_oral_input,001,906,
PACE,gå fram och tillbaka,luffa runt,rusa fram,1,gå fram och tillbaka,rusa fram,luffa runt,Arm,arm,0,110,110,45,0,0,0,0,,,,,,,,,,,,,2,7.154,,,,,2018_Jun_14_1448,59.6487213268,verb_norming_oral_input,001,906,
PACE,gå fram och tillbaka,luffa runt,rusa fram,1,gå fram och tillbaka,rusa fram,luffa runt,Leg,leg,0,110,110,45,0,1,1,1,,,,,,,,,,,,,7,2.829,,,,,2018_Jun_14_1448,59.6487213268,verb_norming_oral_input,001,906,
PACE,gå fram och tillbaka,luffa runt,rusa fram,1,gå fram och tillbaka,rusa fram,luffa runt,,,0,110,110,45,,,,,,,,,,,,,,,,,,,return,2.63348198711,,,2018_Jun_14_1448,59.6487213268,verb_norming_oral_input,001,906,
STAMP,stampa,kliva,skutta,1,stampa,skutta,kliva,Arm,arm,0,111,111,83,0,0,0,0,,,,,,,,,,,,,1,5.007,,,,,2018_Jun_14_1448,59.6487213268,verb_norming_oral_input,001,906,
STAMP,stampa,kliva,skutta,1,stampa,skutta,kliva,Leg,leg,0,111,111,83,0,1,1,1,,,,,,,,,,,,,5,1.32,,,,,2018_Jun_14_1448,59.6487213268,verb_norming_oral_input,001,906,
STAMP,stampa,kliva,skutta,1,stampa,skutta,kliva,,,0,111,111,83,,,,,,,,,,,,,,,,,,,return,1.8620072329,,,2018_Jun_14_1448,59.6487213268,verb_norming_oral_input,001,906,
,,,,,,,,,,,,,,,,,,,,,,,,,,,,,,,,,,space,18.7335615229,2018_Jun_14_1448,59.6487213268,verb_norming_oral_input,001,906,
