item,type,word1,word2,word3,word4,word_duration,follow_blank,SOA,training_block.thisRepN,training_block.thisTrialN,training_block.thisN,training_block.thisIndex,word_presentation_training.thisRepN,word_presentation_training.thisTrialN,word_presentation_training.thisN,word_presentation_training.thisIndex,experimental_blocks.thisRepN,experimental_blocks.thisTrialN,experimental_blocks.thisN,experimental_blocks.thisIndex,word_presentation.thisRepN,word_presentation.thisTrialN,word_presentation.thisN,word_presentation.thisIndex,key_resp_13.keys,key_resp_13.rt,key_resp_6.keys,key_resp_6.rt,key_resp_2.keys,key_resp_2.rt,key_resp_8.keys,key_resp_8.rt,key_resp_7.keys,key_resp_7.rt,key_resp_3.keys,key_resp_3.rt,date,frameRate,expName,session,participant,
,,,,,,,,,,,,,,,,,,,,,,,,,space,609.508596189,,,,,,,,,,,2018_Jun_18_0855,59.2601342571,sheb_replic_pilot_control,001,907,
,,,,,,,,,,,,,,,,,,,,,,,,,,,space,2.75080394809,,,,,,,,,2018_Jun_18_0855,59.2601342571,sheb_replic_pilot_control,001,907,
3,training,lick,ruin,chew,soothe,,,,0,0,0,0,0,0,0,2,,,,,,,,,,,,,space,30.8587137542,,,,,,,2018_Jun_18_0855,59.2601342571,sheb_replic_pilot_control,001,907,
1,training,wait,bless,blush,sigh,,,,0,0,0,0,0,1,1,0,,,,,,,,,,,,,space,9.0897972182,,,,,,,2018_Jun_18_0855,59.2601342571,sheb_replic_pilot_control,001,907,
2,training,like,thank,stare,yell,,,,0,0,0,0,0,2,2,1,,,,,,,,,,,,,space,8.31874472283,,,,,,,2018_Jun_18_0855,59.2601342571,sheb_replic_pilot_control,001,907,
4,training,save,look,stay,print,,,,0,0,0,0,0,3,3,3,,,,,,,,,,,,,space,6.89320795734,,,,,,,2018_Jun_18_0855,59.2601342571,sheb_replic_pilot_control,001,907,
,,,,,,,,,0,0,0,0,,,,,,,,,,,,,,,,,,,s,11.2032828028,space,2.19694841496,,,2018_Jun_18_0855,59.2601342571,sheb_replic_pilot_control,001,907,
,arm,grasp,scratch,grate,stir,0.1,0.4,0.5,0,0,0,0,,,,,0,0,0,0,0,0,0,0,,,,,space,7.44688450608,,,,,,,2018_Jun_18_0855,59.2601342571,sheb_replic_pilot_control,001,907,
,leg,tread,step,jog,sprint,0.1,0.4,0.5,0,0,0,0,,,,,0,0,0,0,0,1,1,1,,,,,space,8.33563642384,,,,,,,2018_Jun_18_0855,59.2601342571,sheb_replic_pilot_control,001,907,
,leg,stomp,jump,inch,roam,0.1,0.4,0.5,0,0,0,0,,,,,0,0,0,0,0,2,2,2,,,,,space,6.02106918873,,,,,,,2018_Jun_18_0855,59.2601342571,sheb_replic_pilot_control,001,907,
,arm,bind,cut,dunk,nip,0.1,0.4,0.5,0,0,0,0,,,,,0,0,0,0,0,3,3,3,,,,,space,13.3836682475,,,,,,,2018_Jun_18_0855,59.2601342571,sheb_replic_pilot_control,001,907,
,leg,skate,kick,slip,stroll,0.1,0.4,0.5,0,0,0,0,,,,,0,0,0,0,0,4,4,4,,,,,space,7.94975714624,,,,,,,2018_Jun_18_0855,59.2601342571,sheb_replic_pilot_control,001,907,
,arm,clap,wipe,switch,hack,0.1,0.4,0.5,0,0,0,0,,,,,0,0,0,0,0,5,5,5,,,,,space,12.8135780797,,,,,,,2018_Jun_18_0855,59.2601342571,sheb_replic_pilot_control,001,907,
,leg,stumble,plod,glide,mount,0.1,0.4,0.5,0,0,0,0,,,,,0,0,0,0,0,6,6,6,,,,,space,10.4491461101,,,,,,,2018_Jun_18_0855,59.2601342571,sheb_replic_pilot_control,001,907,
,leg,wander,wade,scuff,stride,0.1,0.4,0.5,0,0,0,0,,,,,0,0,0,0,0,7,7,7,,,,,space,6.22238395352,,,,,,,2018_Jun_18_0855,59.2601342571,sheb_replic_pilot_control,001,907,
,arm,brush,rub,polish,click,0.1,0.4,0.5,0,0,0,0,,,,,0,0,0,0,0,8,8,8,,,,,space,10.7505226305,,,,,,,2018_Jun_18_0855,59.2601342571,sheb_replic_pilot_control,001,907,
,leg,leap,stray,kneel,slide,0.1,0.4,0.5,0,0,0,0,,,,,0,0,0,0,0,9,9,9,,,,,space,5.97092076602,,,,,,,2018_Jun_18_0855,59.2601342571,sheb_replic_pilot_control,001,907,
,leg,dance,flee,bounce,run,0.1,0.4,0.5,0,0,0,0,,,,,0,0,0,0,0,10,10,10,,,,,space,5.14892646903,,,,,,,2018_Jun_18_0855,59.2601342571,sheb_replic_pilot_control,001,907,
,arm,grip,poke,wrap,fold,0.1,0.4,0.5,0,0,0,0,,,,,0,0,0,0,0,11,11,11,,,,,space,5.93722744886,,,,,,,2018_Jun_18_0855,59.2601342571,sheb_replic_pilot_control,001,907,
,arm,bash,seize,stab,lift,0.1,0.4,0.5,0,0,0,0,,,,,0,0,0,0,0,12,12,12,,,,,space,7.79881443586,,,,,,,2018_Jun_18_0855,59.2601342571,sheb_replic_pilot_control,001,907,
,leg,skip,slither,hike,roll,0.1,0.4,0.5,0,0,0,0,,,,,0,0,0,0,0,13,13,13,,,,,space,12.6121684887,,,,,,,2018_Jun_18_0855,59.2601342571,sheb_replic_pilot_control,001,907,
,arm,carve,braid,squeeze,shake,0.1,0.4,0.5,0,0,0,0,,,,,0,0,0,0,0,14,14,14,,,,,space,6.72553870152,,,,,,,2018_Jun_18_0855,59.2601342571,sheb_replic_pilot_control,001,907,
,arm,file,slap,grab,throw,0.1,0.4,0.5,0,0,0,0,,,,,0,0,0,0,0,15,15,15,,,,,space,7.88264787844,,,,,,,2018_Jun_18_0855,59.2601342571,sheb_replic_pilot_control,001,907,
,leg,rush,strut,ramble,trudge,0.1,0.4,0.5,0,0,0,0,,,,,0,0,0,0,0,16,16,16,,,,,space,10.9684189357,,,,,,,2018_Jun_18_0855,59.2601342571,sheb_replic_pilot_control,001,907,
,leg,crawl,sway,wobble,sneak,0.1,0.4,0.5,0,0,0,0,,,,,0,0,0,0,0,17,17,17,,,,,space,11.2204273736,,,,,,,2018_Jun_18_0855,59.2601342571,sheb_replic_pilot_control,001,907,
,arm,skim,pat,catch,dig,0.1,0.4,0.5,0,0,0,0,,,,,0,0,0,0,0,18,18,18,,,,,space,10.7505293473,,,,,,,2018_Jun_18_0855,59.2601342571,sheb_replic_pilot_control,001,907,
,arm,pinch,knock,scrub,pull,0.1,0.4,0.5,0,0,0,0,,,,,0,0,0,0,0,19,19,19,,,,,space,12.4443585741,,,,,,,2018_Jun_18_0855,59.2601342571,sheb_replic_pilot_control,001,907,
,leg,flit,traipse,march,pace,0.1,0.4,0.5,0,0,0,0,,,,,0,0,0,0,0,20,20,20,,,,,space,11.7735160001,,,,,,,2018_Jun_18_0855,59.2601342571,sheb_replic_pilot_control,001,907,
,arm,peel,punch,snatch,push,0.1,0.4,0.5,0,0,0,0,,,,,0,0,0,0,0,21,21,21,,,,,space,6.54103029419,,,,,,,2018_Jun_18_0855,59.2601342571,sheb_replic_pilot_control,001,907,
,leg,prance,walk,tiptoe,climb,0.1,0.4,0.5,0,0,0,0,,,,,0,0,0,0,0,22,22,22,,,,,space,7.4299592208,,,,,,,2018_Jun_18_0855,59.2601342571,sheb_replic_pilot_control,001,907,
,arm,delve,chop,scoop,tug,0.1,0.4,0.5,0,0,0,0,,,,,0,0,0,0,0,23,23,23,,,,,space,9.47615062662,,,,,,,2018_Jun_18_0855,59.2601342571,sheb_replic_pilot_control,001,907,
,arm,toss,whip,clean,wash,0.1,0.4,0.5,0,0,0,0,,,,,0,0,0,0,0,24,24,24,,,,,space,8.43598028722,,,,,,,2018_Jun_18_0855,59.2601342571,sheb_replic_pilot_control,001,907,
,leg,creep,limp,trek,stamp,0.1,0.4,0.5,0,0,0,0,,,,,0,0,0,0,0,25,25,25,,,,,space,12.3772540476,,,,,,,2018_Jun_18_0855,59.2601342571,sheb_replic_pilot_control,001,907,
,arm,scrape,clutch,claw,twine,0.1,0.4,0.5,0,0,0,0,,,,,0,0,0,0,0,26,26,26,,,,,space,11.6395764115,,,,,,,2018_Jun_18_0855,59.2601342571,sheb_replic_pilot_control,001,907,
,leg,trip,stagger,trot,hop,0.1,0.4,0.5,0,0,0,0,,,,,0,0,0,0,0,27,27,27,,,,,space,6.17207353611,,,,,,,2018_Jun_18_0855,59.2601342571,sheb_replic_pilot_control,001,907,
,,,,,,0.1,0.4,0.5,0,0,0,0,,,,,0,0,0,0,,,,,,,,,,,,,,,,,2018_Jun_18_0855,59.2601342571,sheb_replic_pilot_control,001,907,
,leg,sneak,sprint,leap,hop,0.3,0.4,0.7,0,0,0,0,,,,,0,1,1,2,0,0,0,0,,,,,space,10.2473975156,,,,,,,2018_Jun_18_0855,59.2601342571,sheb_replic_pilot_control,001,907,
,leg,walk,step,jog,traipse,0.3,0.4,0.7,0,0,0,0,,,,,0,1,1,2,0,1,1,1,,,,,space,6.17210316929,,,,,,,2018_Jun_18_0855,59.2601342571,sheb_replic_pilot_control,001,907,
,arm,pull,twine,scratch,snatch,0.3,0.4,0.7,0,0,0,0,,,,,0,1,1,2,0,2,2,2,,,,,space,5.28251085463,,,,,,,2018_Jun_18_0855,59.2601342571,sheb_replic_pilot_control,001,907,
,arm,dig,toss,chop,squeeze,0.3,0.4,0.7,0,0,0,0,,,,,0,1,1,2,0,3,3,3,,,,,space,8.3677358712,,,,,,,2018_Jun_18_0855,59.2601342571,sheb_replic_pilot_control,001,907,
,leg,slide,stamp,stray,trot,0.3,0.4,0.7,0,0,0,0,,,,,0,1,1,2,0,4,4,4,,,,,space,8.72119171203,,,,,,,2018_Jun_18_0855,59.2601342571,sheb_replic_pilot_control,001,907,
,leg,skip,stumble,slip,stride,0.3,0.4,0.7,0,0,0,0,,,,,0,1,1,2,0,5,5,5,,,,,space,6.00408147622,,,,,,,2018_Jun_18_0855,59.2601342571,sheb_replic_pilot_control,001,907,
,leg,slither,rush,hike,limp,0.3,0.4,0.7,0,0,0,0,,,,,0,1,1,2,0,6,6,6,,,,,space,12.8976948154,,,,,,,2018_Jun_18_0855,59.2601342571,sheb_replic_pilot_control,001,907,
,arm,scrub,clap,slap,whip,0.3,0.4,0.7,0,0,0,0,,,,,0,1,1,2,0,7,7,7,,,,,space,11.053403726,,,,,,,2018_Jun_18_0855,59.2601342571,sheb_replic_pilot_control,001,907,
,leg,skate,tread,run,scuff,0.3,0.4,0.7,0,0,0,0,,,,,0,1,1,2,0,8,8,8,,,,,space,15.2949520476,,,,,,,2018_Jun_18_0855,59.2601342571,sheb_replic_pilot_control,001,907,
,leg,flee,kick,climb,flit,0.3,0.4,0.7,0,0,0,0,,,,,0,1,1,2,0,9,9,9,,,,,space,6.08718120134,,,,,,,2018_Jun_18_0855,59.2601342571,sheb_replic_pilot_control,001,907,
,leg,glide,trudge,inch,march,0.3,0.4,0.7,0,0,0,0,,,,,0,1,1,2,0,10,10,10,,,,,space,9.37460207582,,,,,,,2018_Jun_18_0855,59.2601342571,sheb_replic_pilot_control,001,907,
,arm,carve,grab,braid,poke,0.3,0.4,0.7,0,0,0,0,,,,,0,1,1,2,0,11,11,11,,,,,space,6.42361732585,,,,,,,2018_Jun_18_0855,59.2601342571,sheb_replic_pilot_control,001,907,
,arm,grate,nip,shake,grip,0.3,0.4,0.7,0,0,0,0,,,,,0,1,1,2,0,12,12,12,,,,,space,7.71488814266,,,,,,,2018_Jun_18_0855,59.2601342571,sheb_replic_pilot_control,001,907,
,arm,throw,brush,pinch,cut,0.3,0.4,0.7,0,0,0,0,,,,,0,1,1,2,0,13,13,13,,,,,space,6.69187383221,,,,,,,2018_Jun_18_0855,59.2601342571,sheb_replic_pilot_control,001,907,
,leg,strut,trek,wander,jump,0.3,0.4,0.7,0,0,0,0,,,,,0,1,1,2,0,14,14,14,,,,,space,8.90540181205,,,,,,,2018_Jun_18_0855,59.2601342571,sheb_replic_pilot_control,001,907,
,arm,punch,bind,claw,polish,0.3,0.4,0.7,0,0,0,0,,,,,0,1,1,2,0,15,15,15,,,,,space,10.5338065159,,,,,,,2018_Jun_18_0855,59.2601342571,sheb_replic_pilot_control,001,907,
,arm,fold,hack,push,catch,0.3,0.4,0.7,0,0,0,0,,,,,0,1,1,2,0,16,16,16,,,,,space,9.61008152284,,,,,,,2018_Jun_18_0855,59.2601342571,sheb_replic_pilot_control,001,907,
,arm,scoop,wrap,pat,wipe,0.3,0.4,0.7,0,0,0,0,,,,,0,1,1,2,0,17,17,17,,,,,space,6.87639646346,,,,,,,2018_Jun_18_0855,59.2601342571,sheb_replic_pilot_control,001,907,
,leg,plod,stagger,wade,stomp,0.3,0.4,0.7,0,0,0,0,,,,,0,1,1,2,0,18,18,18,,,,,space,6.37343373844,,,,,,,2018_Jun_18_0855,59.2601342571,sheb_replic_pilot_control,001,907,
,arm,scrape,tug,click,bash,0.3,0.4,0.7,0,0,0,0,,,,,0,1,1,2,0,19,19,19,,,,,space,10.6163633612,,,,,,,2018_Jun_18_0855,59.2601342571,sheb_replic_pilot_control,001,907,
,arm,knock,file,dunk,stir,0.3,0.4,0.7,0,0,0,0,,,,,0,1,1,2,0,20,20,20,,,,,space,7.12802204076,,,,,,,2018_Jun_18_0855,59.2601342571,sheb_replic_pilot_control,001,907,
,leg,kneel,dance,mount,pace,0.3,0.4,0.7,0,0,0,0,,,,,0,1,1,2,0,21,21,21,,,,,space,10.0796832174,,,,,,,2018_Jun_18_0855,59.2601342571,sheb_replic_pilot_control,001,907,
,arm,rub,peel,stab,clean,0.3,0.4,0.7,0,0,0,0,,,,,0,1,1,2,0,22,22,22,,,,,space,8.50261977039,,,,,,,2018_Jun_18_0855,59.2601342571,sheb_replic_pilot_control,001,907,
,arm,switch,clutch,delve,wash,0.3,0.4,0.7,0,0,0,0,,,,,0,1,1,2,0,23,23,23,,,,,space,9.79367011636,,,,,,,2018_Jun_18_0855,59.2601342571,sheb_replic_pilot_control,001,907,
,leg,crawl,tiptoe,ramble,creep,0.3,0.4,0.7,0,0,0,0,,,,,0,1,1,2,0,24,24,24,,,,,space,7.2954076083,,,,,,,2018_Jun_18_0855,59.2601342571,sheb_replic_pilot_control,001,907,
,leg,wobble,roam,roll,sway,0.3,0.4,0.7,0,0,0,0,,,,,0,1,1,2,0,25,25,25,,,,,space,12.6624303077,,,,,,,2018_Jun_18_0855,59.2601342571,sheb_replic_pilot_control,001,907,
,arm,grasp,skim,lift,seize,0.3,0.4,0.7,0,0,0,0,,,,,0,1,1,2,0,26,26,26,,,,,space,9.81170170691,,,,,,,2018_Jun_18_0855,59.2601342571,sheb_replic_pilot_control,001,907,
,leg,trip,bounce,prance,stroll,0.3,0.4,0.7,0,0,0,0,,,,,0,1,1,2,0,27,27,27,,,,,space,11.5891032092,,,,,,,2018_Jun_18_0855,59.2601342571,sheb_replic_pilot_control,001,907,
,,,,,,0.3,0.4,0.7,0,0,0,0,,,,,0,1,1,2,,,,,,,,,,,,,,,,,2018_Jun_18_0855,59.2601342571,sheb_replic_pilot_control,001,907,
,leg,sneak,stride,sway,wander,0.4,0.4,0.8,0,0,0,0,,,,,0,2,2,3,0,0,0,0,,,,,space,8.97320923749,,,,,,,2018_Jun_18_0855,59.2601342571,sheb_replic_pilot_control,001,907,
,leg,skate,slip,limp,climb,0.4,0.4,0.8,0,0,0,0,,,,,0,2,2,3,0,1,1,1,,,,,space,17.5596253102,,,,,,,2018_Jun_18_0855,59.2601342571,sheb_replic_pilot_control,001,907,
,leg,prance,stray,jump,mount,0.4,0.4,0.8,0,0,0,0,,,,,0,2,2,3,0,2,2,2,,,,,space,7.27903429033,,,,,,,2018_Jun_18_0855,59.2601342571,sheb_replic_pilot_control,001,907,
,arm,clap,whip,wash,clean,0.4,0.4,0.8,0,0,0,0,,,,,0,2,2,3,0,3,3,3,,,,,space,9.37533776883,,,,,,,2018_Jun_18_0855,59.2601342571,sheb_replic_pilot_control,001,907,
,arm,stir,file,pat,pull,0.4,0.4,0.8,0,0,0,0,,,,,0,2,2,3,0,4,4,4,,,,,space,5.5011756469,,,,,,,2018_Jun_18_0855,59.2601342571,sheb_replic_pilot_control,001,907,
,leg,flit,plod,ramble,strut,0.4,0.4,0.8,0,0,0,0,,,,,0,2,2,3,0,5,5,5,,,,,space,7.53121815668,,,,,,,2018_Jun_18_0855,59.2601342571,sheb_replic_pilot_control,001,907,
,arm,push,skim,tug,poke,0.4,0.4,0.8,0,0,0,0,,,,,0,2,2,3,0,6,6,6,,,,,space,9.30803568783,,,,,,,2018_Jun_18_0855,59.2601342571,sheb_replic_pilot_control,001,907,
,leg,jog,march,flee,pace,0.4,0.4,0.8,0,0,0,0,,,,,0,2,2,3,0,7,7,7,,,,,space,6.15522174111,,,,,,,2018_Jun_18_0855,59.2601342571,sheb_replic_pilot_control,001,907,
,arm,bash,stab,carve,grip,0.4,0.4,0.8,0,0,0,0,,,,,0,2,2,3,0,8,8,8,,,,,space,9.14051341257,,,,,,,2018_Jun_18_0855,59.2601342571,sheb_replic_pilot_control,001,907,
,leg,bounce,tiptoe,scuff,sprint,0.4,0.4,0.8,0,0,0,0,,,,,0,2,2,3,0,9,9,9,,,,,space,11.387786864,,,,,,,2018_Jun_18_0855,59.2601342571,sheb_replic_pilot_control,001,907,
,leg,glide,run,trot,trudge,0.4,0.4,0.8,0,0,0,0,,,,,0,2,2,3,0,10,10,10,,,,,space,11.455495117,,,,,,,2018_Jun_18_0855,59.2601342571,sheb_replic_pilot_control,001,907,
,arm,fold,rub,dig,grab,0.4,0.4,0.8,0,0,0,0,,,,,0,2,2,3,0,11,11,11,,,,,space,11.2704307913,,,,,,,2018_Jun_18_0855,59.2601342571,sheb_replic_pilot_control,001,907,
,leg,trip,kick,roam,stamp,0.4,0.4,0.8,0,0,0,0,,,,,0,2,2,3,0,12,12,12,,,,,space,7.71575303631,,,,,,,2018_Jun_18_0855,59.2601342571,sheb_replic_pilot_control,001,907,
,arm,catch,click,nip,clutch,0.4,0.4,0.8,0,0,0,0,,,,,0,2,2,3,0,13,13,13,,,,,space,10.2976703977,,,,,,,2018_Jun_18_0855,59.2601342571,sheb_replic_pilot_control,001,907,
,leg,stumble,wobble,stagger,slither,0.4,0.4,0.8,0,0,0,0,,,,,0,2,2,3,0,14,14,14,,,,,space,11.3882199035,,,,,,,2018_Jun_18_0855,59.2601342571,sheb_replic_pilot_control,001,907,
,leg,leap,stomp,walk,slide,0.4,0.4,0.8,0,0,0,0,,,,,0,2,2,3,0,15,15,15,,,,,space,9.8616130642,,,,,,,2018_Jun_18_0855,59.2601342571,sheb_replic_pilot_control,001,907,
,arm,scoop,scrape,grasp,brush,0.4,0.4,0.8,0,0,0,0,,,,,0,2,2,3,0,16,16,16,,,,,space,8.35227051376,,,,,,,2018_Jun_18_0855,59.2601342571,sheb_replic_pilot_control,001,907,
,arm,throw,switch,pinch,snatch,0.4,0.4,0.8,0,0,0,0,,,,,0,2,2,3,0,17,17,17,,,,,space,7.37957294246,,,,,,,2018_Jun_18_0855,59.2601342571,sheb_replic_pilot_control,001,907,
,arm,claw,wrap,lift,chop,0.4,0.4,0.8,0,0,0,0,,,,,0,2,2,3,0,18,18,18,,,,,space,6.40704526804,,,,,,,2018_Jun_18_0855,59.2601342571,sheb_replic_pilot_control,001,907,
,leg,crawl,tread,inch,roll,0.4,0.4,0.8,0,0,0,0,,,,,0,2,2,3,0,19,19,19,,,,,space,9.10702278633,,,,,,,2018_Jun_18_0855,59.2601342571,sheb_replic_pilot_control,001,907,
,leg,traipse,hike,hop,creep,0.4,0.4,0.8,0,0,0,0,,,,,0,2,2,3,0,20,20,20,,,,,space,12.5618248821,,,,,,,2018_Jun_18_0855,59.2601342571,sheb_replic_pilot_control,001,907,
,arm,delve,wipe,grate,twine,0.4,0.4,0.8,0,0,0,0,,,,,0,2,2,3,0,21,21,21,,,,,space,9.22425756051,,,,,,,2018_Jun_18_0855,59.2601342571,sheb_replic_pilot_control,001,907,
,leg,skip,dance,step,rush,0.4,0.4,0.8,0,0,0,0,,,,,0,2,2,3,0,22,22,22,,,,,space,10.3983528695,,,,,,,2018_Jun_18_0855,59.2601342571,sheb_replic_pilot_control,001,907,
,arm,dunk,punch,peel,seize,0.4,0.4,0.8,0,0,0,0,,,,,0,2,2,3,0,23,23,23,,,,,space,10.4653779791,,,,,,,2018_Jun_18_0855,59.2601342571,sheb_replic_pilot_control,001,907,
,arm,polish,braid,cut,bind,0.4,0.4,0.8,0,0,0,0,,,,,0,2,2,3,0,24,24,24,,,,,space,5.53430000707,,,,,,,2018_Jun_18_0855,59.2601342571,sheb_replic_pilot_control,001,907,
,leg,kneel,trek,wade,stroll,0.4,0.4,0.8,0,0,0,0,,,,,0,2,2,3,0,25,25,25,,,,,space,7.69807664878,,,,,,,2018_Jun_18_0855,59.2601342571,sheb_replic_pilot_control,001,907,
,arm,scrub,toss,slap,shake,0.4,0.4,0.8,0,0,0,0,,,,,0,2,2,3,0,26,26,26,,,,,space,6.64143697991,,,,,,,2018_Jun_18_0855,59.2601342571,sheb_replic_pilot_control,001,907,
,arm,knock,scratch,squeeze,hack,0.4,0.4,0.8,0,0,0,0,,,,,0,2,2,3,0,27,27,27,,,,,space,6.13837903362,,,,,,,2018_Jun_18_0855,59.2601342571,sheb_replic_pilot_control,001,907,
,,,,,,0.4,0.4,0.8,0,0,0,0,,,,,0,2,2,3,,,,,,,,,,,,,,,,,2018_Jun_18_0855,59.2601342571,sheb_replic_pilot_control,001,907,
,arm,brush,pat,click,hack,0.2,0.4,0.6,0,0,0,0,,,,,0,3,3,1,0,0,0,0,,,,,space,7.71451634507,,,,,,,2018_Jun_18_0855,59.2601342571,sheb_replic_pilot_control,001,907,
,arm,scoop,dig,fold,nip,0.2,0.4,0.6,0,0,0,0,,,,,0,3,3,1,0,1,1,1,,,,,space,10.0636496932,,,,,,,2018_Jun_18_0855,59.2601342571,sheb_replic_pilot_control,001,907,
,leg,skip,run,limp,inch,0.2,0.4,0.6,0,0,0,0,,,,,0,3,3,1,0,2,2,2,,,,,space,5.16589640162,,,,,,,2018_Jun_18_0855,59.2601342571,sheb_replic_pilot_control,001,907,
,arm,slap,braid,whip,stir,0.2,0.4,0.6,0,0,0,0,,,,,0,3,3,1,0,3,3,3,,,,,space,7.26189564618,,,,,,,2018_Jun_18_0855,59.2601342571,sheb_replic_pilot_control,001,907,
,arm,grip,wash,file,bash,0.2,0.4,0.6,0,0,0,0,,,,,0,3,3,1,0,4,4,4,,,,,space,7.41299244907,,,,,,,2018_Jun_18_0855,59.2601342571,sheb_replic_pilot_control,001,907,
,arm,peel,clean,wipe,pull,0.2,0.4,0.6,0,0,0,0,,,,,0,3,3,1,0,5,5,5,,,,,space,9.49359469005,,,,,,,2018_Jun_18_0855,59.2601342571,sheb_replic_pilot_control,001,907,
,leg,roam,bounce,pace,trudge,0.2,0.4,0.6,0,0,0,0,,,,,0,3,3,1,0,6,6,6,,,,,space,10.4317723761,,,,,,,2018_Jun_18_0855,59.2601342571,sheb_replic_pilot_control,001,907,
,leg,plod,glide,stroll,strut,0.2,0.4,0.6,0,0,0,0,,,,,0,3,3,1,0,7,7,7,,,,,space,10.4989673826,,,,,,,2018_Jun_18_0855,59.2601342571,sheb_replic_pilot_control,001,907,
,arm,claw,knock,seize,twine,0.2,0.4,0.6,0,0,0,0,,,,,0,3,3,1,0,8,8,8,,,,,space,5.90265382878,,,,,,,2018_Jun_18_0855,59.2601342571,sheb_replic_pilot_control,001,907,
,arm,skim,chop,wrap,shake,0.2,0.4,0.6,0,0,0,0,,,,,0,3,3,1,0,9,9,9,,,,,space,5.97076825394,,,,,,,2018_Jun_18_0855,59.2601342571,sheb_replic_pilot_control,001,907,
,leg,kick,tread,stamp,slip,0.2,0.4,0.6,0,0,0,0,,,,,0,3,3,1,0,10,10,10,,,,,space,8.98946283743,,,,,,,2018_Jun_18_0855,59.2601342571,sheb_replic_pilot_control,001,907,
,arm,lift,carve,clap,poke,0.2,0.4,0.6,0,0,0,0,,,,,0,3,3,1,0,11,11,11,,,,,space,7.76604409338,,,,,,,2018_Jun_18_0855,59.2601342571,sheb_replic_pilot_control,001,907,
,leg,traipse,wander,jump,roll,0.2,0.4,0.6,0,0,0,0,,,,,0,3,3,1,0,12,12,12,,,,,space,7.78141185888,,,,,,,2018_Jun_18_0855,59.2601342571,sheb_replic_pilot_control,001,907,
,arm,grasp,grate,catch,clutch,0.2,0.4,0.6,0,0,0,0,,,,,0,3,3,1,0,13,13,13,,,,,space,11.4548585964,,,,,,,2018_Jun_18_0855,59.2601342571,sheb_replic_pilot_control,001,907,
,leg,slide,march,jog,flit,0.2,0.4,0.6,0,0,0,0,,,,,0,3,3,1,0,14,14,14,,,,,space,8.63696948217,,,,,,,2018_Jun_18_0855,59.2601342571,sheb_replic_pilot_control,001,907,
,leg,hop,leap,dance,flee,0.2,0.4,0.6,0,0,0,0,,,,,0,3,3,1,0,15,15,15,,,,,space,11.0526332634,,,,,,,2018_Jun_18_0855,59.2601342571,sheb_replic_pilot_control,001,907,
,arm,snatch,bind,scrub,push,0.2,0.4,0.6,0,0,0,0,,,,,0,3,3,1,0,16,16,16,,,,,space,7.02864421894,,,,,,,2018_Jun_18_0855,59.2601342571,sheb_replic_pilot_control,001,907,
,leg,stomp,stagger,stumble,hike,0.2,0.4,0.6,0,0,0,0,,,,,0,3,3,1,0,17,17,17,,,,,space,9.39137642946,,,,,,,2018_Jun_18_0855,59.2601342571,sheb_replic_pilot_control,001,907,
,arm,polish,punch,tug,toss,0.2,0.4,0.6,0,0,0,0,,,,,0,3,3,1,0,18,18,18,,,,,space,9.84506945424,,,,,,,2018_Jun_18_0855,59.2601342571,sheb_replic_pilot_control,001,907,
,leg,creep,wade,trot,climb,0.2,0.4,0.6,0,0,0,0,,,,,0,3,3,1,0,19,19,19,,,,,space,7.68148641595,,,,,,,2018_Jun_18_0855,59.2601342571,sheb_replic_pilot_control,001,907,
,leg,slither,prance,walk,stride,0.2,0.4,0.6,0,0,0,0,,,,,0,3,3,1,0,20,20,20,,,,,space,8.93922788585,,,,,,,2018_Jun_18_0855,59.2601342571,sheb_replic_pilot_control,001,907,
,leg,stray,kneel,tiptoe,sway,0.2,0.4,0.6,0,0,0,0,,,,,0,3,3,1,0,21,21,21,,,,,space,6.82594736279,,,,,,,2018_Jun_18_0855,59.2601342571,sheb_replic_pilot_control,001,907,
,arm,scratch,delve,grab,throw,0.2,0.4,0.6,0,0,0,0,,,,,0,3,3,1,0,22,22,22,,,,,space,4.63048890396,,,,,,,2018_Jun_18_0855,59.2601342571,sheb_replic_pilot_control,001,907,
,leg,trek,rush,crawl,trip,0.2,0.4,0.6,0,0,0,0,,,,,0,3,3,1,0,23,23,23,,,,,space,15.3793208629,,,,,,,2018_Jun_18_0855,59.2601342571,sheb_replic_pilot_control,001,907,
,leg,scuff,sneak,ramble,sprint,0.2,0.4,0.6,0,0,0,0,,,,,0,3,3,1,0,24,24,24,,,,,space,5.98739483679,,,,,,,2018_Jun_18_0855,59.2601342571,sheb_replic_pilot_control,001,907,
,arm,squeeze,pinch,switch,dunk,0.2,0.4,0.6,0,0,0,0,,,,,0,3,3,1,0,25,25,25,,,,,space,9.82793871227,,,,,,,2018_Jun_18_0855,59.2601342571,sheb_replic_pilot_control,001,907,
,arm,cut,rub,scrape,stab,0.2,0.4,0.6,0,0,0,0,,,,,0,3,3,1,0,26,26,26,,,,,space,12.6456464715,,,,,,,2018_Jun_18_0855,59.2601342571,sheb_replic_pilot_control,001,907,
,leg,step,skate,wobble,mount,0.2,0.4,0.6,0,0,0,0,,,,,0,3,3,1,0,27,27,27,,,,,space,4.83037653495,,,,,,,2018_Jun_18_0855,59.2601342571,sheb_replic_pilot_control,001,907,
,,,,,,0.2,0.4,0.6,0,0,0,0,,,,,0,3,3,1,,,,,,,,,,,,,,,,,2018_Jun_18_0855,59.2601342571,sheb_replic_pilot_control,001,907,
,,,,,,,,,0,0,0,0,,,,,,,,,,,,,,,,,,,,,,,space,4.59564779507,2018_Jun_18_0855,59.2601342571,sheb_replic_pilot_control,001,907,
