word,target,distrOne,distrTwo,corrAns,w1,w2,w3,category,category_lowercase,trials.thisRepN,trials.thisTrialN,trials.thisN,trials.thisIndex,armleg_loop.thisRepN,armleg_loop.thisTrialN,armleg_loop.thisN,armleg_loop.thisIndex,key_resp_9.keys,key_resp_9.rt,key_resp_2.keys,key_resp_2.rt,key_resp_3.keys,key_resp_3.rt,key_resp_4.keys,key_resp_4.rt,key_resp_6.keys,key_resp_6.rt,key_resp_5.keys,key_resp_5.rt,rating.response,rating.rt,key_resp_7.keys,key_resp_7.rt,key_resp_8.keys,key_resp_8.rt,date,frameRate,expName,session,participant,
,,,,,,,,,,,,,,,,,,space,62.0694135436,,,,,,,,,,,,,,,,,2018_Jun_18_0953,59.6503628353,verb_norming_oral_input,001,907,
,,,,,,,,,,,,,,,,,,,,space,10.0461684895,,,,,,,,,,,,,,,2018_Jun_18_0953,59.6503628353,verb_norming_oral_input,001,907,
,,,,,,,,,,,,,,,,,,,,,,space,12.3102309136,,,,,,,,,,,,,2018_Jun_18_0953,59.6503628353,verb_norming_oral_input,001,907,
,,,,,,,,,,,,,,,,,,,,,,,,space,7.46339887797,,,,,,,,,,,2018_Jun_18_0953,59.6503628353,verb_norming_oral_input,001,907,
,,,,,,,,,,,,,,,,,,,,,,,,,,space,11.5390330181,,,,,,,,,2018_Jun_18_0953,59.6503628353,verb_norming_oral_input,001,907,
,,,,,,,,,,,,,,,,,,,,,,,,,,,,space,3.84084810942,,,,,,,2018_Jun_18_0953,59.6503628353,verb_norming_oral_input,001,907,
SKIP,hoppa,kliva,strutta,2,strutta,hoppa,kliva,Leg,leg,0,0,0,72,0,0,0,0,,,,,,,,,,,,,7,4.398,,,,,2018_Jun_18_0953,59.6503628353,verb_norming_oral_input,001,907,
SKIP,hoppa,kliva,strutta,2,strutta,hoppa,kliva,Arm,arm,0,0,0,72,0,1,1,1,,,,,,,,,,,,,1,3.902,,,,,2018_Jun_18_0953,59.6503628353,verb_norming_oral_input,001,907,
SKIP,hoppa,kliva,strutta,2,strutta,hoppa,kliva,,,0,0,0,72,,,,,,,,,,,,,,,,,,,return,70.0361410176,,,2018_Jun_18_0953,59.6503628353,verb_norming_oral_input,001,907,
CATCH,fånga,krama,omfamna,3,omfamna,krama,fånga,Leg,leg,0,1,1,6,0,0,0,0,,,,,,,,,,,,,2,5.945,,,,,2018_Jun_18_0953,59.6503628353,verb_norming_oral_input,001,907,
CATCH,fånga,krama,omfamna,3,omfamna,krama,fånga,Arm,arm,0,1,1,6,0,1,1,1,,,,,,,,,,,,,1,1.94,,,,,2018_Jun_18_0953,59.6503628353,verb_norming_oral_input,001,907,
CATCH,fånga,krama,omfamna,3,omfamna,krama,fånga,,,0,1,1,6,,,,,,,,,,,,,,,,,,,return,2.46580627726,,,2018_Jun_18_0953,59.6503628353,verb_norming_oral_input,001,907,
PAT,klappa,slå,borsta,2,borsta,klappa,slå,Leg,leg,0,2,2,46,0,0,0,0,,,,,,,,,,,,,1,6.887,,,,,2018_Jun_18_0953,59.6503628353,verb_norming_oral_input,001,907,
PAT,klappa,slå,borsta,2,borsta,klappa,slå,Arm,arm,0,2,2,46,0,1,1,1,,,,,,,,,,,,,7,2.042,,,,,2018_Jun_18_0953,59.6503628353,verb_norming_oral_input,001,907,
PAT,klappa,slå,borsta,2,borsta,klappa,slå,,,0,2,2,46,,,,,,,,,,,,,,,,,,,return,4.37758514896,,,2018_Jun_18_0953,59.6503628353,verb_norming_oral_input,001,907,
CARVE,tälja,hacka,riva,1,tälja,riva,hacka,Leg,leg,0,3,3,5,0,0,0,0,,,,,,,,,,,,,1,9.468,,,,,2018_Jun_18_0953,59.6503628353,verb_norming_oral_input,001,907,
CARVE,tälja,hacka,riva,1,tälja,riva,hacka,Arm,arm,0,3,3,5,0,1,1,1,,,,,,,,,,,,,7,3.953,,,,,2018_Jun_18_0953,59.6503628353,verb_norming_oral_input,001,907,
CARVE,tälja,hacka,riva,1,tälja,riva,hacka,,,0,3,3,5,,,,,,,,,,,,,,,,,,,return,2.44900742686,,,2018_Jun_18_0953,59.6503628353,verb_norming_oral_input,001,907,
SQUEEZE,klämma,knuffa,knäppa,1,klämma,knäppa,knuffa,Leg,leg,0,4,4,80,0,0,0,0,,,,,,,,,,,,,3,8.189,,,,,2018_Jun_18_0953,59.6503628353,verb_norming_oral_input,001,907,
SQUEEZE,klämma,knuffa,knäppa,1,klämma,knäppa,knuffa,Arm,arm,0,4,4,80,0,1,1,1,,,,,,,,,,,,,7,12.405,,,,,2018_Jun_18_0953,59.6503628353,verb_norming_oral_input,001,907,
SQUEEZE,klämma,knuffa,knäppa,1,klämma,knäppa,knuffa,,,0,4,4,80,,,,,,,,,,,,,,,,,,,return,2.23066425334,,,2018_Jun_18_0953,59.6503628353,verb_norming_oral_input,001,907,
PINCH,nypa,plocka,pensla,2,pensla,nypa,plocka,Leg,leg,0,5,5,48,0,0,0,0,,,,,,,,,,,,,1,10.44,,,,,2018_Jun_18_0953,59.6503628353,verb_norming_oral_input,001,907,
PINCH,nypa,plocka,pensla,2,pensla,nypa,plocka,Arm,arm,0,5,5,48,0,1,1,1,,,,,,,,,,,,,7,2.343,,,,,2018_Jun_18_0953,59.6503628353,verb_norming_oral_input,001,907,
PINCH,nypa,plocka,pensla,2,pensla,nypa,plocka,,,0,5,5,48,,,,,,,,,,,,,,,,,,,return,2.43214338348,,,2018_Jun_18_0953,59.6503628353,verb_norming_oral_input,001,907,
WADE,vada,pulsa,plöja,1,vada,pulsa,plöja,Leg,leg,0,6,6,104,0,0,0,0,,,,,,,,,,,,,7,5.086,,,,,2018_Jun_18_0953,59.6503628353,verb_norming_oral_input,001,907,
WADE,vada,pulsa,plöja,1,vada,pulsa,plöja,Arm,arm,0,6,6,104,0,1,1,1,,,,,,,,,,,,,1,2.04,,,,,2018_Jun_18_0953,59.6503628353,verb_norming_oral_input,001,907,
WADE,vada,pulsa,plöja,1,vada,pulsa,plöja,,,0,6,6,104,,,,,,,,,,,,,,,,,,,return,2.59991102145,,,2018_Jun_18_0953,59.6503628353,verb_norming_oral_input,001,907,
GRAB,gripa tag i,fästa ihop,smälla till,3,fästa ihop,smälla till,gripa tag i,Leg,leg,0,7,7,26,0,0,0,0,,,,,,,,,,,,,1,21.289,,,,,2018_Jun_18_0953,59.6503628353,verb_norming_oral_input,001,907,
GRAB,gripa tag i,fästa ihop,smälla till,3,fästa ihop,smälla till,gripa tag i,Arm,arm,0,7,7,26,0,1,1,1,,,,,,,,,,,,,7,2.913,,,,,2018_Jun_18_0953,59.6503628353,verb_norming_oral_input,001,907,
GRAB,gripa tag i,fästa ihop,smälla till,3,fästa ihop,smälla till,gripa tag i,,,0,7,7,26,,,,,,,,,,,,,,,,,,,return,3.38807173758,,,2018_Jun_18_0953,59.6503628353,verb_norming_oral_input,001,907,
FLEE,fly,lyfta,flyga,2,flyga,fly,lyfta,Leg,leg,0,8,8,22,0,0,0,0,,,,,,,,,,,,,7,3.062,,,,,2018_Jun_18_0953,59.6503628353,verb_norming_oral_input,001,907,
FLEE,fly,lyfta,flyga,2,flyga,fly,lyfta,Arm,arm,0,8,8,22,0,1,1,1,,,,,,,,,,,,,3,3.199,,,,,2018_Jun_18_0953,59.6503628353,verb_norming_oral_input,001,907,
FLEE,fly,lyfta,flyga,2,flyga,fly,lyfta,,,0,8,8,22,,,,,,,,,,,,,,,,,,,return,2.39868634152,,,2018_Jun_18_0953,59.6503628353,verb_norming_oral_input,001,907,
KNOCK,knacka,krocka,klicka,3,klicka,krocka,knacka,Leg,leg,0,9,9,38,0,0,0,0,,,,,,,,,,,,,1,6.684,,,,,2018_Jun_18_0953,59.6503628353,verb_norming_oral_input,001,907,
KNOCK,knacka,krocka,klicka,3,klicka,krocka,knacka,Arm,arm,0,9,9,38,0,1,1,1,,,,,,,,,,,,,7,1.572,,,,,2018_Jun_18_0953,59.6503628353,verb_norming_oral_input,001,907,
KNOCK,knacka,krocka,klicka,3,klicka,krocka,knacka,,,0,9,9,38,,,,,,,,,,,,,,,,,,,return,1.89556754843,,,2018_Jun_18_0953,59.6503628353,verb_norming_oral_input,001,907,
CUT,skära,sticka,spetsa,2,sticka,skära,spetsa,Leg,leg,0,10,10,16,0,0,0,0,,,,,,,,,,,,,1,17.284,,,,,2018_Jun_18_0953,59.6503628353,verb_norming_oral_input,001,907,
CUT,skära,sticka,spetsa,2,sticka,skära,spetsa,Arm,arm,0,10,10,16,0,1,1,1,,,,,,,,,,,,,7,2.596,,,,,2018_Jun_18_0953,59.6503628353,verb_norming_oral_input,001,907,
CUT,skära,sticka,spetsa,2,sticka,skära,spetsa,,,0,10,10,16,,,,,,,,,,,,,,,,,,,return,2.83472589509,,,2018_Jun_18_0953,59.6503628353,verb_norming_oral_input,001,907,
TOSS,slänga,fånga,gripa,2,fånga,slänga,gripa,Leg,leg,0,11,11,96,0,0,0,0,,,,,,,,,,,,,1,3.934,,,,,2018_Jun_18_0953,59.6503628353,verb_norming_oral_input,001,907,
TOSS,slänga,fånga,gripa,2,fånga,slänga,gripa,Arm,arm,0,11,11,96,0,1,1,1,,,,,,,,,,,,,7,1.069,,,,,2018_Jun_18_0953,59.6503628353,verb_norming_oral_input,001,907,
TOSS,slänga,fånga,gripa,2,fånga,slänga,gripa,,,0,11,11,96,,,,,,,,,,,,,,,,,,,return,1.61043712097,,,2018_Jun_18_0953,59.6503628353,verb_norming_oral_input,001,907,
FLIT,rusa,hasa,svassa,2,hasa,rusa,svassa,Leg,leg,0,12,12,23,0,0,0,0,,,,,,,,,,,,,6,34.122,,,,,2018_Jun_18_0953,59.6503628353,verb_norming_oral_input,001,907,
FLIT,rusa,hasa,svassa,2,hasa,rusa,svassa,Arm,arm,0,12,12,23,0,1,1,1,,,,,,,,,,,,,1,7.392,,,,,2018_Jun_18_0953,59.6503628353,verb_norming_oral_input,001,907,
FLIT,rusa,hasa,svassa,2,hasa,rusa,svassa,,,0,12,12,23,,,,,,,,,,,,,,,,,,,return,2.06306532693,,,2018_Jun_18_0953,59.6503628353,verb_norming_oral_input,001,907,
STOMP,stampa,stiga,kliva,1,stampa,kliva,stiga,Leg,leg,0,13,13,86,0,0,0,0,,,,,,,,,,,,,7,4.014,,,,,2018_Jun_18_0953,59.6503628353,verb_norming_oral_input,001,907,
STOMP,stampa,stiga,kliva,1,stampa,kliva,stiga,Arm,arm,0,13,13,86,0,1,1,1,,,,,,,,,,,,,1,1.654,,,,,2018_Jun_18_0953,59.6503628353,verb_norming_oral_input,001,907,
STOMP,stampa,stiga,kliva,1,stampa,kliva,stiga,,,0,13,13,86,,,,,,,,,,,,,,,,,,,return,1.67745630391,,,2018_Jun_18_0953,59.6503628353,verb_norming_oral_input,001,907,
CLAW,klösa,nypa,rispa,1,klösa,rispa,nypa,Leg,leg,0,14,14,9,0,0,0,0,,,,,,,,,,,,,1,10.927,,,,,2018_Jun_18_0953,59.6503628353,verb_norming_oral_input,001,907,
CLAW,klösa,nypa,rispa,1,klösa,rispa,nypa,Arm,arm,0,14,14,9,0,1,1,1,,,,,,,,,,,,,7,1.858,,,,,2018_Jun_18_0953,59.6503628353,verb_norming_oral_input,001,907,
CLAW,klösa,nypa,rispa,1,klösa,rispa,nypa,,,0,14,14,9,,,,,,,,,,,,,,,,,,,return,2.65023803343,,,2018_Jun_18_0953,59.6503628353,verb_norming_oral_input,001,907,
PEEL,skala,rensa,plocka,3,rensa,plocka,skala,Leg,leg,0,15,15,47,0,0,0,0,,,,,,,,,,,,,1,3.75,,,,,2018_Jun_18_0953,59.6503628353,verb_norming_oral_input,001,907,
PEEL,skala,rensa,plocka,3,rensa,plocka,skala,Arm,arm,0,15,15,47,0,1,1,1,,,,,,,,,,,,,7,0.837,,,,,2018_Jun_18_0953,59.6503628353,verb_norming_oral_input,001,907,
PEEL,skala,rensa,plocka,3,rensa,plocka,skala,,,0,15,15,47,,,,,,,,,,,,,,,,,,,return,1.44263234276,,,2018_Jun_18_0953,59.6503628353,verb_norming_oral_input,001,907,
INCH,röra sig långsamt framåt,dra sig snabbt tillbaka,hasa sig bakåt,2,hasa sig bakåt,röra sig långsamt framåt,dra sig snabbt tillbaka,Leg,leg,0,16,16,33,0,0,0,0,,,,,,,,,,,,,7,16.026,,,,,2018_Jun_18_0953,59.6503628353,verb_norming_oral_input,001,907,
INCH,röra sig långsamt framåt,dra sig snabbt tillbaka,hasa sig bakåt,2,hasa sig bakåt,röra sig långsamt framåt,dra sig snabbt tillbaka,Arm,arm,0,16,16,33,0,1,1,1,,,,,,,,,,,,,1,7.744,,,,,2018_Jun_18_0953,59.6503628353,verb_norming_oral_input,001,907,
INCH,röra sig långsamt framåt,dra sig snabbt tillbaka,hasa sig bakåt,2,hasa sig bakåt,röra sig långsamt framåt,dra sig snabbt tillbaka,,,0,16,16,33,,,,,,,,,,,,,,,,,,,return,1.86202713846,,,2018_Jun_18_0953,59.6503628353,verb_norming_oral_input,001,907,
POLISH,polera,sopa,tvätta,2,sopa,polera,tvätta,Leg,leg,0,17,17,52,0,0,0,0,,,,,,,,,,,,,1,3.547,,,,,2018_Jun_18_0953,59.6503628353,verb_norming_oral_input,001,907,
POLISH,polera,sopa,tvätta,2,sopa,polera,tvätta,Arm,arm,0,17,17,52,0,1,1,1,,,,,,,,,,,,,7,1.169,,,,,2018_Jun_18_0953,59.6503628353,verb_norming_oral_input,001,907,
POLISH,polera,sopa,tvätta,2,sopa,polera,tvätta,,,0,17,17,52,,,,,,,,,,,,,,,,,,,return,1.99608763044,,,2018_Jun_18_0953,59.6503628353,verb_norming_oral_input,001,907,
SKATE,åka skridskor,åka skidor,åka kälke,2,åka skidor,åka skridskor,åka kälke,Leg,leg,0,18,18,70,0,0,0,0,,,,,,,,,,,,,7,7.573,,,,,2018_Jun_18_0953,59.6503628353,verb_norming_oral_input,001,907,
SKATE,åka skridskor,åka skidor,åka kälke,2,åka skidor,åka skridskor,åka kälke,Arm,arm,0,18,18,70,0,1,1,1,,,,,,,,,,,,,2,2.159,,,,,2018_Jun_18_0953,59.6503628353,verb_norming_oral_input,001,907,
SKATE,åka skridskor,åka skidor,åka kälke,2,åka skidor,åka skridskor,åka kälke,,,0,18,18,70,,,,,,,,,,,,,,,,,,,return,3.08628469897,,,2018_Jun_18_0953,59.6503628353,verb_norming_oral_input,001,907,
FOLD,vika ihop,knyta ihop,bunta ihop,2,knyta ihop,vika ihop,bunta ihop,Leg,leg,0,19,19,24,0,0,0,0,,,,,,,,,,,,,1,4.083,,,,,2018_Jun_18_0953,59.6503628353,verb_norming_oral_input,001,907,
FOLD,vika ihop,knyta ihop,bunta ihop,2,knyta ihop,vika ihop,bunta ihop,Arm,arm,0,19,19,24,0,1,1,1,,,,,,,,,,,,,7,1.503,,,,,2018_Jun_18_0953,59.6503628353,verb_norming_oral_input,001,907,
FOLD,vika ihop,knyta ihop,bunta ihop,2,knyta ihop,vika ihop,bunta ihop,,,0,19,19,24,,,,,,,,,,,,,,,,,,,return,2.3987294084,,,2018_Jun_18_0953,59.6503628353,verb_norming_oral_input,001,907,
CLEAN,rengöra,rensa,plocka,3,plocka,rensa,rengöra,Leg,leg,0,20,20,10,0,0,0,0,,,,,,,,,,,,,1,5.911,,,,,2018_Jun_18_0953,59.6503628353,verb_norming_oral_input,001,907,
CLEAN,rengöra,rensa,plocka,3,plocka,rensa,rengöra,Arm,arm,0,20,20,10,0,1,1,1,,,,,,,,,,,,,7,1.74,,,,,2018_Jun_18_0953,59.6503628353,verb_norming_oral_input,001,907,
CLEAN,rengöra,rensa,plocka,3,plocka,rensa,rengöra,,,0,20,20,10,,,,,,,,,,,,,,,,,,,return,2.33142337631,,,2018_Jun_18_0953,59.6503628353,verb_norming_oral_input,001,907,
CLUTCH,gripa tag i,sätta ihop,dra ut,1,gripa tag i,dra ut,sätta ihop,Leg,leg,0,21,21,13,0,0,0,0,,,,,,,,,,,,,1,40.561,,,,,2018_Jun_18_0953,59.6503628353,verb_norming_oral_input,001,907,
CLUTCH,gripa tag i,sätta ihop,dra ut,1,gripa tag i,dra ut,sätta ihop,Arm,arm,0,21,21,13,0,1,1,1,,,,,,,,,,,,,7,10.829,,,,,2018_Jun_18_0953,59.6503628353,verb_norming_oral_input,001,907,
CLUTCH,gripa tag i,sätta ihop,dra ut,1,gripa tag i,dra ut,sätta ihop,,,0,21,21,13,,,,,,,,,,,,,,,,,,,return,3.01931608999,,,2018_Jun_18_0953,59.6503628353,verb_norming_oral_input,001,907,
PLOD,lunka,pulsa,vingla,1,lunka,pulsa,vingla,Leg,leg,0,22,22,49,0,0,0,0,,,,,,,,,,,,,6,12.553,,,,,2018_Jun_18_0953,59.6503628353,verb_norming_oral_input,001,907,
PLOD,lunka,pulsa,vingla,1,lunka,pulsa,vingla,Arm,arm,0,22,22,49,0,1,1,1,,,,,,,,,,,,,1,12.639,,,,,2018_Jun_18_0953,59.6503628353,verb_norming_oral_input,001,907,
PLOD,lunka,pulsa,vingla,1,lunka,pulsa,vingla,,,0,22,22,49,,,,,,,,,,,,,,,,,,,return,2.83471799291,,,2018_Jun_18_0953,59.6503628353,verb_norming_oral_input,001,907,
WIPE,torka,putsa,gnugga,2,putsa,torka,gnugga,Leg,leg,0,23,23,109,0,0,0,0,,,,,,,,,,,,,1,22.282,,,,,2018_Jun_18_0953,59.6503628353,verb_norming_oral_input,001,907,
WIPE,torka,putsa,gnugga,2,putsa,torka,gnugga,Arm,arm,0,23,23,109,0,1,1,1,,,,,,,,,,,,,7,1.589,,,,,2018_Jun_18_0953,59.6503628353,verb_norming_oral_input,001,907,
WIPE,torka,putsa,gnugga,2,putsa,torka,gnugga,,,0,23,23,109,,,,,,,,,,,,,,,,,,,return,7.93299899208,,,2018_Jun_18_0953,59.6503628353,verb_norming_oral_input,001,907,
SKIM,skumma,vispa,sleva,2,sleva,skumma,vispa,Leg,leg,0,24,24,71,0,0,0,0,,,,,,,,,,,,,1,27.378,,,,,2018_Jun_18_0953,59.6503628353,verb_norming_oral_input,001,907,
SKIM,skumma,vispa,sleva,2,sleva,skumma,vispa,Arm,arm,0,24,24,71,0,1,1,1,,,,,,,,,,,,,7,1.316,,,,,2018_Jun_18_0953,59.6503628353,verb_norming_oral_input,001,907,
SKIM,skumma,vispa,sleva,2,sleva,skumma,vispa,,,0,24,24,71,,,,,,,,,,,,,,,,,,,return,3.37140564382,,,2018_Jun_18_0953,59.6503628353,verb_norming_oral_input,001,907,
STAMP,stampa,kliva,skutta,1,stampa,kliva,skutta,Leg,leg,0,25,25,83,0,0,0,0,,,,,,,,,,,,,7,13.441,,,,,2018_Jun_18_0953,59.6503628353,verb_norming_oral_input,001,907,
STAMP,stampa,kliva,skutta,1,stampa,kliva,skutta,Arm,arm,0,25,25,83,0,1,1,1,,,,,,,,,,,,,1,1.235,,,,,2018_Jun_18_0953,59.6503628353,verb_norming_oral_input,001,907,
STAMP,stampa,kliva,skutta,1,stampa,kliva,skutta,,,0,25,25,83,,,,,,,,,,,,,,,,,,,return,1.82844998335,,,2018_Jun_18_0953,59.6503628353,verb_norming_oral_input,001,907,
CLAP,klappa,knäppa,klämma,3,klämma,knäppa,klappa,Leg,leg,0,26,26,8,0,0,0,0,,,,,,,,,,,,,1,2.408,,,,,2018_Jun_18_0953,59.6503628353,verb_norming_oral_input,001,907,
CLAP,klappa,knäppa,klämma,3,klämma,knäppa,klappa,Arm,arm,0,26,26,8,0,1,1,1,,,,,,,,,,,,,7,1.421,,,,,2018_Jun_18_0953,59.6503628353,verb_norming_oral_input,001,907,
CLAP,klappa,knäppa,klämma,3,klämma,knäppa,klappa,,,0,26,26,8,,,,,,,,,,,,,,,,,,,return,1.47634778603,,,2018_Jun_18_0953,59.6503628353,verb_norming_oral_input,001,907,
TUG,rycka,pressa,slå,1,rycka,slå,pressa,Leg,leg,0,27,27,102,0,0,0,0,,,,,,,,,,,,,5,9.065,,,,,2018_Jun_18_0953,59.6503628353,verb_norming_oral_input,001,907,
TUG,rycka,pressa,slå,1,rycka,slå,pressa,Arm,arm,0,27,27,102,0,1,1,1,,,,,,,,,,,,,5,2.326,,,,,2018_Jun_18_0953,59.6503628353,verb_norming_oral_input,001,907,
TUG,rycka,pressa,slå,1,rycka,slå,pressa,,,0,27,27,102,,,,,,,,,,,,,,,,,,,return,2.26448479561,,,2018_Jun_18_0953,59.6503628353,verb_norming_oral_input,001,907,
CRAWL,kravla,huka,klättra,1,kravla,huka,klättra,Leg,leg,0,28,28,14,0,0,0,0,,,,,,,,,,,,,7,5.678,,,,,2018_Jun_18_0953,59.6503628353,verb_norming_oral_input,001,907,
CRAWL,kravla,huka,klättra,1,kravla,huka,klättra,Arm,arm,0,28,28,14,0,1,1,1,,,,,,,,,,,,,5,3.484,,,,,2018_Jun_18_0953,59.6503628353,verb_norming_oral_input,001,907,
CRAWL,kravla,huka,klättra,1,kravla,huka,klättra,,,0,28,28,14,,,,,,,,,,,,,,,,,,,return,7.8157468331,,,2018_Jun_18_0953,59.6503628353,verb_norming_oral_input,001,907,
CLICK,klicka,klappa,klämma,1,klicka,klappa,klämma,Leg,leg,0,29,29,11,0,0,0,0,,,,,,,,,,,,,1,5.007,,,,,2018_Jun_18_0953,59.6503628353,verb_norming_oral_input,001,907,
CLICK,klicka,klappa,klämma,1,klicka,klappa,klämma,Arm,arm,0,29,29,11,0,1,1,1,,,,,,,,,,,,,7,1.102,,,,,2018_Jun_18_0953,59.6503628353,verb_norming_oral_input,001,907,
CLICK,klicka,klappa,klämma,1,klicka,klappa,klämma,,,0,29,29,11,,,,,,,,,,,,,,,,,,,return,2.28125677859,,,2018_Jun_18_0953,59.6503628353,verb_norming_oral_input,001,907,
SPRINT,spurta,springa,löpa,1,spurta,löpa,springa,Leg,leg,0,30,30,79,0,0,0,0,,,,,,,,,,,,,7,5.996,,,,,2018_Jun_18_0953,59.6503628353,verb_norming_oral_input,001,907,
SPRINT,spurta,springa,löpa,1,spurta,löpa,springa,Arm,arm,0,30,30,79,0,1,1,1,,,,,,,,,,,,,3,1.856,,,,,2018_Jun_18_0953,59.6503628353,verb_norming_oral_input,001,907,
SPRINT,spurta,springa,löpa,1,spurta,löpa,springa,,,0,30,30,79,,,,,,,,,,,,,,,,,,,return,2.4825723336,,,2018_Jun_18_0953,59.6503628353,verb_norming_oral_input,001,907,
STIR,röra,sleva,vispa,3,vispa,sleva,röra,Leg,leg,0,31,31,85,0,0,0,0,,,,,,,,,,,,,1,4.706,,,,,2018_Jun_18_0953,59.6503628353,verb_norming_oral_input,001,907,
STIR,röra,sleva,vispa,3,vispa,sleva,röra,Arm,arm,0,31,31,85,0,1,1,1,,,,,,,,,,,,,7,2.796,,,,,2018_Jun_18_0953,59.6503628353,verb_norming_oral_input,001,907,
STIR,röra,sleva,vispa,3,vispa,sleva,röra,,,0,31,31,85,,,,,,,,,,,,,,,,,,,return,2.18066913294,,,2018_Jun_18_0953,59.6503628353,verb_norming_oral_input,001,907,
WANDER,vandra,marschera,spatsera,3,spatsera,marschera,vandra,Leg,leg,0,32,32,106,0,0,0,0,,,,,,,,,,,,,7,4.701,,,,,2018_Jun_18_0953,59.6503628353,verb_norming_oral_input,001,907,
WANDER,vandra,marschera,spatsera,3,spatsera,marschera,vandra,Arm,arm,0,32,32,106,0,1,1,1,,,,,,,,,,,,,2,1.545,,,,,2018_Jun_18_0953,59.6503628353,verb_norming_oral_input,001,907,
WANDER,vandra,marschera,spatsera,3,spatsera,marschera,vandra,,,0,32,32,106,,,,,,,,,,,,,,,,,,,return,5.23298433353,,,2018_Jun_18_0953,59.6503628353,verb_norming_oral_input,001,907,
SCRATCH,repa,riva,klösa,1,repa,klösa,riva,Leg,leg,0,33,33,65,0,0,0,0,,,,,,,,,,,,,1,9.266,,,,,2018_Jun_18_0953,59.6503628353,verb_norming_oral_input,001,907,
SCRATCH,repa,riva,klösa,1,repa,klösa,riva,Arm,arm,0,33,33,65,0,1,1,1,,,,,,,,,,,,,7,1.117,,,,,2018_Jun_18_0953,59.6503628353,verb_norming_oral_input,001,907,
SCRATCH,repa,riva,klösa,1,repa,klösa,riva,,,0,33,33,65,,,,,,,,,,,,,,,,,,,return,1.24145547102,,,2018_Jun_18_0953,59.6503628353,verb_norming_oral_input,001,907,
HACK,hacka,skära,kåpa,1,hacka,skära,kåpa,Leg,leg,0,34,34,30,0,0,0,0,,,,,,,,,,,,,1,7.758,,,,,2018_Jun_18_0953,59.6503628353,verb_norming_oral_input,001,907,
HACK,hacka,skära,kåpa,1,hacka,skära,kåpa,Arm,arm,0,34,34,30,0,1,1,1,,,,,,,,,,,,,7,6.586,,,,,2018_Jun_18_0953,59.6503628353,verb_norming_oral_input,001,907,
HACK,hacka,skära,kåpa,1,hacka,skära,kåpa,,,0,34,34,30,,,,,,,,,,,,,,,,,,,return,3.63950252613,,,2018_Jun_18_0953,59.6503628353,verb_norming_oral_input,001,907,
FILE,fila,putsa,riva,3,riva,putsa,fila,Leg,leg,0,35,35,21,0,0,0,0,,,,,,,,,,,,,1,49.266,,,,,2018_Jun_18_0953,59.6503628353,verb_norming_oral_input,001,907,
FILE,fila,putsa,riva,3,riva,putsa,fila,Arm,arm,0,35,35,21,0,1,1,1,,,,,,,,,,,,,7,0.851,,,,,2018_Jun_18_0953,59.6503628353,verb_norming_oral_input,001,907,
FILE,fila,putsa,riva,3,riva,putsa,fila,,,0,35,35,21,,,,,,,,,,,,,,,,,,,return,2.48257984067,,,2018_Jun_18_0953,59.6503628353,verb_norming_oral_input,001,907,
GRIP,gripa om,hålla om,kasta om,3,hålla om,kasta om,gripa om,Leg,leg,0,36,36,29,0,0,0,0,,,,,,,,,,,,,1,15.271,,,,,2018_Jun_18_0953,59.6503628353,verb_norming_oral_input,001,907,
GRIP,gripa om,hålla om,kasta om,3,hålla om,kasta om,gripa om,Arm,arm,0,36,36,29,0,1,1,1,,,,,,,,,,,,,7,1.068,,,,,2018_Jun_18_0953,59.6503628353,verb_norming_oral_input,001,907,
GRIP,gripa om,hålla om,kasta om,3,hålla om,kasta om,gripa om,,,0,36,36,29,,,,,,,,,,,,,,,,,,,return,2.5830047014,,,2018_Jun_18_0953,59.6503628353,verb_norming_oral_input,001,907,
SEIZE,fånga,klämma,fästa,1,fånga,klämma,fästa,Leg,leg,0,37,37,68,0,0,0,0,,,,,,,,,,,,,1,48.729,,,,,2018_Jun_18_0953,59.6503628353,verb_norming_oral_input,001,907,
SEIZE,fånga,klämma,fästa,1,fånga,klämma,fästa,Arm,arm,0,37,37,68,0,1,1,1,,,,,,,,,,,,,7,1.706,,,,,2018_Jun_18_0953,59.6503628353,verb_norming_oral_input,001,907,
SEIZE,fånga,klämma,fästa,1,fånga,klämma,fästa,,,0,37,37,68,,,,,,,,,,,,,,,,,,,return,43.3870373421,,,2018_Jun_18_0953,59.6503628353,verb_norming_oral_input,001,907,
TRUDGE,släpa sig fram,kasta sig fram,ta sig fram,3,kasta sig fram,ta sig fram,släpa sig fram,Leg,leg,0,38,38,101,0,0,0,0,,,,,,,,,,,,,7,10.119,,,,,2018_Jun_18_0953,59.6503628353,verb_norming_oral_input,001,907,
TRUDGE,släpa sig fram,kasta sig fram,ta sig fram,3,kasta sig fram,ta sig fram,släpa sig fram,Arm,arm,0,38,38,101,0,1,1,1,,,,,,,,,,,,,1,1.033,,,,,2018_Jun_18_0953,59.6503628353,verb_norming_oral_input,001,907,
TRUDGE,släpa sig fram,kasta sig fram,ta sig fram,3,kasta sig fram,ta sig fram,släpa sig fram,,,0,38,38,101,,,,,,,,,,,,,,,,,,,return,2.4320260361,,,2018_Jun_18_0953,59.6503628353,verb_norming_oral_input,001,907,
TIPTOE,gå på tå,snava,sparka,1,gå på tå,snava,sparka,Leg,leg,0,39,39,95,0,0,0,0,,,,,,,,,,,,,7,11.396,,,,,2018_Jun_18_0953,59.6503628353,verb_norming_oral_input,001,907,
TIPTOE,gå på tå,snava,sparka,1,gå på tå,snava,sparka,Arm,arm,0,39,39,95,0,1,1,1,,,,,,,,,,,,,1,1.001,,,,,2018_Jun_18_0953,59.6503628353,verb_norming_oral_input,001,907,
TIPTOE,gå på tå,snava,sparka,1,gå på tå,snava,sparka,,,0,39,39,95,,,,,,,,,,,,,,,,,,,return,2.49928505022,,,2018_Jun_18_0953,59.6503628353,verb_norming_oral_input,001,907,
STROLL,strosa,trava,marschera,2,trava,strosa,marschera,Leg,leg,0,40,40,89,0,0,0,0,,,,,,,,,,,,,7,5.057,,,,,2018_Jun_18_0953,59.6503628353,verb_norming_oral_input,001,907,
STROLL,strosa,trava,marschera,2,trava,strosa,marschera,Arm,arm,0,40,40,89,0,1,1,1,,,,,,,,,,,,,1,1.655,,,,,2018_Jun_18_0953,59.6503628353,verb_norming_oral_input,001,907,
STROLL,strosa,trava,marschera,2,trava,strosa,marschera,,,0,40,40,89,,,,,,,,,,,,,,,,,,,return,3.89131973131,,,2018_Jun_18_0953,59.6503628353,verb_norming_oral_input,001,907,
MOUNT,gå uppför,ströva runt,kliva över,1,gå uppför,ströva runt,kliva över,Leg,leg,0,41,41,43,0,0,0,0,,,,,,,,,,,,,7,10.691,,,,,2018_Jun_18_0953,59.6503628353,verb_norming_oral_input,001,907,
MOUNT,gå uppför,ströva runt,kliva över,1,gå uppför,ströva runt,kliva över,Arm,arm,0,41,41,43,0,1,1,1,,,,,,,,,,,,,5,5.545,,,,,2018_Jun_18_0953,59.6503628353,verb_norming_oral_input,001,907,
MOUNT,gå uppför,ströva runt,kliva över,1,gå uppför,ströva runt,kliva över,,,0,41,41,43,,,,,,,,,,,,,,,,,,,return,2.93527640049,,,2018_Jun_18_0953,59.6503628353,verb_norming_oral_input,001,907,
TWINE,tvinna,binda,knyta,3,binda,knyta,tvinna,Leg,leg,0,42,42,103,0,0,0,0,,,,,,,,,,,,,3,7.204,,,,,2018_Jun_18_0953,59.6503628353,verb_norming_oral_input,001,907,
TWINE,tvinna,binda,knyta,3,binda,knyta,tvinna,Arm,arm,0,42,42,103,0,1,1,1,,,,,,,,,,,,,7,10.929,,,,,2018_Jun_18_0953,59.6503628353,verb_norming_oral_input,001,907,
TWINE,tvinna,binda,knyta,3,binda,knyta,tvinna,,,0,42,42,103,,,,,,,,,,,,,,,,,,,return,45.6846089626,,,2018_Jun_18_0953,59.6503628353,verb_norming_oral_input,001,907,
RUN,springa,rusa,jogga,3,rusa,jogga,springa,Leg,leg,0,43,43,61,0,0,0,0,,,,,,,,,,,,,7,4.135,,,,,2018_Jun_18_0953,59.6503628353,verb_norming_oral_input,001,907,
RUN,springa,rusa,jogga,3,rusa,jogga,springa,Arm,arm,0,43,43,61,0,1,1,1,,,,,,,,,,,,,1,0.65,,,,,2018_Jun_18_0953,59.6503628353,verb_norming_oral_input,001,907,
RUN,springa,rusa,jogga,3,rusa,jogga,springa,,,0,43,43,61,,,,,,,,,,,,,,,,,,,return,1.54337803202,,,2018_Jun_18_0953,59.6503628353,verb_norming_oral_input,001,907,
GLIDE,glida,hasa,snava,3,snava,hasa,glida,Leg,leg,0,44,44,25,0,0,0,0,,,,,,,,,,,,,3,4.032,,,,,2018_Jun_18_0953,59.6503628353,verb_norming_oral_input,001,907,
GLIDE,glida,hasa,snava,3,snava,hasa,glida,Arm,arm,0,44,44,25,0,1,1,1,,,,,,,,,,,,,4,2.576,,,,,2018_Jun_18_0953,59.6503628353,verb_norming_oral_input,001,907,
GLIDE,glida,hasa,snava,3,snava,hasa,glida,,,0,44,44,25,,,,,,,,,,,,,,,,,,,return,2.41543264241,,,2018_Jun_18_0953,59.6503628353,verb_norming_oral_input,001,907,
CREEP,krypa,knäböja,klättra,1,krypa,klättra,knäböja,Leg,leg,0,45,45,15,0,0,0,0,,,,,,,,,,,,,5,14.868,,,,,2018_Jun_18_0953,59.6503628353,verb_norming_oral_input,001,907,
CREEP,krypa,knäböja,klättra,1,krypa,klättra,knäböja,Arm,arm,0,45,45,15,0,1,1,1,,,,,,,,,,,,,5,1.689,,,,,2018_Jun_18_0953,59.6503628353,verb_norming_oral_input,001,907,
CREEP,krypa,knäböja,klättra,1,krypa,klättra,knäböja,,,0,45,45,15,,,,,,,,,,,,,,,,,,,return,3.08621753043,,,2018_Jun_18_0953,59.6503628353,verb_norming_oral_input,001,907,
THROW,kasta,greppa,träffa,2,träffa,kasta,greppa,Leg,leg,0,46,46,94,0,0,0,0,,,,,,,,,,,,,1,3.026,,,,,2018_Jun_18_0953,59.6503628353,verb_norming_oral_input,001,907,
THROW,kasta,greppa,träffa,2,träffa,kasta,greppa,Arm,arm,0,46,46,94,0,1,1,1,,,,,,,,,,,,,7,0.8,,,,,2018_Jun_18_0953,59.6503628353,verb_norming_oral_input,001,907,
THROW,kasta,greppa,träffa,2,träffa,kasta,greppa,,,0,46,46,94,,,,,,,,,,,,,,,,,,,return,1.47605066404,,,2018_Jun_18_0953,59.6503628353,verb_norming_oral_input,001,907,
TRAIPSE,traska,stappla,vandra,2,vandra,traska,stappla,Leg,leg,0,47,47,97,0,0,0,0,,,,,,,,,,,,,6,74.589,,,,,2018_Jun_18_0953,59.6503628353,verb_norming_oral_input,001,907,
TRAIPSE,traska,stappla,vandra,2,vandra,traska,stappla,Arm,arm,0,47,47,97,0,1,1,1,,,,,,,,,,,,,1,2.544,,,,,2018_Jun_18_0953,59.6503628353,verb_norming_oral_input,001,907,
TRAIPSE,traska,stappla,vandra,2,vandra,traska,stappla,,,0,47,47,97,,,,,,,,,,,,,,,,,,,return,2.34796659116,,,2018_Jun_18_0953,59.6503628353,verb_norming_oral_input,001,907,
SLIP,halka,snava,ramla,2,ramla,halka,snava,Leg,leg,0,48,48,75,0,0,0,0,,,,,,,,,,,,,6,16.395,,,,,2018_Jun_18_0953,59.6503628353,verb_norming_oral_input,001,907,
SLIP,halka,snava,ramla,2,ramla,halka,snava,Arm,arm,0,48,48,75,0,1,1,1,,,,,,,,,,,,,1,7.962,,,,,2018_Jun_18_0953,59.6503628353,verb_norming_oral_input,001,907,
SLIP,halka,snava,ramla,2,ramla,halka,snava,,,0,48,48,75,,,,,,,,,,,,,,,,,,,return,1.81164678676,,,2018_Jun_18_0953,59.6503628353,verb_norming_oral_input,001,907,
STAB,sticka,hacka,skära,3,skära,hacka,sticka,Leg,leg,0,49,49,81,0,0,0,0,,,,,,,,,,,,,1,5.276,,,,,2018_Jun_18_0953,59.6503628353,verb_norming_oral_input,001,907,
STAB,sticka,hacka,skära,3,skära,hacka,sticka,Arm,arm,0,49,49,81,0,1,1,1,,,,,,,,,,,,,7,0.951,,,,,2018_Jun_18_0953,59.6503628353,verb_norming_oral_input,001,907,
STAB,sticka,hacka,skära,3,skära,hacka,sticka,,,0,49,49,81,,,,,,,,,,,,,,,,,,,return,1.29038893347,,,2018_Jun_18_0953,59.6503628353,verb_norming_oral_input,001,907,
SCUFF,hasa sig fram,dra sig fram,kasta sig fram,3,kasta sig fram,dra sig fram,hasa sig fram,Leg,leg,0,50,50,67,0,0,0,0,,,,,,,,,,,,,2,20.57,,,,,2018_Jun_18_0953,59.6503628353,verb_norming_oral_input,001,907,
SCUFF,hasa sig fram,dra sig fram,kasta sig fram,3,kasta sig fram,dra sig fram,hasa sig fram,Arm,arm,0,50,50,67,0,1,1,1,,,,,,,,,,,,,7,34.978,,,,,2018_Jun_18_0953,59.6503628353,verb_norming_oral_input,001,907,
SCUFF,hasa sig fram,dra sig fram,kasta sig fram,3,kasta sig fram,dra sig fram,hasa sig fram,,,0,50,50,67,,,,,,,,,,,,,,,,,,,return,1.47631459687,,,2018_Jun_18_0953,59.6503628353,verb_norming_oral_input,001,907,
SLIDE,glida,ramla,hasa,3,ramla,hasa,glida,Leg,leg,0,51,51,74,0,0,0,0,,,,,,,,,,,,,1,26.455,,,,,2018_Jun_18_0953,59.6503628353,verb_norming_oral_input,001,907,
SLIDE,glida,ramla,hasa,3,ramla,hasa,glida,Arm,arm,0,51,51,74,0,1,1,1,,,,,,,,,,,,,6,67.162,,,,,2018_Jun_18_0953,59.6503628353,verb_norming_oral_input,001,907,
SLIDE,glida,ramla,hasa,3,ramla,hasa,glida,,,0,51,51,74,,,,,,,,,,,,,,,,,,,return,1.30863546333,,,2018_Jun_18_0953,59.6503628353,verb_norming_oral_input,001,907,
DANCE,dansa,snurra,svänga,3,snurra,svänga,dansa,Leg,leg,0,52,52,17,0,0,0,0,,,,,,,,,,,,,7,2.792,,,,,2018_Jun_18_0953,59.6503628353,verb_norming_oral_input,001,907,
DANCE,dansa,snurra,svänga,3,snurra,svänga,dansa,Arm,arm,0,52,52,17,0,1,1,1,,,,,,,,,,,,,5,0.799,,,,,2018_Jun_18_0953,59.6503628353,verb_norming_oral_input,001,907,
DANCE,dansa,snurra,svänga,3,snurra,svänga,dansa,,,0,52,52,17,,,,,,,,,,,,,,,,,,,return,1.42599469685,,,2018_Jun_18_0953,59.6503628353,verb_norming_oral_input,001,907,
BOUNCE,studsa,dunka,kasta,1,studsa,dunka,kasta,Leg,leg,0,53,53,2,0,0,0,0,,,,,,,,,,,,,7,15.823,,,,,2018_Jun_18_0953,59.6503628353,verb_norming_oral_input,001,907,
BOUNCE,studsa,dunka,kasta,1,studsa,dunka,kasta,Arm,arm,0,53,53,2,0,1,1,1,,,,,,,,,,,,,1,0.749,,,,,2018_Jun_18_0953,59.6503628353,verb_norming_oral_input,001,907,
BOUNCE,studsa,dunka,kasta,1,studsa,dunka,kasta,,,0,53,53,2,,,,,,,,,,,,,,,,,,,return,1.54335669613,,,2018_Jun_18_0953,59.6503628353,verb_norming_oral_input,001,907,
RUSH,rusa,springa,löpa,1,rusa,springa,löpa,Leg,leg,0,54,54,62,0,0,0,0,,,,,,,,,,,,,7,6.463,,,,,2018_Jun_18_0953,59.6503628353,verb_norming_oral_input,001,907,
RUSH,rusa,springa,löpa,1,rusa,springa,löpa,Arm,arm,0,54,54,62,0,1,1,1,,,,,,,,,,,,,1,0.968,,,,,2018_Jun_18_0953,59.6503628353,verb_norming_oral_input,001,907,
RUSH,rusa,springa,löpa,1,rusa,springa,löpa,,,0,54,54,62,,,,,,,,,,,,,,,,,,,return,2.23098863785,,,2018_Jun_18_0953,59.6503628353,verb_norming_oral_input,001,907,
SLITHER,hasa,glida,trilla,1,hasa,trilla,glida,Leg,leg,0,55,55,76,0,0,0,0,,,,,,,,,,,,,5,9.115,,,,,2018_Jun_18_0953,59.6503628353,verb_norming_oral_input,001,907,
SLITHER,hasa,glida,trilla,1,hasa,trilla,glida,Arm,arm,0,55,55,76,0,1,1,1,,,,,,,,,,,,,5,1.267,,,,,2018_Jun_18_0953,59.6503628353,verb_norming_oral_input,001,907,
SLITHER,hasa,glida,trilla,1,hasa,trilla,glida,,,0,55,55,76,,,,,,,,,,,,,,,,,,,return,2.2980173034,,,2018_Jun_18_0953,59.6503628353,verb_norming_oral_input,001,907,
BRUSH,borsta,skrubba,putsa,2,skrubba,borsta,putsa,Leg,leg,0,56,56,4,0,0,0,0,,,,,,,,,,,,,1,4.437,,,,,2018_Jun_18_0953,59.6503628353,verb_norming_oral_input,001,907,
BRUSH,borsta,skrubba,putsa,2,skrubba,borsta,putsa,Arm,arm,0,56,56,4,0,1,1,1,,,,,,,,,,,,,7,0.868,,,,,2018_Jun_18_0953,59.6503628353,verb_norming_oral_input,001,907,
BRUSH,borsta,skrubba,putsa,2,skrubba,borsta,putsa,,,0,56,56,4,,,,,,,,,,,,,,,,,,,return,0.973182370077,,,2018_Jun_18_0953,59.6503628353,verb_norming_oral_input,001,907,
PUSH,knuffa,kasta,klämma,2,klämma,knuffa,kasta,Leg,leg,0,57,57,56,0,0,0,0,,,,,,,,,,,,,4,3.951,,,,,2018_Jun_18_0953,59.6503628353,verb_norming_oral_input,001,907,
PUSH,knuffa,kasta,klämma,2,klämma,knuffa,kasta,Arm,arm,0,57,57,56,0,1,1,1,,,,,,,,,,,,,5,1.254,,,,,2018_Jun_18_0953,59.6503628353,verb_norming_oral_input,001,907,
PUSH,knuffa,kasta,klämma,2,klämma,knuffa,kasta,,,0,57,57,56,,,,,,,,,,,,,,,,,,,return,1.59369753693,,,2018_Jun_18_0953,59.6503628353,verb_norming_oral_input,001,907,
STEP,gå,klampa,traska,1,gå,traska,klampa,Leg,leg,0,58,58,84,0,0,0,0,,,,,,,,,,,,,7,21.443,,,,,2018_Jun_18_0953,59.6503628353,verb_norming_oral_input,001,907,
STEP,gå,klampa,traska,1,gå,traska,klampa,Arm,arm,0,58,58,84,0,1,1,1,,,,,,,,,,,,,1,1.069,,,,,2018_Jun_18_0953,59.6503628353,verb_norming_oral_input,001,907,
STEP,gå,klampa,traska,1,gå,traska,klampa,,,0,58,58,84,,,,,,,,,,,,,,,,,,,return,1.39243927273,,,2018_Jun_18_0953,59.6503628353,verb_norming_oral_input,001,907,
PUNCH,slå,knuffa,kasta,3,kasta,knuffa,slå,Leg,leg,0,59,59,55,0,0,0,0,,,,,,,,,,,,,4,7.338,,,,,2018_Jun_18_0953,59.6503628353,verb_norming_oral_input,001,907,
PUNCH,slå,knuffa,kasta,3,kasta,knuffa,slå,Arm,arm,0,59,59,55,0,1,1,1,,,,,,,,,,,,,7,8.515,,,,,2018_Jun_18_0953,59.6503628353,verb_norming_oral_input,001,907,
PUNCH,slå,knuffa,kasta,3,kasta,knuffa,slå,,,0,59,59,55,,,,,,,,,,,,,,,,,,,return,1.30855288554,,,2018_Jun_18_0953,59.6503628353,verb_norming_oral_input,001,907,
ROLL,vingla,snubbla,svassa,2,snubbla,vingla,svassa,Leg,leg,0,60,60,59,0,0,0,0,,,,,,,,,,,,,4,4.001,,,,,2018_Jun_18_0953,59.6503628353,verb_norming_oral_input,001,907,
ROLL,vingla,snubbla,svassa,2,snubbla,vingla,svassa,Arm,arm,0,60,60,59,0,1,1,1,,,,,,,,,,,,,4,1.337,,,,,2018_Jun_18_0953,59.6503628353,verb_norming_oral_input,001,907,
ROLL,vingla,snubbla,svassa,2,snubbla,vingla,svassa,,,0,60,60,59,,,,,,,,,,,,,,,,,,,return,1.20781983977,,,2018_Jun_18_0953,59.6503628353,verb_norming_oral_input,001,907,
BIND,binda,linda,vinda,2,linda,binda,vinda,Leg,leg,0,61,61,1,0,0,0,0,,,,,,,,,,,,,1,12.871,,,,,2018_Jun_18_0953,59.6503628353,verb_norming_oral_input,001,907,
BIND,binda,linda,vinda,2,linda,binda,vinda,Arm,arm,0,61,61,1,0,1,1,1,,,,,,,,,,,,,7,7.122,,,,,2018_Jun_18_0953,59.6503628353,verb_norming_oral_input,001,907,
BIND,binda,linda,vinda,2,linda,binda,vinda,,,0,61,61,1,,,,,,,,,,,,,,,,,,,return,1.97939862036,,,2018_Jun_18_0953,59.6503628353,verb_norming_oral_input,001,907,
SNEAK,smyga,hasa,glida,2,glida,smyga,hasa,Leg,leg,0,62,62,78,0,0,0,0,,,,,,,,,,,,,7,3.279,,,,,2018_Jun_18_0953,59.6503628353,verb_norming_oral_input,001,907,
SNEAK,smyga,hasa,glida,2,glida,smyga,hasa,Arm,arm,0,62,62,78,0,1,1,1,,,,,,,,,,,,,3,2.343,,,,,2018_Jun_18_0953,59.6503628353,verb_norming_oral_input,001,907,
SNEAK,smyga,hasa,glida,2,glida,smyga,hasa,,,0,62,62,78,,,,,,,,,,,,,,,,,,,return,1.45951732691,,,2018_Jun_18_0953,59.6503628353,verb_norming_oral_input,001,907,
LEAP,hoppa,stega,kliva,2,kliva,hoppa,stega,Leg,leg,0,63,63,39,0,0,0,0,,,,,,,,,,,,,6,10.793,,,,,2018_Jun_18_0953,59.6503628353,verb_norming_oral_input,001,907,
LEAP,hoppa,stega,kliva,2,kliva,hoppa,stega,Arm,arm,0,63,63,39,0,1,1,1,,,,,,,,,,,,,2,1.874,,,,,2018_Jun_18_0953,59.6503628353,verb_norming_oral_input,001,907,
LEAP,hoppa,stega,kliva,2,kliva,hoppa,stega,,,0,63,63,39,,,,,,,,,,,,,,,,,,,return,7.07780249843,,,2018_Jun_18_0953,59.6503628353,verb_norming_oral_input,001,907,
SLAP,smälla till,knäppa fast,klämma åt,2,knäppa fast,smälla till,klämma åt,Leg,leg,0,64,64,73,0,0,0,0,,,,,,,,,,,,,1,17.083,,,,,2018_Jun_18_0953,59.6503628353,verb_norming_oral_input,001,907,
SLAP,smälla till,knäppa fast,klämma åt,2,knäppa fast,smälla till,klämma åt,Arm,arm,0,64,64,73,0,1,1,1,,,,,,,,,,,,,7,3.366,,,,,2018_Jun_18_0953,59.6503628353,verb_norming_oral_input,001,907,
SLAP,smälla till,knäppa fast,klämma åt,2,knäppa fast,smälla till,klämma åt,,,0,64,64,73,,,,,,,,,,,,,,,,,,,return,1.72786944966,,,2018_Jun_18_0953,59.6503628353,verb_norming_oral_input,001,907,
LIMP,halta,hasa,halka,2,halka,halta,hasa,Leg,leg,0,65,65,41,0,0,0,0,,,,,,,,,,,,,7,8.327,,,,,2018_Jun_18_0953,59.6503628353,verb_norming_oral_input,001,907,
LIMP,halta,hasa,halka,2,halka,halta,hasa,Arm,arm,0,65,65,41,0,1,1,1,,,,,,,,,,,,,1,17.671,,,,,2018_Jun_18_0953,59.6503628353,verb_norming_oral_input,001,907,
LIMP,halta,hasa,halka,2,halka,halta,hasa,,,0,65,65,41,,,,,,,,,,,,,,,,,,,return,2.73394859711,,,2018_Jun_18_0953,59.6503628353,verb_norming_oral_input,001,907,
PLUCK,plocka,rensa,picka,3,rensa,picka,plocka,Leg,leg,0,66,66,50,0,0,0,0,,,,,,,,,,,,,1,3.749,,,,,2018_Jun_18_0953,59.6503628353,verb_norming_oral_input,001,907,
PLUCK,plocka,rensa,picka,3,rensa,picka,plocka,Arm,arm,0,66,66,50,0,1,1,1,,,,,,,,,,,,,7,1.32,,,,,2018_Jun_18_0953,59.6503628353,verb_norming_oral_input,001,907,
PLUCK,plocka,rensa,picka,3,rensa,picka,plocka,,,0,66,66,50,,,,,,,,,,,,,,,,,,,return,1.96262150096,,,2018_Jun_18_0953,59.6503628353,verb_norming_oral_input,001,907,
ROAM,ströva omkring,ta sig fram,luffa runt,3,luffa runt,ta sig fram,ströva omkring,Leg,leg,0,67,67,58,0,0,0,0,,,,,,,,,,,,,7,9.886,,,,,2018_Jun_18_0953,59.6503628353,verb_norming_oral_input,001,907,
ROAM,ströva omkring,ta sig fram,luffa runt,3,luffa runt,ta sig fram,ströva omkring,Arm,arm,0,67,67,58,0,1,1,1,,,,,,,,,,,,,1,1.101,,,,,2018_Jun_18_0953,59.6503628353,verb_norming_oral_input,001,907,
ROAM,ströva omkring,ta sig fram,luffa runt,3,luffa runt,ta sig fram,ströva omkring,,,0,67,67,58,,,,,,,,,,,,,,,,,,,return,2.13024729479,,,2018_Jun_18_0953,59.6503628353,verb_norming_oral_input,001,907,
TRIP,snubbla,stampa,stappla,2,stappla,snubbla,stampa,Leg,leg,0,68,68,99,0,0,0,0,,,,,,,,,,,,,6,5.007,,,,,2018_Jun_18_0953,59.6503628353,verb_norming_oral_input,001,907,
TRIP,snubbla,stampa,stappla,2,stappla,snubbla,stampa,Arm,arm,0,68,68,99,0,1,1,1,,,,,,,,,,,,,2,0.951,,,,,2018_Jun_18_0953,59.6503628353,verb_norming_oral_input,001,907,
TRIP,snubbla,stampa,stappla,2,stappla,snubbla,stampa,,,0,68,68,99,,,,,,,,,,,,,,,,,,,return,2.34823289464,,,2018_Jun_18_0953,59.6503628353,verb_norming_oral_input,001,907,
HIKE,vandra,flanera,lunka,3,lunka,flanera,vandra,Leg,leg,0,69,69,31,0,0,0,0,,,,,,,,,,,,,7,6.869,,,,,2018_Jun_18_0953,59.6503628353,verb_norming_oral_input,001,907,
HIKE,vandra,flanera,lunka,3,lunka,flanera,vandra,Arm,arm,0,69,69,31,0,1,1,1,,,,,,,,,,,,,1,6.201,,,,,2018_Jun_18_0953,59.6503628353,verb_norming_oral_input,001,907,
HIKE,vandra,flanera,lunka,3,lunka,flanera,vandra,,,0,69,69,31,,,,,,,,,,,,,,,,,,,return,1.9624832128,,,2018_Jun_18_0953,59.6503628353,verb_norming_oral_input,001,907,
GRASP,gripa,klämma,omfamna,1,gripa,omfamna,klämma,Leg,leg,0,70,70,27,0,0,0,0,,,,,,,,,,,,,3,15.605,,,,,2018_Jun_18_0953,59.6503628353,verb_norming_oral_input,001,907,
GRASP,gripa,klämma,omfamna,1,gripa,omfamna,klämma,Arm,arm,0,70,70,27,0,1,1,1,,,,,,,,,,,,,7,2.309,,,,,2018_Jun_18_0953,59.6503628353,verb_norming_oral_input,001,907,
GRASP,gripa,klämma,omfamna,1,gripa,omfamna,klämma,,,0,70,70,27,,,,,,,,,,,,,,,,,,,return,1.45953708237,,,2018_Jun_18_0953,59.6503628353,verb_norming_oral_input,001,907,
RUB,gnugga,riva,klappa,3,klappa,riva,gnugga,Leg,leg,0,71,71,60,0,0,0,0,,,,,,,,,,,,,1,4.522,,,,,2018_Jun_18_0953,59.6503628353,verb_norming_oral_input,001,907,
RUB,gnugga,riva,klappa,3,klappa,riva,gnugga,Arm,arm,0,71,71,60,0,1,1,1,,,,,,,,,,,,,7,0.818,,,,,2018_Jun_18_0953,59.6503628353,verb_norming_oral_input,001,907,
RUB,gnugga,riva,klappa,3,klappa,riva,gnugga,,,0,71,71,60,,,,,,,,,,,,,,,,,,,return,1.84532548489,,,2018_Jun_18_0953,59.6503628353,verb_norming_oral_input,001,907,
WASH,tvätta,skura,sopa,3,skura,sopa,tvätta,Leg,leg,0,72,72,107,0,0,0,0,,,,,,,,,,,,,1,2.626,,,,,2018_Jun_18_0953,59.6503628353,verb_norming_oral_input,001,907,
WASH,tvätta,skura,sopa,3,skura,sopa,tvätta,Arm,arm,0,72,72,107,0,1,1,1,,,,,,,,,,,,,7,0.684,,,,,2018_Jun_18_0953,59.6503628353,verb_norming_oral_input,001,907,
WASH,tvätta,skura,sopa,3,skura,sopa,tvätta,,,0,72,72,107,,,,,,,,,,,,,,,,,,,return,1.81171118953,,,2018_Jun_18_0953,59.6503628353,verb_norming_oral_input,001,907,
SCRAPE,skrapa,rispa,klösa,3,klösa,rispa,skrapa,Leg,leg,0,73,73,64,0,0,0,0,,,,,,,,,,,,,3,26.976,,,,,2018_Jun_18_0953,59.6503628353,verb_norming_oral_input,001,907,
SCRAPE,skrapa,rispa,klösa,3,klösa,rispa,skrapa,Arm,arm,0,73,73,64,0,1,1,1,,,,,,,,,,,,,7,1.219,,,,,2018_Jun_18_0953,59.6503628353,verb_norming_oral_input,001,907,
SCRAPE,skrapa,rispa,klösa,3,klösa,rispa,skrapa,,,0,73,73,64,,,,,,,,,,,,,,,,,,,return,1.64390522599,,,2018_Jun_18_0953,59.6503628353,verb_norming_oral_input,001,907,
MARCH,marschera,trava,traska,2,trava,marschera,traska,Leg,leg,0,74,74,42,0,0,0,0,,,,,,,,,,,,,7,4.99,,,,,2018_Jun_18_0953,59.6503628353,verb_norming_oral_input,001,907,
MARCH,marschera,trava,traska,2,trava,marschera,traska,Arm,arm,0,74,74,42,0,1,1,1,,,,,,,,,,,,,1,1.017,,,,,2018_Jun_18_0953,59.6503628353,verb_norming_oral_input,001,907,
MARCH,marschera,trava,traska,2,trava,marschera,traska,,,0,74,74,42,,,,,,,,,,,,,,,,,,,return,2.59997739976,,,2018_Jun_18_0953,59.6503628353,verb_norming_oral_input,001,907,
STRAY,ströva,vandra,promenera,3,vandra,promenera,ströva,Leg,leg,0,75,75,87,0,0,0,0,,,,,,,,,,,,,7,111.218,,,,,2018_Jun_18_0953,59.6503628353,verb_norming_oral_input,001,907,
STRAY,ströva,vandra,promenera,3,vandra,promenera,ströva,Arm,arm,0,75,75,87,0,1,1,1,,,,,,,,,,,,,1,2.544,,,,,2018_Jun_18_0953,59.6503628353,verb_norming_oral_input,001,907,
STRAY,ströva,vandra,promenera,3,vandra,promenera,ströva,,,0,75,75,87,,,,,,,,,,,,,,,,,,,return,1.67752426266,,,2018_Jun_18_0953,59.6503628353,verb_norming_oral_input,001,907,
STAGGER,ragla,lunka,halka,3,halka,lunka,ragla,Leg,leg,0,76,76,82,0,0,0,0,,,,,,,,,,,,,7,8.543,,,,,2018_Jun_18_0953,59.6503628353,verb_norming_oral_input,001,907,
STAGGER,ragla,lunka,halka,3,halka,lunka,ragla,Arm,arm,0,76,76,82,0,1,1,1,,,,,,,,,,,,,1,142.882,,,,,2018_Jun_18_0953,59.6503628353,verb_norming_oral_input,001,907,
STAGGER,ragla,lunka,halka,3,halka,lunka,ragla,,,0,76,76,82,,,,,,,,,,,,,,,,,,,return,2.04645257289,,,2018_Jun_18_0953,59.6503628353,verb_norming_oral_input,001,907,
RAMBLE,ströva,strutta,spurta,2,spurta,ströva,strutta,Leg,leg,0,77,77,57,0,0,0,0,,,,,,,,,,,,,1,34.637,,,,,2018_Jun_18_0953,59.6503628353,verb_norming_oral_input,001,907,
RAMBLE,ströva,strutta,spurta,2,spurta,ströva,strutta,Arm,arm,0,77,77,57,0,1,1,1,,,,,,,,,,,,,1,11.85,,,,,2018_Jun_18_0953,59.6503628353,verb_norming_oral_input,001,907,
RAMBLE,ströva,strutta,spurta,2,spurta,ströva,strutta,,,0,77,77,57,,,,,,,,,,,,,,,,,,,return,16.2179204069,,,2018_Jun_18_0953,59.6503628353,verb_norming_oral_input,001,907,
SCRUB,skrubba,sopa,skrapa,2,skrapa,skrubba,sopa,Leg,leg,0,78,78,66,0,0,0,0,,,,,,,,,,,,,1,21.744,,,,,2018_Jun_18_0953,59.6503628353,verb_norming_oral_input,001,907,
SCRUB,skrubba,sopa,skrapa,2,skrapa,skrubba,sopa,Arm,arm,0,78,78,66,0,1,1,1,,,,,,,,,,,,,7,1.84,,,,,2018_Jun_18_0953,59.6503628353,verb_norming_oral_input,001,907,
SCRUB,skrubba,sopa,skrapa,2,skrapa,skrubba,sopa,,,0,78,78,66,,,,,,,,,,,,,,,,,,,return,1.99617732019,,,2018_Jun_18_0953,59.6503628353,verb_norming_oral_input,001,907,
DELVE,gräva,plöja,rensa,3,rensa,plöja,gräva,Leg,leg,0,79,79,18,0,0,0,0,,,,,,,,,,,,,2,31.42,,,,,2018_Jun_18_0953,59.6503628353,verb_norming_oral_input,001,907,
DELVE,gräva,plöja,rensa,3,rensa,plöja,gräva,Arm,arm,0,79,79,18,0,1,1,1,,,,,,,,,,,,,2,12.807,,,,,2018_Jun_18_0953,59.6503628353,verb_norming_oral_input,001,907,
DELVE,gräva,plöja,rensa,3,rensa,plöja,gräva,,,0,79,79,18,,,,,,,,,,,,,,,,,,,return,19.0688592057,,,2018_Jun_18_0953,59.6503628353,verb_norming_oral_input,001,907,
POKE,peta,trycka,knuffa,2,trycka,peta,knuffa,Leg,leg,0,80,80,51,0,0,0,0,,,,,,,,,,,,,1,3.28,,,,,2018_Jun_18_0953,59.6503628353,verb_norming_oral_input,001,907,
POKE,peta,trycka,knuffa,2,trycka,peta,knuffa,Arm,arm,0,80,80,51,0,1,1,1,,,,,,,,,,,,,7,0.549,,,,,2018_Jun_18_0953,59.6503628353,verb_norming_oral_input,001,907,
POKE,peta,trycka,knuffa,2,trycka,peta,knuffa,,,0,80,80,51,,,,,,,,,,,,,,,,,,,return,1.54338040267,,,2018_Jun_18_0953,59.6503628353,verb_norming_oral_input,001,907,
JOG,jogga,spurta,rusa,3,spurta,rusa,jogga,Leg,leg,0,81,81,34,0,0,0,0,,,,,,,,,,,,,7,2.371,,,,,2018_Jun_18_0953,59.6503628353,verb_norming_oral_input,001,907,
JOG,jogga,spurta,rusa,3,spurta,rusa,jogga,Arm,arm,0,81,81,34,0,1,1,1,,,,,,,,,,,,,1,1.353,,,,,2018_Jun_18_0953,59.6503628353,verb_norming_oral_input,001,907,
JOG,jogga,spurta,rusa,3,spurta,rusa,jogga,,,0,81,81,34,,,,,,,,,,,,,,,,,,,return,1.274908957,,,2018_Jun_18_0953,59.6503628353,verb_norming_oral_input,001,907,
SWITCH,slå på/av,knäppa,nypa,1,slå på/av,nypa,knäppa,Leg,leg,0,82,82,93,0,0,0,0,,,,,,,,,,,,,1,4.537,,,,,2018_Jun_18_0953,59.6503628353,verb_norming_oral_input,001,907,
SWITCH,slå på/av,knäppa,nypa,1,slå på/av,nypa,knäppa,Arm,arm,0,82,82,93,0,1,1,1,,,,,,,,,,,,,7,1.05,,,,,2018_Jun_18_0953,59.6503628353,verb_norming_oral_input,001,907,
SWITCH,slå på/av,knäppa,nypa,1,slå på/av,nypa,knäppa,,,0,82,82,93,,,,,,,,,,,,,,,,,,,return,2.18065925521,,,2018_Jun_18_0953,59.6503628353,verb_norming_oral_input,001,907,
DIG,gräva,dränera,dika,3,dika,dränera,gräva,Leg,leg,0,83,83,19,0,0,0,0,,,,,,,,,,,,,4,2.96,,,,,2018_Jun_18_0953,59.6503628353,verb_norming_oral_input,001,907,
DIG,gräva,dränera,dika,3,dika,dränera,gräva,Arm,arm,0,83,83,19,0,1,1,1,,,,,,,,,,,,,4,0.984,,,,,2018_Jun_18_0953,59.6503628353,verb_norming_oral_input,001,907,
DIG,gräva,dränera,dika,3,dika,dränera,gräva,,,0,83,83,19,,,,,,,,,,,,,,,,,,,return,1.7445959951,,,2018_Jun_18_0953,59.6503628353,verb_norming_oral_input,001,907,
HOP,skutta,kliva,studsa,3,studsa,kliva,skutta,Leg,leg,0,84,84,32,0,0,0,0,,,,,,,,,,,,,7,3.867,,,,,2018_Jun_18_0953,59.6503628353,verb_norming_oral_input,001,907,
HOP,skutta,kliva,studsa,3,studsa,kliva,skutta,Arm,arm,0,84,84,32,0,1,1,1,,,,,,,,,,,,,2,1.003,,,,,2018_Jun_18_0953,59.6503628353,verb_norming_oral_input,001,907,
HOP,skutta,kliva,studsa,3,studsa,kliva,skutta,,,0,84,84,32,,,,,,,,,,,,,,,,,,,return,1.09055622263,,,2018_Jun_18_0953,59.6503628353,verb_norming_oral_input,001,907,
PULL,dra,slänga,släpa,3,slänga,släpa,dra,Leg,leg,0,85,85,54,0,0,0,0,,,,,,,,,,,,,1,2.375,,,,,2018_Jun_18_0953,59.6503628353,verb_norming_oral_input,001,907,
PULL,dra,slänga,släpa,3,slänga,släpa,dra,Arm,arm,0,85,85,54,0,1,1,1,,,,,,,,,,,,,7,0.934,,,,,2018_Jun_18_0953,59.6503628353,verb_norming_oral_input,001,907,
PULL,dra,slänga,släpa,3,slänga,släpa,dra,,,0,85,85,54,,,,,,,,,,,,,,,,,,,return,1.29179078029,,,2018_Jun_18_0953,59.6503628353,verb_norming_oral_input,001,907,
LIFT,lyfta,pressa,öka,2,öka,lyfta,pressa,Leg,leg,0,86,86,40,0,0,0,0,,,,,,,,,,,,,7,2.811,,,,,2018_Jun_18_0953,59.6503628353,verb_norming_oral_input,001,907,
LIFT,lyfta,pressa,öka,2,öka,lyfta,pressa,Arm,arm,0,86,86,40,0,1,1,1,,,,,,,,,,,,,5,1.287,,,,,2018_Jun_18_0953,59.6503628353,verb_norming_oral_input,001,907,
LIFT,lyfta,pressa,öka,2,öka,lyfta,pressa,,,0,86,86,40,,,,,,,,,,,,,,,,,,,return,2.61670908162,,,2018_Jun_18_0953,59.6503628353,verb_norming_oral_input,001,907,
TREAD,trampa,stampa,klampa,3,stampa,klampa,trampa,Leg,leg,0,87,87,98,0,0,0,0,,,,,,,,,,,,,7,3.966,,,,,2018_Jun_18_0953,59.6503628353,verb_norming_oral_input,001,907,
TREAD,trampa,stampa,klampa,3,stampa,klampa,trampa,Arm,arm,0,87,87,98,0,1,1,1,,,,,,,,,,,,,5,1.235,,,,,2018_Jun_18_0953,59.6503628353,verb_norming_oral_input,001,907,
TREAD,trampa,stampa,klampa,3,stampa,klampa,trampa,,,0,87,87,98,,,,,,,,,,,,,,,,,,,return,2.08005264433,,,2018_Jun_18_0953,59.6503628353,verb_norming_oral_input,001,907,
PACE,gå fram och tillbaka,luffa runt,rusa fram,2,luffa runt,gå fram och tillbaka,rusa fram,Leg,leg,0,88,88,45,0,0,0,0,,,,,,,,,,,,,7,4.705,,,,,2018_Jun_18_0953,59.6503628353,verb_norming_oral_input,001,907,
PACE,gå fram och tillbaka,luffa runt,rusa fram,2,luffa runt,gå fram och tillbaka,rusa fram,Arm,arm,0,88,88,45,0,1,1,1,,,,,,,,,,,,,1,9.84,,,,,2018_Jun_18_0953,59.6503628353,verb_norming_oral_input,001,907,
PACE,gå fram och tillbaka,luffa runt,rusa fram,2,luffa runt,gå fram och tillbaka,rusa fram,,,0,88,88,45,,,,,,,,,,,,,,,,,,,return,3.37116107133,,,2018_Jun_18_0953,59.6503628353,verb_norming_oral_input,001,907,
PRANCE,kråma sig,promenera,traska,3,promenera,traska,kråma sig,Leg,leg,0,89,89,53,0,0,0,0,,,,,,,,,,,,,7,4.688,,,,,2018_Jun_18_0953,59.6503628353,verb_norming_oral_input,001,907,
PRANCE,kråma sig,promenera,traska,3,promenera,traska,kråma sig,Arm,arm,0,89,89,53,0,1,1,1,,,,,,,,,,,,,1,42.828,,,,,2018_Jun_18_0953,59.6503628353,verb_norming_oral_input,001,907,
PRANCE,kråma sig,promenera,traska,3,promenera,traska,kråma sig,,,0,89,89,53,,,,,,,,,,,,,,,,,,,return,2.06324470643,,,2018_Jun_18_0953,59.6503628353,verb_norming_oral_input,001,907,
BASH,slå,knuffa,trycka,2,knuffa,slå,trycka,Leg,leg,0,90,90,0,0,0,0,0,,,,,,,,,,,,,1,26.692,,,,,2018_Jun_18_0953,59.6503628353,verb_norming_oral_input,001,907,
BASH,slå,knuffa,trycka,2,knuffa,slå,trycka,Arm,arm,0,90,90,0,0,1,1,1,,,,,,,,,,,,,3,3.601,,,,,2018_Jun_18_0953,59.6503628353,verb_norming_oral_input,001,907,
BASH,slå,knuffa,trycka,2,knuffa,slå,trycka,,,0,90,90,0,,,,,,,,,,,,,,,,,,,return,3.40493657117,,,2018_Jun_18_0953,59.6503628353,verb_norming_oral_input,001,907,
SWAY,vingla,tassa,ramla,2,tassa,vingla,ramla,Leg,leg,0,91,91,92,0,0,0,0,,,,,,,,,,,,,7,20.403,,,,,2018_Jun_18_0953,59.6503628353,verb_norming_oral_input,001,907,
SWAY,vingla,tassa,ramla,2,tassa,vingla,ramla,Arm,arm,0,91,91,92,0,1,1,1,,,,,,,,,,,,,1,1.002,,,,,2018_Jun_18_0953,59.6503628353,verb_norming_oral_input,001,907,
SWAY,vingla,tassa,ramla,2,tassa,vingla,ramla,,,0,91,91,92,,,,,,,,,,,,,,,,,,,return,16.6882791303,,,2018_Jun_18_0953,59.6503628353,verb_norming_oral_input,001,907,
SNATCH,rycka till sig,knuffa ifrån sig,plocka åt sig,3,knuffa ifrån sig,plocka åt sig,rycka till sig,Leg,leg,0,92,92,77,0,0,0,0,,,,,,,,,,,,,2,7.153,,,,,2018_Jun_18_0953,59.6503628353,verb_norming_oral_input,001,907,
SNATCH,rycka till sig,knuffa ifrån sig,plocka åt sig,3,knuffa ifrån sig,plocka åt sig,rycka till sig,Arm,arm,0,92,92,77,0,1,1,1,,,,,,,,,,,,,7,13.378,,,,,2018_Jun_18_0953,59.6503628353,verb_norming_oral_input,001,907,
SNATCH,rycka till sig,knuffa ifrån sig,plocka åt sig,3,knuffa ifrån sig,plocka åt sig,rycka till sig,,,0,92,92,77,,,,,,,,,,,,,,,,,,,return,7.68157017907,,,2018_Jun_18_0953,59.6503628353,verb_norming_oral_input,001,907,
KNEEL,knäböja,krypa,kräla,3,krypa,kräla,knäböja,Leg,leg,0,93,93,37,0,0,0,0,,,,,,,,,,,,,5,11.195,,,,,2018_Jun_18_0953,59.6503628353,verb_norming_oral_input,001,907,
KNEEL,knäböja,krypa,kräla,3,krypa,kräla,knäböja,Arm,arm,0,93,93,37,0,1,1,1,,,,,,,,,,,,,1,0.833,,,,,2018_Jun_18_0953,59.6503628353,verb_norming_oral_input,001,907,
KNEEL,knäböja,krypa,kräla,3,krypa,kräla,knäböja,,,0,93,93,37,,,,,,,,,,,,,,,,,,,return,23.764861137,,,2018_Jun_18_0953,59.6503628353,verb_norming_oral_input,001,907,
STUMBLE,snubbla,glida,svaja,1,snubbla,glida,svaja,Leg,leg,0,94,94,91,0,0,0,0,,,,,,,,,,,,,7,5.793,,,,,2018_Jun_18_0953,59.6503628353,verb_norming_oral_input,001,907,
STUMBLE,snubbla,glida,svaja,1,snubbla,glida,svaja,Arm,arm,0,94,94,91,0,1,1,1,,,,,,,,,,,,,1,0.429,,,,,2018_Jun_18_0953,59.6503628353,verb_norming_oral_input,001,907,
STUMBLE,snubbla,glida,svaja,1,snubbla,glida,svaja,,,0,94,94,91,,,,,,,,,,,,,,,,,,,return,7.68156543776,,,2018_Jun_18_0953,59.6503628353,verb_norming_oral_input,001,907,
CHOP,hacka,tälja,riva,2,tälja,hacka,riva,Leg,leg,0,95,95,7,0,0,0,0,,,,,,,,,,,,,1,4.571,,,,,2018_Jun_18_0953,59.6503628353,verb_norming_oral_input,001,907,
CHOP,hacka,tälja,riva,2,tälja,hacka,riva,Arm,arm,0,95,95,7,0,1,1,1,,,,,,,,,,,,,7,1.974,,,,,2018_Jun_18_0953,59.6503628353,verb_norming_oral_input,001,907,
CHOP,hacka,tälja,riva,2,tälja,hacka,riva,,,0,95,95,7,,,,,,,,,,,,,,,,,,,return,1.24131797307,,,2018_Jun_18_0953,59.6503628353,verb_norming_oral_input,001,907,
SCOOP,skyffla,dika,skrapa,1,skyffla,skrapa,dika,Leg,leg,0,96,96,63,0,0,0,0,,,,,,,,,,,,,1,7.572,,,,,2018_Jun_18_0953,59.6503628353,verb_norming_oral_input,001,907,
SCOOP,skyffla,dika,skrapa,1,skyffla,skrapa,dika,Arm,arm,0,96,96,63,0,1,1,1,,,,,,,,,,,,,7,0.767,,,,,2018_Jun_18_0953,59.6503628353,verb_norming_oral_input,001,907,
SCOOP,skyffla,dika,skrapa,1,skyffla,skrapa,dika,,,0,96,96,63,,,,,,,,,,,,,,,,,,,return,2.31478731084,,,2018_Jun_18_0953,59.6503628353,verb_norming_oral_input,001,907,
CLIMB,klättra,kliva,krypa,2,kliva,klättra,krypa,Leg,leg,0,97,97,12,0,0,0,0,,,,,,,,,,,,,7,3.127,,,,,2018_Jun_18_0953,59.6503628353,verb_norming_oral_input,001,907,
CLIMB,klättra,kliva,krypa,2,kliva,klättra,krypa,Arm,arm,0,97,97,12,0,1,1,1,,,,,,,,,,,,,4,0.631,,,,,2018_Jun_18_0953,59.6503628353,verb_norming_oral_input,001,907,
CLIMB,klättra,kliva,krypa,2,kliva,klättra,krypa,,,0,97,97,12,,,,,,,,,,,,,,,,,,,return,0.906091672406,,,2018_Jun_18_0953,59.6503628353,verb_norming_oral_input,001,907,
TROT,trava,promenera,flanera,1,trava,promenera,flanera,Leg,leg,0,98,98,100,0,0,0,0,,,,,,,,,,,,,7,4.957,,,,,2018_Jun_18_0953,59.6503628353,verb_norming_oral_input,001,907,
TROT,trava,promenera,flanera,1,trava,promenera,flanera,Arm,arm,0,98,98,100,0,1,1,1,,,,,,,,,,,,,1,1.203,,,,,2018_Jun_18_0953,59.6503628353,verb_norming_oral_input,001,907,
TROT,trava,promenera,flanera,1,trava,promenera,flanera,,,0,98,98,100,,,,,,,,,,,,,,,,,,,return,1.76119571054,,,2018_Jun_18_0953,59.6503628353,verb_norming_oral_input,001,907,
WRAP,slå in,slå ihop,slå till,3,slå till,slå ihop,slå in,Leg,leg,0,99,99,111,0,0,0,0,,,,,,,,,,,,,1,4.773,,,,,2018_Jun_18_0953,59.6503628353,verb_norming_oral_input,001,907,
WRAP,slå in,slå ihop,slå till,3,slå till,slå ihop,slå in,Arm,arm,0,99,99,111,0,1,1,1,,,,,,,,,,,,,7,11.685,,,,,2018_Jun_18_0953,59.6503628353,verb_norming_oral_input,001,907,
WRAP,slå in,slå ihop,slå till,3,slå till,slå ihop,slå in,,,0,99,99,111,,,,,,,,,,,,,,,,,,,return,2.71720348154,,,2018_Jun_18_0953,59.6503628353,verb_norming_oral_input,001,907,
DUNK,dunka,dumpa,dunsa,1,dunka,dunsa,dumpa,Leg,leg,0,100,100,20,0,0,0,0,,,,,,,,,,,,,1,16.31,,,,,2018_Jun_18_0953,59.6503628353,verb_norming_oral_input,001,907,
DUNK,dunka,dumpa,dunsa,1,dunka,dunsa,dumpa,Arm,arm,0,100,100,20,0,1,1,1,,,,,,,,,,,,,7,8.563,,,,,2018_Jun_18_0953,59.6503628353,verb_norming_oral_input,001,907,
DUNK,dunka,dumpa,dunsa,1,dunka,dunsa,dumpa,,,0,100,100,20,,,,,,,,,,,,,,,,,,,return,64.5016790158,,,2018_Jun_18_0953,59.6503628353,verb_norming_oral_input,001,907,
WOBBLE,vingla,ramla,glida,2,glida,vingla,ramla,Leg,leg,0,101,101,110,0,0,0,0,,,,,,,,,,,,,7,19.395,,,,,2018_Jun_18_0953,59.6503628353,verb_norming_oral_input,001,907,
WOBBLE,vingla,ramla,glida,2,glida,vingla,ramla,Arm,arm,0,101,101,110,0,1,1,1,,,,,,,,,,,,,1,0.699,,,,,2018_Jun_18_0953,59.6503628353,verb_norming_oral_input,001,907,
WOBBLE,vingla,ramla,glida,2,glida,vingla,ramla,,,0,101,101,110,,,,,,,,,,,,,,,,,,,return,1.56015712696,,,2018_Jun_18_0953,59.6503628353,verb_norming_oral_input,001,907,
STRUT,svassa,lunka,strosa,1,svassa,strosa,lunka,Leg,leg,0,102,102,90,0,0,0,0,,,,,,,,,,,,,7,8.394,,,,,2018_Jun_18_0953,59.6503628353,verb_norming_oral_input,001,907,
STRUT,svassa,lunka,strosa,1,svassa,strosa,lunka,Arm,arm,0,102,102,90,0,1,1,1,,,,,,,,,,,,,1,0.7,,,,,2018_Jun_18_0953,59.6503628353,verb_norming_oral_input,001,907,
STRUT,svassa,lunka,strosa,1,svassa,strosa,lunka,,,0,102,102,90,,,,,,,,,,,,,,,,,,,return,2.56635678266,,,2018_Jun_18_0953,59.6503628353,verb_norming_oral_input,001,907,
BRAID,fläta,knyta,binda,2,binda,fläta,knyta,Leg,leg,0,103,103,3,0,0,0,0,,,,,,,,,,,,,1,2.02,,,,,2018_Jun_18_0953,59.6503628353,verb_norming_oral_input,001,907,
BRAID,fläta,knyta,binda,2,binda,fläta,knyta,Arm,arm,0,103,103,3,0,1,1,1,,,,,,,,,,,,,7,1.134,,,,,2018_Jun_18_0953,59.6503628353,verb_norming_oral_input,001,907,
BRAID,fläta,knyta,binda,2,binda,fläta,knyta,,,0,103,103,3,,,,,,,,,,,,,,,,,,,return,1.35874674578,,,2018_Jun_18_0953,59.6503628353,verb_norming_oral_input,001,907,
GRATE,riva,hugga,rispa,1,riva,hugga,rispa,Leg,leg,0,104,104,28,0,0,0,0,,,,,,,,,,,,,1,2.49,,,,,2018_Jun_18_0953,59.6503628353,verb_norming_oral_input,001,907,
GRATE,riva,hugga,rispa,1,riva,hugga,rispa,Arm,arm,0,104,104,28,0,1,1,1,,,,,,,,,,,,,7,0.917,,,,,2018_Jun_18_0953,59.6503628353,verb_norming_oral_input,001,907,
GRATE,riva,hugga,rispa,1,riva,hugga,rispa,,,0,104,104,28,,,,,,,,,,,,,,,,,,,return,1.44274020752,,,2018_Jun_18_0953,59.6503628353,verb_norming_oral_input,001,907,
STRIDE,kliva,tassa,lunka,3,lunka,tassa,kliva,Leg,leg,0,105,105,88,0,0,0,0,,,,,,,,,,,,,7,7.42,,,,,2018_Jun_18_0953,59.6503628353,verb_norming_oral_input,001,907,
STRIDE,kliva,tassa,lunka,3,lunka,tassa,kliva,Arm,arm,0,105,105,88,0,1,1,1,,,,,,,,,,,,,1,0.983,,,,,2018_Jun_18_0953,59.6503628353,verb_norming_oral_input,001,907,
STRIDE,kliva,tassa,lunka,3,lunka,tassa,kliva,,,0,105,105,88,,,,,,,,,,,,,,,,,,,return,1.82838281481,,,2018_Jun_18_0953,59.6503628353,verb_norming_oral_input,001,907,
WALK,gå,promenera,marschera,1,gå,marschera,promenera,Leg,leg,0,106,106,105,0,0,0,0,,,,,,,,,,,,,7,2.727,,,,,2018_Jun_18_0953,59.6503628353,verb_norming_oral_input,001,907,
WALK,gå,promenera,marschera,1,gå,marschera,promenera,Arm,arm,0,106,106,105,0,1,1,1,,,,,,,,,,,,,1,0.734,,,,,2018_Jun_18_0953,59.6503628353,verb_norming_oral_input,001,907,
WALK,gå,promenera,marschera,1,gå,marschera,promenera,,,0,106,106,105,,,,,,,,,,,,,,,,,,,return,1.22473919841,,,2018_Jun_18_0953,59.6503628353,verb_norming_oral_input,001,907,
KICK,sparka,knäa,tåa,3,knäa,tåa,sparka,Leg,leg,0,107,107,36,0,0,0,0,,,,,,,,,,,,,7,2.189,,,,,2018_Jun_18_0953,59.6503628353,verb_norming_oral_input,001,907,
KICK,sparka,knäa,tåa,3,knäa,tåa,sparka,Arm,arm,0,107,107,36,0,1,1,1,,,,,,,,,,,,,1,0.734,,,,,2018_Jun_18_0953,59.6503628353,verb_norming_oral_input,001,907,
KICK,sparka,knäa,tåa,3,knäa,tåa,sparka,,,0,107,107,36,,,,,,,,,,,,,,,,,,,return,1.40854826277,,,2018_Jun_18_0953,59.6503628353,verb_norming_oral_input,001,907,
JUMP,hoppa,kliva,lyfta,1,hoppa,kliva,lyfta,Leg,leg,0,108,108,35,0,0,0,0,,,,,,,,,,,,,7,2.256,,,,,2018_Jun_18_0953,59.6503628353,verb_norming_oral_input,001,907,
JUMP,hoppa,kliva,lyfta,1,hoppa,kliva,lyfta,Arm,arm,0,108,108,35,0,1,1,1,,,,,,,,,,,,,1,0.715,,,,,2018_Jun_18_0953,59.6503628353,verb_norming_oral_input,001,907,
JUMP,hoppa,kliva,lyfta,1,hoppa,kliva,lyfta,,,0,108,108,35,,,,,,,,,,,,,,,,,,,return,1.27505080114,,,2018_Jun_18_0953,59.6503628353,verb_norming_oral_input,001,907,
NIP,nypa,peta,nudda,1,nypa,nudda,peta,Leg,leg,0,109,109,44,0,0,0,0,,,,,,,,,,,,,1,26.02,,,,,2018_Jun_18_0953,59.6503628353,verb_norming_oral_input,001,907,
NIP,nypa,peta,nudda,1,nypa,nudda,peta,Arm,arm,0,109,109,44,0,1,1,1,,,,,,,,,,,,,7,1.388,,,,,2018_Jun_18_0953,59.6503628353,verb_norming_oral_input,001,907,
NIP,nypa,peta,nudda,1,nypa,nudda,peta,,,0,109,109,44,,,,,,,,,,,,,,,,,,,return,2.86820940936,,,2018_Jun_18_0953,59.6503628353,verb_norming_oral_input,001,907,
WHIP,piska,klappa,slå,2,klappa,piska,slå,Leg,leg,0,110,110,108,0,0,0,0,,,,,,,,,,,,,1,2.072,,,,,2018_Jun_18_0953,59.6503628353,verb_norming_oral_input,001,907,
WHIP,piska,klappa,slå,2,klappa,piska,slå,Arm,arm,0,110,110,108,0,1,1,1,,,,,,,,,,,,,7,3.35,,,,,2018_Jun_18_0953,59.6503628353,verb_norming_oral_input,001,907,
WHIP,piska,klappa,slå,2,klappa,piska,slå,,,0,110,110,108,,,,,,,,,,,,,,,,,,,return,4.24334093128,,,2018_Jun_18_0953,59.6503628353,verb_norming_oral_input,001,907,
SHAKE,skaka,röra,vispa,1,skaka,vispa,röra,Leg,leg,0,111,111,69,0,0,0,0,,,,,,,,,,,,,1,2.139,,,,,2018_Jun_18_0953,59.6503628353,verb_norming_oral_input,001,907,
SHAKE,skaka,röra,vispa,1,skaka,vispa,röra,Arm,arm,0,111,111,69,0,1,1,1,,,,,,,,,,,,,7,0.834,,,,,2018_Jun_18_0953,59.6503628353,verb_norming_oral_input,001,907,
SHAKE,skaka,röra,vispa,1,skaka,vispa,röra,,,0,111,111,69,,,,,,,,,,,,,,,,,,,return,1.77804908597,,,2018_Jun_18_0953,59.6503628353,verb_norming_oral_input,001,907,
,,,,,,,,,,,,,,,,,,,,,,,,,,,,,,,,,,space,40.0326628728,2018_Jun_18_0953,59.6503628353,verb_norming_oral_input,001,907,
