word,target,distrOne,distrTwo,corrAns,w1,w2,w3,category,category_lowercase,trials.thisRepN,trials.thisTrialN,trials.thisN,trials.thisIndex,armleg_loop.thisRepN,armleg_loop.thisTrialN,armleg_loop.thisN,armleg_loop.thisIndex,key_resp_9.keys,key_resp_9.rt,key_resp_2.keys,key_resp_2.rt,key_resp_3.keys,key_resp_3.rt,key_resp_4.keys,key_resp_4.rt,key_resp_6.keys,key_resp_6.rt,key_resp_5.keys,key_resp_5.rt,rating.response,rating.rt,key_resp_7.keys,key_resp_7.rt,key_resp_8.keys,key_resp_8.rt,date,frameRate,expName,session,participant,
,,,,,,,,,,,,,,,,,,space,22.9929046321,,,,,,,,,,,,,,,,,2018_Jun_18_1302,59.6219779077,verb_norming_oral_input,001,908,
,,,,,,,,,,,,,,,,,,,,space,24.8884204213,,,,,,,,,,,,,,,2018_Jun_18_1302,59.6219779077,verb_norming_oral_input,001,908,
,,,,,,,,,,,,,,,,,,,,,,space,16.9892917552,,,,,,,,,,,,,2018_Jun_18_1302,59.6219779077,verb_norming_oral_input,001,908,
,,,,,,,,,,,,,,,,,,,,,,,,space,7.21184402518,,,,,,,,,,,2018_Jun_18_1302,59.6219779077,verb_norming_oral_input,001,908,
,,,,,,,,,,,,,,,,,,,,,,,,,,space,15.8321485989,,,,,,,,,2018_Jun_18_1302,59.6219779077,verb_norming_oral_input,001,908,
,,,,,,,,,,,,,,,,,,,,,,,,,,,,space,23.9824247604,,,,,,,2018_Jun_18_1302,59.6219779077,verb_norming_oral_input,001,908,
RAMBLE,ströva,strutta,spurta,3,strutta,spurta,ströva,Arm,arm,0,0,0,57,0,0,0,0,,,,,,,,,,,,,1,21.736,,,,,2018_Jun_18_1302,59.6219779077,verb_norming_oral_input,001,908,
RAMBLE,ströva,strutta,spurta,3,strutta,spurta,ströva,Leg,leg,0,0,0,57,0,1,1,1,,,,,,,,,,,,,5,4.857,,,,,2018_Jun_18_1302,59.6219779077,verb_norming_oral_input,001,908,
RAMBLE,ströva,strutta,spurta,3,strutta,spurta,ströva,,,0,0,0,57,,,,,,,,,,,,,,,,,,,return,25.9450411249,,,2018_Jun_18_1302,59.6219779077,verb_norming_oral_input,001,908,
ROLL,vingla,snubbla,svassa,3,svassa,snubbla,vingla,Arm,arm,0,1,1,59,0,0,0,0,,,,,,,,,,,,,2,5.979,,,,,2018_Jun_18_1302,59.6219779077,verb_norming_oral_input,001,908,
ROLL,vingla,snubbla,svassa,3,svassa,snubbla,vingla,Leg,leg,0,1,1,59,0,1,1,1,,,,,,,,,,,,,4,4.44,,,,,2018_Jun_18_1302,59.6219779077,verb_norming_oral_input,001,908,
ROLL,vingla,snubbla,svassa,3,svassa,snubbla,vingla,,,0,1,1,59,,,,,,,,,,,,,,,,,,,return,6.7255861146,,,2018_Jun_18_1302,59.6219779077,verb_norming_oral_input,001,908,
FLEE,fly,lyfta,flyga,1,fly,lyfta,flyga,Arm,arm,0,2,2,22,0,0,0,0,,,,,,,,,,,,,1,4.739,,,,,2018_Jun_18_1302,59.6219779077,verb_norming_oral_input,001,908,
FLEE,fly,lyfta,flyga,1,fly,lyfta,flyga,Leg,leg,0,2,2,22,0,1,1,1,,,,,,,,,,,,,7,1.136,,,,,2018_Jun_18_1302,59.6219779077,verb_norming_oral_input,001,908,
FLEE,fly,lyfta,flyga,1,fly,lyfta,flyga,,,0,2,2,22,,,,,,,,,,,,,,,,,,,return,2.85148760523,,,2018_Jun_18_1302,59.6219779077,verb_norming_oral_input,001,908,
LEAP,hoppa,stega,kliva,1,hoppa,stega,kliva,Arm,arm,0,3,3,39,0,0,0,0,,,,,,,,,,,,,2,7.589,,,,,2018_Jun_18_1302,59.6219779077,verb_norming_oral_input,001,908,
LEAP,hoppa,stega,kliva,1,hoppa,stega,kliva,Leg,leg,0,3,3,39,0,1,1,1,,,,,,,,,,,,,7,2.813,,,,,2018_Jun_18_1302,59.6219779077,verb_norming_oral_input,001,908,
LEAP,hoppa,stega,kliva,1,hoppa,stega,kliva,,,0,3,3,39,,,,,,,,,,,,,,,,,,,return,38.5737769301,,,2018_Jun_18_1302,59.6219779077,verb_norming_oral_input,001,908,
STAB,sticka,hacka,skära,2,skära,sticka,hacka,Arm,arm,0,4,4,81,0,0,0,0,,,,,,,,,,,,,7,4.436,,,,,2018_Jun_18_1302,59.6219779077,verb_norming_oral_input,001,908,
STAB,sticka,hacka,skära,2,skära,sticka,hacka,Leg,leg,0,4,4,81,0,1,1,1,,,,,,,,,,,,,1,9.84,,,,,2018_Jun_18_1302,59.6219779077,verb_norming_oral_input,001,908,
STAB,sticka,hacka,skära,2,skära,sticka,hacka,,,0,4,4,81,,,,,,,,,,,,,,,,,,,return,14.9601706397,,,2018_Jun_18_1302,59.6219779077,verb_norming_oral_input,001,908,
WALK,gå,promenera,marschera,2,promenera,gå,marschera,Arm,arm,0,5,5,105,0,0,0,0,,,,,,,,,,,,,1,3.715,,,,,2018_Jun_18_1302,59.6219779077,verb_norming_oral_input,001,908,
WALK,gå,promenera,marschera,2,promenera,gå,marschera,Leg,leg,0,5,5,105,0,1,1,1,,,,,,,,,,,,,7,2.864,,,,,2018_Jun_18_1302,59.6219779077,verb_norming_oral_input,001,908,
WALK,gå,promenera,marschera,2,promenera,gå,marschera,,,0,5,5,105,,,,,,,,,,,,,,,,,,,return,8.16789841905,,,2018_Jun_18_1302,59.6219779077,verb_norming_oral_input,001,908,
BRUSH,borsta,skrubba,putsa,1,borsta,putsa,skrubba,Arm,arm,0,6,6,4,0,0,0,0,,,,,,,,,,,,,7,7.774,,,,,2018_Jun_18_1302,59.6219779077,verb_norming_oral_input,001,908,
BRUSH,borsta,skrubba,putsa,1,borsta,putsa,skrubba,Leg,leg,0,6,6,4,0,1,1,1,,,,,,,,,,,,,1,9.571,,,,,2018_Jun_18_1302,59.6219779077,verb_norming_oral_input,001,908,
BRUSH,borsta,skrubba,putsa,1,borsta,putsa,skrubba,,,0,6,6,4,,,,,,,,,,,,,,,,,,,return,162.712581496,,,2018_Jun_18_1302,59.6219779077,verb_norming_oral_input,001,908,
STRUT,svassa,lunka,strosa,3,strosa,lunka,svassa,Arm,arm,0,7,7,90,0,0,0,0,,,,,,,,,,,,,1,9.081,,,,,2018_Jun_18_1302,59.6219779077,verb_norming_oral_input,001,908,
STRUT,svassa,lunka,strosa,3,strosa,lunka,svassa,Leg,leg,0,7,7,90,0,1,1,1,,,,,,,,,,,,,7,1.538,,,,,2018_Jun_18_1302,59.6219779077,verb_norming_oral_input,001,908,
STRUT,svassa,lunka,strosa,3,strosa,lunka,svassa,,,0,7,7,90,,,,,,,,,,,,,,,,,,,return,61.6168841149,,,2018_Jun_18_1302,59.6219779077,verb_norming_oral_input,001,908,
RUB,gnugga,riva,klappa,1,gnugga,riva,klappa,Arm,arm,0,8,8,60,0,0,0,0,,,,,,,,,,,,,7,5.846,,,,,2018_Jun_18_1302,59.6219779077,verb_norming_oral_input,001,908,
RUB,gnugga,riva,klappa,1,gnugga,riva,klappa,Leg,leg,0,8,8,60,0,1,1,1,,,,,,,,,,,,,1,4.24,,,,,2018_Jun_18_1302,59.6219779077,verb_norming_oral_input,001,908,
RUB,gnugga,riva,klappa,1,gnugga,riva,klappa,,,0,8,8,60,,,,,,,,,,,,,,,,,,,return,7.71502089929,,,2018_Jun_18_1302,59.6219779077,verb_norming_oral_input,001,908,
SKIP,hoppa,kliva,strutta,1,hoppa,strutta,kliva,Arm,arm,0,9,9,72,0,0,0,0,,,,,,,,,,,,,1,3.447,,,,,2018_Jun_18_1302,59.6219779077,verb_norming_oral_input,001,908,
SKIP,hoppa,kliva,strutta,1,hoppa,strutta,kliva,Leg,leg,0,9,9,72,0,1,1,1,,,,,,,,,,,,,5,3.068,,,,,2018_Jun_18_1302,59.6219779077,verb_norming_oral_input,001,908,
SKIP,hoppa,kliva,strutta,1,hoppa,strutta,kliva,,,0,9,9,72,,,,,,,,,,,,,,,,,,,return,3.60619483537,,,2018_Jun_18_1302,59.6219779077,verb_norming_oral_input,001,908,
PACE,gå fram och tillbaka,luffa runt,rusa fram,1,gå fram och tillbaka,rusa fram,luffa runt,Arm,arm,0,10,10,45,0,0,0,0,,,,,,,,,,,,,1,2.726,,,,,2018_Jun_18_1302,59.6219779077,verb_norming_oral_input,001,908,
PACE,gå fram och tillbaka,luffa runt,rusa fram,1,gå fram och tillbaka,rusa fram,luffa runt,Leg,leg,0,10,10,45,0,1,1,1,,,,,,,,,,,,,7,1.722,,,,,2018_Jun_18_1302,59.6219779077,verb_norming_oral_input,001,908,
PACE,gå fram och tillbaka,luffa runt,rusa fram,1,gå fram och tillbaka,rusa fram,luffa runt,,,0,10,10,45,,,,,,,,,,,,,,,,,,,return,25.9618293074,,,2018_Jun_18_1302,59.6219779077,verb_norming_oral_input,001,908,
PUSH,knuffa,kasta,klämma,1,knuffa,klämma,kasta,Arm,arm,0,11,11,56,0,0,0,0,,,,,,,,,,,,,7,4.688,,,,,2018_Jun_18_1302,59.6219779077,verb_norming_oral_input,001,908,
PUSH,knuffa,kasta,klämma,1,knuffa,klämma,kasta,Leg,leg,0,11,11,56,0,1,1,1,,,,,,,,,,,,,1,1.371,,,,,2018_Jun_18_1302,59.6219779077,verb_norming_oral_input,001,908,
PUSH,knuffa,kasta,klämma,1,knuffa,klämma,kasta,,,0,11,11,56,,,,,,,,,,,,,,,,,,,return,1.45951969757,,,2018_Jun_18_1302,59.6219779077,verb_norming_oral_input,001,908,
INCH,röra sig långsamt framåt,dra sig snabbt tillbaka,hasa sig bakåt,1,röra sig långsamt framåt,dra sig snabbt tillbaka,hasa sig bakåt,Arm,arm,0,12,12,33,0,0,0,0,,,,,,,,,,,,,2,7.723,,,,,2018_Jun_18_1302,59.6219779077,verb_norming_oral_input,001,908,
INCH,röra sig långsamt framåt,dra sig snabbt tillbaka,hasa sig bakåt,1,röra sig långsamt framåt,dra sig snabbt tillbaka,hasa sig bakåt,Leg,leg,0,12,12,33,0,1,1,1,,,,,,,,,,,,,4,3.015,,,,,2018_Jun_18_1302,59.6219779077,verb_norming_oral_input,001,908,
INCH,röra sig långsamt framåt,dra sig snabbt tillbaka,hasa sig bakåt,1,röra sig långsamt framåt,dra sig snabbt tillbaka,hasa sig bakåt,,,0,12,12,33,,,,,,,,,,,,,,,,,,,return,14.1886104292,,,2018_Jun_18_1302,59.6219779077,verb_norming_oral_input,001,908,
BIND,binda,linda,vinda,3,vinda,linda,binda,Arm,arm,0,13,13,1,0,0,0,0,,,,,,,,,,,,,7,4.401,,,,,2018_Jun_18_1302,59.6219779077,verb_norming_oral_input,001,908,
BIND,binda,linda,vinda,3,vinda,linda,binda,Leg,leg,0,13,13,1,0,1,1,1,,,,,,,,,,,,,1,1.673,,,,,2018_Jun_18_1302,59.6219779077,verb_norming_oral_input,001,908,
BIND,binda,linda,vinda,3,vinda,linda,binda,,,0,13,13,1,,,,,,,,,,,,,,,,,,,return,2.61670513053,,,2018_Jun_18_1302,59.6219779077,verb_norming_oral_input,001,908,
TUG,rycka,pressa,slå,1,rycka,slå,pressa,Arm,arm,0,14,14,102,0,0,0,0,,,,,,,,,,,,,7,5.574,,,,,2018_Jun_18_1302,59.6219779077,verb_norming_oral_input,001,908,
TUG,rycka,pressa,slå,1,rycka,slå,pressa,Leg,leg,0,14,14,102,0,1,1,1,,,,,,,,,,,,,1,1.169,,,,,2018_Jun_18_1302,59.6219779077,verb_norming_oral_input,001,908,
TUG,rycka,pressa,slå,1,rycka,slå,pressa,,,0,14,14,102,,,,,,,,,,,,,,,,,,,return,3.55596383488,,,2018_Jun_18_1302,59.6219779077,verb_norming_oral_input,001,908,
STROLL,strosa,trava,marschera,3,trava,marschera,strosa,Arm,arm,0,15,15,89,0,0,0,0,,,,,,,,,,,,,1,6.616,,,,,2018_Jun_18_1302,59.6219779077,verb_norming_oral_input,001,908,
STROLL,strosa,trava,marschera,3,trava,marschera,strosa,Leg,leg,0,15,15,89,0,1,1,1,,,,,,,,,,,,,7,0.983,,,,,2018_Jun_18_1302,59.6219779077,verb_norming_oral_input,001,908,
STROLL,strosa,trava,marschera,3,trava,marschera,strosa,,,0,15,15,89,,,,,,,,,,,,,,,,,,,return,18.3981778362,,,2018_Jun_18_1302,59.6219779077,verb_norming_oral_input,001,908,
PLUCK,plocka,rensa,picka,3,picka,rensa,plocka,Arm,arm,0,16,16,50,0,0,0,0,,,,,,,,,,,,,6,8.193,,,,,2018_Jun_18_1302,59.6219779077,verb_norming_oral_input,001,908,
PLUCK,plocka,rensa,picka,3,picka,rensa,plocka,Leg,leg,0,16,16,50,0,1,1,1,,,,,,,,,,,,,1,3.568,,,,,2018_Jun_18_1302,59.6219779077,verb_norming_oral_input,001,908,
PLUCK,plocka,rensa,picka,3,picka,rensa,plocka,,,0,16,16,50,,,,,,,,,,,,,,,,,,,return,6.05478226134,,,2018_Jun_18_1302,59.6219779077,verb_norming_oral_input,001,908,
DIG,gräva,dränera,dika,3,dränera,dika,gräva,Arm,arm,0,17,17,19,0,0,0,0,,,,,,,,,,,,,7,3.346,,,,,2018_Jun_18_1302,59.6219779077,verb_norming_oral_input,001,908,
DIG,gräva,dränera,dika,3,dränera,dika,gräva,Leg,leg,0,17,17,19,0,1,1,1,,,,,,,,,,,,,1,2.343,,,,,2018_Jun_18_1302,59.6219779077,verb_norming_oral_input,001,908,
DIG,gräva,dränera,dika,3,dränera,dika,gräva,,,0,17,17,19,,,,,,,,,,,,,,,,,,,return,4.17644344192,,,2018_Jun_18_1302,59.6219779077,verb_norming_oral_input,001,908,
LIFT,lyfta,pressa,öka,1,lyfta,pressa,öka,Arm,arm,0,18,18,40,0,0,0,0,,,,,,,,,,,,,7,4.001,,,,,2018_Jun_18_1302,59.6219779077,verb_norming_oral_input,001,908,
LIFT,lyfta,pressa,öka,1,lyfta,pressa,öka,Leg,leg,0,18,18,40,0,1,1,1,,,,,,,,,,,,,1,0.717,,,,,2018_Jun_18_1302,59.6219779077,verb_norming_oral_input,001,908,
LIFT,lyfta,pressa,öka,1,lyfta,pressa,öka,,,0,18,18,40,,,,,,,,,,,,,,,,,,,return,1.12406304834,,,2018_Jun_18_1302,59.6219779077,verb_norming_oral_input,001,908,
SLIDE,glida,ramla,hasa,2,ramla,glida,hasa,Arm,arm,0,19,19,74,0,0,0,0,,,,,,,,,,,,,1,5.258,,,,,2018_Jun_18_1302,59.6219779077,verb_norming_oral_input,001,908,
SLIDE,glida,ramla,hasa,2,ramla,glida,hasa,Leg,leg,0,19,19,74,0,1,1,1,,,,,,,,,,,,,7,3.484,,,,,2018_Jun_18_1302,59.6219779077,verb_norming_oral_input,001,908,
SLIDE,glida,ramla,hasa,2,ramla,glida,hasa,,,0,19,19,74,,,,,,,,,,,,,,,,,,,return,1.50983683183,,,2018_Jun_18_1302,59.6219779077,verb_norming_oral_input,001,908,
RUSH,rusa,springa,löpa,2,springa,rusa,löpa,Arm,arm,0,20,20,62,0,0,0,0,,,,,,,,,,,,,2,5.074,,,,,2018_Jun_18_1302,59.6219779077,verb_norming_oral_input,001,908,
RUSH,rusa,springa,löpa,2,springa,rusa,löpa,Leg,leg,0,20,20,62,0,1,1,1,,,,,,,,,,,,,4,6.469,,,,,2018_Jun_18_1302,59.6219779077,verb_norming_oral_input,001,908,
RUSH,rusa,springa,löpa,2,springa,rusa,löpa,,,0,20,20,62,,,,,,,,,,,,,,,,,,,return,13.7527518356,,,2018_Jun_18_1302,59.6219779077,verb_norming_oral_input,001,908,
DUNK,dunka,dumpa,dunsa,2,dumpa,dunka,dunsa,Arm,arm,0,21,21,20,0,0,0,0,,,,,,,,,,,,,7,7.238,,,,,2018_Jun_18_1302,59.6219779077,verb_norming_oral_input,001,908,
DUNK,dunka,dumpa,dunsa,2,dumpa,dunka,dunsa,Leg,leg,0,21,21,20,0,1,1,1,,,,,,,,,,,,,1,0.733,,,,,2018_Jun_18_1302,59.6219779077,verb_norming_oral_input,001,908,
DUNK,dunka,dumpa,dunsa,2,dumpa,dunka,dunsa,,,0,21,21,20,,,,,,,,,,,,,,,,,,,return,4.2267439816,,,2018_Jun_18_1302,59.6219779077,verb_norming_oral_input,001,908,
POKE,peta,trycka,knuffa,1,peta,trycka,knuffa,Arm,arm,0,22,22,51,0,0,0,0,,,,,,,,,,,,,6,7.926,,,,,2018_Jun_18_1302,59.6219779077,verb_norming_oral_input,001,908,
POKE,peta,trycka,knuffa,1,peta,trycka,knuffa,Leg,leg,0,22,22,51,0,1,1,1,,,,,,,,,,,,,1,2.88,,,,,2018_Jun_18_1302,59.6219779077,verb_norming_oral_input,001,908,
POKE,peta,trycka,knuffa,1,peta,trycka,knuffa,,,0,22,22,51,,,,,,,,,,,,,,,,,,,return,1.9962172262,,,2018_Jun_18_1302,59.6219779077,verb_norming_oral_input,001,908,
CRAWL,kravla,huka,klättra,1,kravla,huka,klättra,Arm,arm,0,23,23,14,0,0,0,0,,,,,,,,,,,,,5,8.579,,,,,2018_Jun_18_1302,59.6219779077,verb_norming_oral_input,001,908,
CRAWL,kravla,huka,klättra,1,kravla,huka,klättra,Leg,leg,0,23,23,14,0,1,1,1,,,,,,,,,,,,,3,4.036,,,,,2018_Jun_18_1302,59.6219779077,verb_norming_oral_input,001,908,
CRAWL,kravla,huka,klättra,1,kravla,huka,klättra,,,0,23,23,14,,,,,,,,,,,,,,,,,,,return,7.56405092639,,,2018_Jun_18_1302,59.6219779077,verb_norming_oral_input,001,908,
SKATE,åka skridskor,åka skidor,åka kälke,1,åka skridskor,åka skidor,åka kälke,Arm,arm,0,24,24,70,0,0,0,0,,,,,,,,,,,,,1,5.929,,,,,2018_Jun_18_1302,59.6219779077,verb_norming_oral_input,001,908,
SKATE,åka skridskor,åka skidor,åka kälke,1,åka skridskor,åka skidor,åka kälke,Leg,leg,0,24,24,70,0,1,1,1,,,,,,,,,,,,,7,1.337,,,,,2018_Jun_18_1302,59.6219779077,verb_norming_oral_input,001,908,
SKATE,åka skridskor,åka skidor,åka kälke,1,åka skridskor,åka skidor,åka kälke,,,0,24,24,70,,,,,,,,,,,,,,,,,,,return,4.54536740596,,,2018_Jun_18_1302,59.6219779077,verb_norming_oral_input,001,908,
CLIMB,klättra,kliva,krypa,3,krypa,kliva,klättra,Arm,arm,0,25,25,12,0,0,0,0,,,,,,,,,,,,,7,3.209,,,,,2018_Jun_18_1302,59.6219779077,verb_norming_oral_input,001,908,
CLIMB,klättra,kliva,krypa,3,krypa,kliva,klättra,Leg,leg,0,25,25,12,0,1,1,1,,,,,,,,,,,,,6,1.823,,,,,2018_Jun_18_1302,59.6219779077,verb_norming_oral_input,001,908,
CLIMB,klättra,kliva,krypa,3,krypa,kliva,klättra,,,0,25,25,12,,,,,,,,,,,,,,,,,,,return,2.14694341683,,,2018_Jun_18_1302,59.6219779077,verb_norming_oral_input,001,908,
SPRINT,spurta,springa,löpa,1,spurta,löpa,springa,Arm,arm,0,26,26,79,0,0,0,0,,,,,,,,,,,,,2,4.654,,,,,2018_Jun_18_1302,59.6219779077,verb_norming_oral_input,001,908,
SPRINT,spurta,springa,löpa,1,spurta,löpa,springa,Leg,leg,0,26,26,79,0,1,1,1,,,,,,,,,,,,,7,3.114,,,,,2018_Jun_18_1302,59.6219779077,verb_norming_oral_input,001,908,
SPRINT,spurta,springa,löpa,1,spurta,löpa,springa,,,0,26,26,79,,,,,,,,,,,,,,,,,,,return,49.5083682116,,,2018_Jun_18_1302,59.6219779077,verb_norming_oral_input,001,908,
PAT,klappa,slå,borsta,2,slå,klappa,borsta,Arm,arm,0,27,27,46,0,0,0,0,,,,,,,,,,,,,7,3.163,,,,,2018_Jun_18_1302,59.6219779077,verb_norming_oral_input,001,908,
PAT,klappa,slå,borsta,2,slå,klappa,borsta,Leg,leg,0,27,27,46,0,1,1,1,,,,,,,,,,,,,1,1.573,,,,,2018_Jun_18_1302,59.6219779077,verb_norming_oral_input,001,908,
PAT,klappa,slå,borsta,2,slå,klappa,borsta,,,0,27,27,46,,,,,,,,,,,,,,,,,,,return,1.02343391624,,,2018_Jun_18_1302,59.6219779077,verb_norming_oral_input,001,908,
CATCH,fånga,krama,omfamna,1,fånga,krama,omfamna,Arm,arm,0,28,28,6,0,0,0,0,,,,,,,,,,,,,1,3.196,,,,,2018_Jun_18_1302,59.6219779077,verb_norming_oral_input,001,908,
CATCH,fånga,krama,omfamna,1,fånga,krama,omfamna,Leg,leg,0,28,28,6,0,1,1,1,,,,,,,,,,,,,1,6.083,,,,,2018_Jun_18_1302,59.6219779077,verb_norming_oral_input,001,908,
CATCH,fånga,krama,omfamna,1,fånga,krama,omfamna,,,0,28,28,6,,,,,,,,,,,,,,,,,,,return,1.29182001836,,,2018_Jun_18_1302,59.6219779077,verb_norming_oral_input,001,908,
TRIP,snubbla,stampa,stappla,1,snubbla,stampa,stappla,Arm,arm,0,29,29,99,0,0,0,0,,,,,,,,,,,,,1,4.32,,,,,2018_Jun_18_1302,59.6219779077,verb_norming_oral_input,001,908,
TRIP,snubbla,stampa,stappla,1,snubbla,stampa,stappla,Leg,leg,0,29,29,99,0,1,1,1,,,,,,,,,,,,,7,4.138,,,,,2018_Jun_18_1302,59.6219779077,verb_norming_oral_input,001,908,
TRIP,snubbla,stampa,stappla,1,snubbla,stampa,stappla,,,0,29,29,99,,,,,,,,,,,,,,,,,,,return,0.838963439379,,,2018_Jun_18_1302,59.6219779077,verb_norming_oral_input,001,908,
FLIT,rusa,hasa,svassa,3,svassa,hasa,rusa,Arm,arm,0,30,30,23,0,0,0,0,,,,,,,,,,,,,1,4.622,,,,,2018_Jun_18_1302,59.6219779077,verb_norming_oral_input,001,908,
FLIT,rusa,hasa,svassa,3,svassa,hasa,rusa,Leg,leg,0,30,30,23,0,1,1,1,,,,,,,,,,,,,7,1.236,,,,,2018_Jun_18_1302,59.6219779077,verb_norming_oral_input,001,908,
FLIT,rusa,hasa,svassa,3,svassa,hasa,rusa,,,0,30,30,23,,,,,,,,,,,,,,,,,,,return,32.9050679449,,,2018_Jun_18_1302,59.6219779077,verb_norming_oral_input,001,908,
CREEP,krypa,knäböja,klättra,1,krypa,knäböja,klättra,Arm,arm,0,31,31,15,0,0,0,0,,,,,,,,,,,,,1,4.789,,,,,2018_Jun_18_1302,59.6219779077,verb_norming_oral_input,001,908,
CREEP,krypa,knäböja,klättra,1,krypa,knäböja,klättra,Leg,leg,0,31,31,15,0,1,1,1,,,,,,,,,,,,,3,3.047,,,,,2018_Jun_18_1302,59.6219779077,verb_norming_oral_input,001,908,
CREEP,krypa,knäböja,klättra,1,krypa,knäböja,klättra,,,0,31,31,15,,,,,,,,,,,,,,,,,,,return,10.029343957,,,2018_Jun_18_1302,59.6219779077,verb_norming_oral_input,001,908,
SCRATCH,repa,riva,klösa,3,klösa,riva,repa,Arm,arm,0,32,32,65,0,0,0,0,,,,,,,,,,,,,7,2.44,,,,,2018_Jun_18_1302,59.6219779077,verb_norming_oral_input,001,908,
SCRATCH,repa,riva,klösa,3,klösa,riva,repa,Leg,leg,0,32,32,65,0,1,1,1,,,,,,,,,,,,,1,2.057,,,,,2018_Jun_18_1302,59.6219779077,verb_norming_oral_input,001,908,
SCRATCH,repa,riva,klösa,3,klösa,riva,repa,,,0,32,32,65,,,,,,,,,,,,,,,,,,,return,3.06951271599,,,2018_Jun_18_1302,59.6219779077,verb_norming_oral_input,001,908,
SLIP,halka,snava,ramla,2,ramla,halka,snava,Arm,arm,0,33,33,75,0,0,0,0,,,,,,,,,,,,,3,5.996,,,,,2018_Jun_18_1302,59.6219779077,verb_norming_oral_input,001,908,
SLIP,halka,snava,ramla,2,ramla,halka,snava,Leg,leg,0,33,33,75,0,1,1,1,,,,,,,,,,,,,5,6.168,,,,,2018_Jun_18_1302,59.6219779077,verb_norming_oral_input,001,908,
SLIP,halka,snava,ramla,2,ramla,halka,snava,,,0,33,33,75,,,,,,,,,,,,,,,,,,,return,1.25825471651,,,2018_Jun_18_1302,59.6219779077,verb_norming_oral_input,001,908,
SWAY,vingla,tassa,ramla,2,tassa,vingla,ramla,Arm,arm,0,34,34,92,0,0,0,0,,,,,,,,,,,,,4,4.504,,,,,2018_Jun_18_1302,59.6219779077,verb_norming_oral_input,001,908,
SWAY,vingla,tassa,ramla,2,tassa,vingla,ramla,Leg,leg,0,34,34,92,0,1,1,1,,,,,,,,,,,,,4,2.427,,,,,2018_Jun_18_1302,59.6219779077,verb_norming_oral_input,001,908,
SWAY,vingla,tassa,ramla,2,tassa,vingla,ramla,,,0,34,34,92,,,,,,,,,,,,,,,,,,,return,6.32299570082,,,2018_Jun_18_1302,59.6219779077,verb_norming_oral_input,001,908,
THROW,kasta,greppa,träffa,2,greppa,kasta,träffa,Arm,arm,0,35,35,94,0,0,0,0,,,,,,,,,,,,,7,3.178,,,,,2018_Jun_18_1302,59.6219779077,verb_norming_oral_input,001,908,
THROW,kasta,greppa,träffa,2,greppa,kasta,träffa,Leg,leg,0,35,35,94,0,1,1,1,,,,,,,,,,,,,1,0.901,,,,,2018_Jun_18_1302,59.6219779077,verb_norming_oral_input,001,908,
THROW,kasta,greppa,träffa,2,greppa,kasta,träffa,,,0,35,35,94,,,,,,,,,,,,,,,,,,,return,0.620824142112,,,2018_Jun_18_1302,59.6219779077,verb_norming_oral_input,001,908,
DANCE,dansa,snurra,svänga,1,dansa,svänga,snurra,Arm,arm,0,36,36,17,0,0,0,0,,,,,,,,,,,,,7,4.537,,,,,2018_Jun_18_1302,59.6219779077,verb_norming_oral_input,001,908,
DANCE,dansa,snurra,svänga,1,dansa,svänga,snurra,Leg,leg,0,36,36,17,0,1,1,1,,,,,,,,,,,,,7,0.985,,,,,2018_Jun_18_1302,59.6219779077,verb_norming_oral_input,001,908,
DANCE,dansa,snurra,svänga,1,dansa,svänga,snurra,,,0,36,36,17,,,,,,,,,,,,,,,,,,,return,0.939580718205,,,2018_Jun_18_1302,59.6219779077,verb_norming_oral_input,001,908,
WADE,vada,pulsa,plöja,1,vada,pulsa,plöja,Arm,arm,0,37,37,104,0,0,0,0,,,,,,,,,,,,,7,6.45,,,,,2018_Jun_18_1302,59.6219779077,verb_norming_oral_input,001,908,
WADE,vada,pulsa,plöja,1,vada,pulsa,plöja,Leg,leg,0,37,37,104,0,1,1,1,,,,,,,,,,,,,4,1.455,,,,,2018_Jun_18_1302,59.6219779077,verb_norming_oral_input,001,908,
WADE,vada,pulsa,plöja,1,vada,pulsa,plöja,,,0,37,37,104,,,,,,,,,,,,,,,,,,,return,1.97930695507,,,2018_Jun_18_1302,59.6219779077,verb_norming_oral_input,001,908,
NIP,nypa,peta,nudda,1,nypa,nudda,peta,Arm,arm,0,38,38,44,0,0,0,0,,,,,,,,,,,,,7,6.4,,,,,2018_Jun_18_1302,59.6219779077,verb_norming_oral_input,001,908,
NIP,nypa,peta,nudda,1,nypa,nudda,peta,Leg,leg,0,38,38,44,0,1,1,1,,,,,,,,,,,,,1,2.31,,,,,2018_Jun_18_1302,59.6219779077,verb_norming_oral_input,001,908,
NIP,nypa,peta,nudda,1,nypa,nudda,peta,,,0,38,38,44,,,,,,,,,,,,,,,,,,,return,5.06529453205,,,2018_Jun_18_1302,59.6219779077,verb_norming_oral_input,001,908,
FILE,fila,putsa,riva,1,fila,riva,putsa,Arm,arm,0,39,39,21,0,0,0,0,,,,,,,,,,,,,1,12.569,,,,,2018_Jun_18_1302,59.6219779077,verb_norming_oral_input,001,908,
FILE,fila,putsa,riva,1,fila,riva,putsa,Leg,leg,0,39,39,21,0,1,1,1,,,,,,,,,,,,,7,1.622,,,,,2018_Jun_18_1302,59.6219779077,verb_norming_oral_input,001,908,
FILE,fila,putsa,riva,1,fila,riva,putsa,,,0,39,39,21,,,,,,,,,,,,,,,,,,,return,12.8637936709,,,2018_Jun_18_1302,59.6219779077,verb_norming_oral_input,001,908,
WOBBLE,vingla,ramla,glida,2,ramla,vingla,glida,Arm,arm,0,40,40,110,0,0,0,0,,,,,,,,,,,,,2,5.425,,,,,2018_Jun_18_1302,59.6219779077,verb_norming_oral_input,001,908,
WOBBLE,vingla,ramla,glida,2,ramla,vingla,glida,Leg,leg,0,40,40,110,0,1,1,1,,,,,,,,,,,,,6,2.225,,,,,2018_Jun_18_1302,59.6219779077,verb_norming_oral_input,001,908,
WOBBLE,vingla,ramla,glida,2,ramla,vingla,glida,,,0,40,40,110,,,,,,,,,,,,,,,,,,,return,29.2824436861,,,2018_Jun_18_1302,59.6219779077,verb_norming_oral_input,001,908,
GRIP,gripa om,hålla om,kasta om,3,hålla om,kasta om,gripa om,Arm,arm,0,41,41,29,0,0,0,0,,,,,,,,,,,,,7,7.789,,,,,2018_Jun_18_1302,59.6219779077,verb_norming_oral_input,001,908,
GRIP,gripa om,hålla om,kasta om,3,hålla om,kasta om,gripa om,Leg,leg,0,41,41,29,0,1,1,1,,,,,,,,,,,,,1,1.761,,,,,2018_Jun_18_1302,59.6219779077,verb_norming_oral_input,001,908,
GRIP,gripa om,hålla om,kasta om,3,hålla om,kasta om,gripa om,,,0,41,41,29,,,,,,,,,,,,,,,,,,,return,1.59353356668,,,2018_Jun_18_1302,59.6219779077,verb_norming_oral_input,001,908,
STIR,röra,sleva,vispa,1,röra,sleva,vispa,Arm,arm,0,42,42,85,0,0,0,0,,,,,,,,,,,,,7,3.599,,,,,2018_Jun_18_1302,59.6219779077,verb_norming_oral_input,001,908,
STIR,röra,sleva,vispa,1,röra,sleva,vispa,Leg,leg,0,42,42,85,0,1,1,1,,,,,,,,,,,,,1,0.901,,,,,2018_Jun_18_1302,59.6219779077,verb_norming_oral_input,001,908,
STIR,röra,sleva,vispa,1,röra,sleva,vispa,,,0,42,42,85,,,,,,,,,,,,,,,,,,,return,4.52835440647,,,2018_Jun_18_1302,59.6219779077,verb_norming_oral_input,001,908,
STAGGER,ragla,lunka,halka,1,ragla,lunka,halka,Arm,arm,0,43,43,82,0,0,0,0,,,,,,,,,,,,,2,3.997,,,,,2018_Jun_18_1302,59.6219779077,verb_norming_oral_input,001,908,
STAGGER,ragla,lunka,halka,1,ragla,lunka,halka,Leg,leg,0,43,43,82,0,1,1,1,,,,,,,,,,,,,7,1.469,,,,,2018_Jun_18_1302,59.6219779077,verb_norming_oral_input,001,908,
STAGGER,ragla,lunka,halka,1,ragla,lunka,halka,,,0,43,43,82,,,,,,,,,,,,,,,,,,,return,35.5716796914,,,2018_Jun_18_1302,59.6219779077,verb_norming_oral_input,001,908,
MOUNT,gå uppför,ströva runt,kliva över,3,ströva runt,kliva över,gå uppför,Arm,arm,0,44,44,43,0,0,0,0,,,,,,,,,,,,,4,3.631,,,,,2018_Jun_18_1302,59.6219779077,verb_norming_oral_input,001,908,
MOUNT,gå uppför,ströva runt,kliva över,3,ströva runt,kliva över,gå uppför,Leg,leg,0,44,44,43,0,1,1,1,,,,,,,,,,,,,5,4.524,,,,,2018_Jun_18_1302,59.6219779077,verb_norming_oral_input,001,908,
MOUNT,gå uppför,ströva runt,kliva över,3,ströva runt,kliva över,gå uppför,,,0,44,44,43,,,,,,,,,,,,,,,,,,,return,1.44275996297,,,2018_Jun_18_1302,59.6219779077,verb_norming_oral_input,001,908,
CARVE,tälja,hacka,riva,2,riva,tälja,hacka,Arm,arm,0,45,45,5,0,0,0,0,,,,,,,,,,,,,7,2.759,,,,,2018_Jun_18_1302,59.6219779077,verb_norming_oral_input,001,908,
CARVE,tälja,hacka,riva,2,riva,tälja,hacka,Leg,leg,0,45,45,5,0,1,1,1,,,,,,,,,,,,,1,0.834,,,,,2018_Jun_18_1302,59.6219779077,verb_norming_oral_input,001,908,
CARVE,tälja,hacka,riva,2,riva,tälja,hacka,,,0,45,45,5,,,,,,,,,,,,,,,,,,,return,6.79259225895,,,2018_Jun_18_1302,59.6219779077,verb_norming_oral_input,001,908,
FOLD,vika ihop,knyta ihop,bunta ihop,3,knyta ihop,bunta ihop,vika ihop,Arm,arm,0,46,46,24,0,0,0,0,,,,,,,,,,,,,7,2.726,,,,,2018_Jun_18_1302,59.6219779077,verb_norming_oral_input,001,908,
FOLD,vika ihop,knyta ihop,bunta ihop,3,knyta ihop,bunta ihop,vika ihop,Leg,leg,0,46,46,24,0,1,1,1,,,,,,,,,,,,,1,0.969,,,,,2018_Jun_18_1302,59.6219779077,verb_norming_oral_input,001,908,
FOLD,vika ihop,knyta ihop,bunta ihop,3,knyta ihop,bunta ihop,vika ihop,,,0,46,46,24,,,,,,,,,,,,,,,,,,,return,10.3144826818,,,2018_Jun_18_1302,59.6219779077,verb_norming_oral_input,001,908,
HIKE,vandra,flanera,lunka,2,lunka,vandra,flanera,Arm,arm,0,47,47,31,0,0,0,0,,,,,,,,,,,,,1,3.984,,,,,2018_Jun_18_1302,59.6219779077,verb_norming_oral_input,001,908,
HIKE,vandra,flanera,lunka,2,lunka,vandra,flanera,Leg,leg,0,47,47,31,0,1,1,1,,,,,,,,,,,,,7,2.075,,,,,2018_Jun_18_1302,59.6219779077,verb_norming_oral_input,001,908,
HIKE,vandra,flanera,lunka,2,lunka,vandra,flanera,,,0,47,47,31,,,,,,,,,,,,,,,,,,,return,18.1466482704,,,2018_Jun_18_1302,59.6219779077,verb_norming_oral_input,001,908,
SNATCH,rycka till sig,knuffa ifrån sig,plocka åt sig,3,knuffa ifrån sig,plocka åt sig,rycka till sig,Arm,arm,0,48,48,77,0,0,0,0,,,,,,,,,,,,,7,3.262,,,,,2018_Jun_18_1302,59.6219779077,verb_norming_oral_input,001,908,
SNATCH,rycka till sig,knuffa ifrån sig,plocka åt sig,3,knuffa ifrån sig,plocka åt sig,rycka till sig,Leg,leg,0,48,48,77,0,1,1,1,,,,,,,,,,,,,1,1.066,,,,,2018_Jun_18_1302,59.6219779077,verb_norming_oral_input,001,908,
SNATCH,rycka till sig,knuffa ifrån sig,plocka åt sig,3,knuffa ifrån sig,plocka åt sig,rycka till sig,,,0,48,48,77,,,,,,,,,,,,,,,,,,,return,6.80952307575,,,2018_Jun_18_1302,59.6219779077,verb_norming_oral_input,001,908,
TRUDGE,släpa sig fram,kasta sig fram,ta sig fram,2,kasta sig fram,släpa sig fram,ta sig fram,Arm,arm,0,49,49,101,0,0,0,0,,,,,,,,,,,,,1,8.04,,,,,2018_Jun_18_1302,59.6219779077,verb_norming_oral_input,001,908,
TRUDGE,släpa sig fram,kasta sig fram,ta sig fram,2,kasta sig fram,släpa sig fram,ta sig fram,Leg,leg,0,49,49,101,0,1,1,1,,,,,,,,,,,,,7,1.402,,,,,2018_Jun_18_1302,59.6219779077,verb_norming_oral_input,001,908,
TRUDGE,släpa sig fram,kasta sig fram,ta sig fram,2,kasta sig fram,släpa sig fram,ta sig fram,,,0,49,49,101,,,,,,,,,,,,,,,,,,,return,3.57252996606,,,2018_Jun_18_1302,59.6219779077,verb_norming_oral_input,001,908,
PULL,dra,slänga,släpa,1,dra,släpa,slänga,Arm,arm,0,50,50,54,0,0,0,0,,,,,,,,,,,,,7,4.37,,,,,2018_Jun_18_1302,59.6219779077,verb_norming_oral_input,001,908,
PULL,dra,slänga,släpa,1,dra,släpa,slänga,Leg,leg,0,50,50,54,0,1,1,1,,,,,,,,,,,,,1,2.243,,,,,2018_Jun_18_1302,59.6219779077,verb_norming_oral_input,001,908,
PULL,dra,slänga,släpa,1,dra,släpa,slänga,,,0,50,50,54,,,,,,,,,,,,,,,,,,,return,24.5028971369,,,2018_Jun_18_1302,59.6219779077,verb_norming_oral_input,001,908,
STUMBLE,snubbla,glida,svaja,2,svaja,snubbla,glida,Arm,arm,0,51,51,91,0,0,0,0,,,,,,,,,,,,,1,2.02,,,,,2018_Jun_18_1302,59.6219779077,verb_norming_oral_input,001,908,
STUMBLE,snubbla,glida,svaja,2,svaja,snubbla,glida,Leg,leg,0,51,51,91,0,1,1,1,,,,,,,,,,,,,7,2.09,,,,,2018_Jun_18_1302,59.6219779077,verb_norming_oral_input,001,908,
STUMBLE,snubbla,glida,svaja,2,svaja,snubbla,glida,,,0,51,51,91,,,,,,,,,,,,,,,,,,,return,6.44053786982,,,2018_Jun_18_1302,59.6219779077,verb_norming_oral_input,001,908,
SLAP,smälla till,knäppa fast,klämma åt,1,smälla till,knäppa fast,klämma åt,Arm,arm,0,52,52,73,0,0,0,0,,,,,,,,,,,,,7,4.118,,,,,2018_Jun_18_1302,59.6219779077,verb_norming_oral_input,001,908,
SLAP,smälla till,knäppa fast,klämma åt,1,smälla till,knäppa fast,klämma åt,Leg,leg,0,52,52,73,0,1,1,1,,,,,,,,,,,,,1,1.521,,,,,2018_Jun_18_1302,59.6219779077,verb_norming_oral_input,001,908,
SLAP,smälla till,knäppa fast,klämma åt,1,smälla till,knäppa fast,klämma åt,,,0,52,52,73,,,,,,,,,,,,,,,,,,,return,11.6058479296,,,2018_Jun_18_1302,59.6219779077,verb_norming_oral_input,001,908,
SWITCH,slå på/av,knäppa,nypa,2,nypa,slå på/av,knäppa,Arm,arm,0,53,53,93,0,0,0,0,,,,,,,,,,,,,6,6.364,,,,,2018_Jun_18_1302,59.6219779077,verb_norming_oral_input,001,908,
SWITCH,slå på/av,knäppa,nypa,2,nypa,slå på/av,knäppa,Leg,leg,0,53,53,93,0,1,1,1,,,,,,,,,,,,,4,3.684,,,,,2018_Jun_18_1302,59.6219779077,verb_norming_oral_input,001,908,
SWITCH,slå på/av,knäppa,nypa,2,nypa,slå på/av,knäppa,,,0,53,53,93,,,,,,,,,,,,,,,,,,,return,2.75078182198,,,2018_Jun_18_1302,59.6219779077,verb_norming_oral_input,001,908,
PINCH,nypa,plocka,pensla,3,pensla,plocka,nypa,Arm,arm,0,54,54,48,0,0,0,0,,,,,,,,,,,,,7,3.631,,,,,2018_Jun_18_1302,59.6219779077,verb_norming_oral_input,001,908,
PINCH,nypa,plocka,pensla,3,pensla,plocka,nypa,Leg,leg,0,54,54,48,0,1,1,1,,,,,,,,,,,,,1,1.102,,,,,2018_Jun_18_1302,59.6219779077,verb_norming_oral_input,001,908,
PINCH,nypa,plocka,pensla,3,pensla,plocka,nypa,,,0,54,54,48,,,,,,,,,,,,,,,,,,,return,1.15747741853,,,2018_Jun_18_1302,59.6219779077,verb_norming_oral_input,001,908,
DELVE,gräva,plöja,rensa,2,plöja,gräva,rensa,Arm,arm,0,55,55,18,0,0,0,0,,,,,,,,,,,,,2,3.9,,,,,2018_Jun_18_1302,59.6219779077,verb_norming_oral_input,001,908,
DELVE,gräva,plöja,rensa,2,plöja,gräva,rensa,Leg,leg,0,55,55,18,0,1,1,1,,,,,,,,,,,,,3,4.221,,,,,2018_Jun_18_1302,59.6219779077,verb_norming_oral_input,001,908,
DELVE,gräva,plöja,rensa,2,plöja,gräva,rensa,,,0,55,55,18,,,,,,,,,,,,,,,,,,,return,9.79459467148,,,2018_Jun_18_1302,59.6219779077,verb_norming_oral_input,001,908,
SNEAK,smyga,hasa,glida,2,glida,smyga,hasa,Arm,arm,0,56,56,78,0,0,0,0,,,,,,,,,,,,,2,5.074,,,,,2018_Jun_18_1302,59.6219779077,verb_norming_oral_input,001,908,
SNEAK,smyga,hasa,glida,2,glida,smyga,hasa,Leg,leg,0,56,56,78,0,1,1,1,,,,,,,,,,,,,4,2.612,,,,,2018_Jun_18_1302,59.6219779077,verb_norming_oral_input,001,908,
SNEAK,smyga,hasa,glida,2,glida,smyga,hasa,,,0,56,56,78,,,,,,,,,,,,,,,,,,,return,2.13032829214,,,2018_Jun_18_1302,59.6219779077,verb_norming_oral_input,001,908,
GLIDE,glida,hasa,snava,3,hasa,snava,glida,Arm,arm,0,57,57,25,0,0,0,0,,,,,,,,,,,,,1,2.842,,,,,2018_Jun_18_1302,59.6219779077,verb_norming_oral_input,001,908,
GLIDE,glida,hasa,snava,3,hasa,snava,glida,Leg,leg,0,57,57,25,0,1,1,1,,,,,,,,,,,,,7,0.934,,,,,2018_Jun_18_1302,59.6219779077,verb_norming_oral_input,001,908,
GLIDE,glida,hasa,snava,3,hasa,snava,glida,,,0,57,57,25,,,,,,,,,,,,,,,,,,,return,0.93949379422,,,2018_Jun_18_1302,59.6219779077,verb_norming_oral_input,001,908,
GRATE,riva,hugga,rispa,1,riva,rispa,hugga,Arm,arm,0,58,58,28,0,0,0,0,,,,,,,,,,,,,7,3.95,,,,,2018_Jun_18_1302,59.6219779077,verb_norming_oral_input,001,908,
GRATE,riva,hugga,rispa,1,riva,rispa,hugga,Leg,leg,0,58,58,28,0,1,1,1,,,,,,,,,,,,,1,2.593,,,,,2018_Jun_18_1302,59.6219779077,verb_norming_oral_input,001,908,
GRATE,riva,hugga,rispa,1,riva,rispa,hugga,,,0,58,58,28,,,,,,,,,,,,,,,,,,,return,8.43612094603,,,2018_Jun_18_1302,59.6219779077,verb_norming_oral_input,001,908,
GRAB,gripa tag i,fästa ihop,smälla till,1,gripa tag i,smälla till,fästa ihop,Arm,arm,0,59,59,26,0,0,0,0,,,,,,,,,,,,,7,3.027,,,,,2018_Jun_18_1302,59.6219779077,verb_norming_oral_input,001,908,
GRAB,gripa tag i,fästa ihop,smälla till,1,gripa tag i,smälla till,fästa ihop,Leg,leg,0,59,59,26,0,1,1,1,,,,,,,,,,,,,1,2.41,,,,,2018_Jun_18_1302,59.6219779077,verb_norming_oral_input,001,908,
GRAB,gripa tag i,fästa ihop,smälla till,1,gripa tag i,smälla till,fästa ihop,,,0,59,59,26,,,,,,,,,,,,,,,,,,,return,11.0524594154,,,2018_Jun_18_1302,59.6219779077,verb_norming_oral_input,001,908,
ROAM,ströva omkring,ta sig fram,luffa runt,3,ta sig fram,luffa runt,ströva omkring,Arm,arm,0,60,60,58,0,0,0,0,,,,,,,,,,,,,1,2.441,,,,,2018_Jun_18_1302,59.6219779077,verb_norming_oral_input,001,908,
ROAM,ströva omkring,ta sig fram,luffa runt,3,ta sig fram,luffa runt,ströva omkring,Leg,leg,0,60,60,58,0,1,1,1,,,,,,,,,,,,,5,3.719,,,,,2018_Jun_18_1302,59.6219779077,verb_norming_oral_input,001,908,
ROAM,ströva omkring,ta sig fram,luffa runt,3,ta sig fram,luffa runt,ströva omkring,,,0,60,60,58,,,,,,,,,,,,,,,,,,,return,16.6541081263,,,2018_Jun_18_1302,59.6219779077,verb_norming_oral_input,001,908,
KNEEL,knäböja,krypa,kräla,3,krypa,kräla,knäböja,Arm,arm,0,61,61,37,0,0,0,0,,,,,,,,,,,,,1,2.893,,,,,2018_Jun_18_1302,59.6219779077,verb_norming_oral_input,001,908,
KNEEL,knäböja,krypa,kräla,3,krypa,kräla,knäböja,Leg,leg,0,61,61,37,0,1,1,1,,,,,,,,,,,,,6,2.125,,,,,2018_Jun_18_1302,59.6219779077,verb_norming_oral_input,001,908,
KNEEL,knäböja,krypa,kräla,3,krypa,kräla,knäböja,,,0,61,61,37,,,,,,,,,,,,,,,,,,,return,1.37568388433,,,2018_Jun_18_1302,59.6219779077,verb_norming_oral_input,001,908,
TRAIPSE,traska,stappla,vandra,3,vandra,stappla,traska,Arm,arm,0,62,62,97,0,0,0,0,,,,,,,,,,,,,1,5.358,,,,,2018_Jun_18_1302,59.6219779077,verb_norming_oral_input,001,908,
TRAIPSE,traska,stappla,vandra,3,vandra,stappla,traska,Leg,leg,0,62,62,97,0,1,1,1,,,,,,,,,,,,,6,1.319,,,,,2018_Jun_18_1302,59.6219779077,verb_norming_oral_input,001,908,
TRAIPSE,traska,stappla,vandra,3,vandra,stappla,traska,,,0,62,62,97,,,,,,,,,,,,,,,,,,,return,4.84713152824,,,2018_Jun_18_1302,59.6219779077,verb_norming_oral_input,001,908,
PUNCH,slå,knuffa,kasta,3,knuffa,kasta,slå,Arm,arm,0,63,63,55,0,0,0,0,,,,,,,,,,,,,7,3.212,,,,,2018_Jun_18_1302,59.6219779077,verb_norming_oral_input,001,908,
PUNCH,slå,knuffa,kasta,3,knuffa,kasta,slå,Leg,leg,0,63,63,55,0,1,1,1,,,,,,,,,,,,,1,4.708,,,,,2018_Jun_18_1302,59.6219779077,verb_norming_oral_input,001,908,
PUNCH,slå,knuffa,kasta,3,knuffa,kasta,slå,,,0,63,63,55,,,,,,,,,,,,,,,,,,,return,1.71095443721,,,2018_Jun_18_1302,59.6219779077,verb_norming_oral_input,001,908,
SLITHER,hasa,glida,trilla,2,trilla,hasa,glida,Arm,arm,0,64,64,76,0,0,0,0,,,,,,,,,,,,,4,5.878,,,,,2018_Jun_18_1302,59.6219779077,verb_norming_oral_input,001,908,
SLITHER,hasa,glida,trilla,2,trilla,hasa,glida,Leg,leg,0,64,64,76,0,1,1,1,,,,,,,,,,,,,4,2.09,,,,,2018_Jun_18_1302,59.6219779077,verb_norming_oral_input,001,908,
SLITHER,hasa,glida,trilla,2,trilla,hasa,glida,,,0,64,64,76,,,,,,,,,,,,,,,,,,,return,9.03988783645,,,2018_Jun_18_1302,59.6219779077,verb_norming_oral_input,001,908,
HOP,skutta,kliva,studsa,3,studsa,kliva,skutta,Arm,arm,0,65,65,32,0,0,0,0,,,,,,,,,,,,,1,3.214,,,,,2018_Jun_18_1302,59.6219779077,verb_norming_oral_input,001,908,
HOP,skutta,kliva,studsa,3,studsa,kliva,skutta,Leg,leg,0,65,65,32,0,1,1,1,,,,,,,,,,,,,7,0.885,,,,,2018_Jun_18_1302,59.6219779077,verb_norming_oral_input,001,908,
HOP,skutta,kliva,studsa,3,studsa,kliva,skutta,,,0,65,65,32,,,,,,,,,,,,,,,,,,,return,1.64404193371,,,2018_Jun_18_1302,59.6219779077,verb_norming_oral_input,001,908,
PLOD,lunka,pulsa,vingla,2,vingla,lunka,pulsa,Arm,arm,0,66,66,49,0,0,0,0,,,,,,,,,,,,,1,7.103,,,,,2018_Jun_18_1302,59.6219779077,verb_norming_oral_input,001,908,
PLOD,lunka,pulsa,vingla,2,vingla,lunka,pulsa,Leg,leg,0,66,66,49,0,1,1,1,,,,,,,,,,,,,5,0.986,,,,,2018_Jun_18_1302,59.6219779077,verb_norming_oral_input,001,908,
PLOD,lunka,pulsa,vingla,2,vingla,lunka,pulsa,,,0,66,66,49,,,,,,,,,,,,,,,,,,,return,41.32415258,,,2018_Jun_18_1302,59.6219779077,verb_norming_oral_input,001,908,
GRASP,gripa,klämma,omfamna,2,klämma,gripa,omfamna,Arm,arm,0,67,67,27,0,0,0,0,,,,,,,,,,,,,1,2.02,,,,,2018_Jun_18_1302,59.6219779077,verb_norming_oral_input,001,908,
GRASP,gripa,klämma,omfamna,2,klämma,gripa,omfamna,Leg,leg,0,67,67,27,0,1,1,1,,,,,,,,,,,,,1,3.969,,,,,2018_Jun_18_1302,59.6219779077,verb_norming_oral_input,001,908,
GRASP,gripa,klämma,omfamna,2,klämma,gripa,omfamna,,,0,67,67,27,,,,,,,,,,,,,,,,,,,return,0.11782506706,,,2018_Jun_18_1302,59.6219779077,verb_norming_oral_input,001,908,
SCOOP,skyffla,dika,skrapa,1,skyffla,dika,skrapa,Arm,arm,0,68,68,63,0,0,0,0,,,,,,,,,,,,,7,8.026,,,,,2018_Jun_18_1302,59.6219779077,verb_norming_oral_input,001,908,
SCOOP,skyffla,dika,skrapa,1,skyffla,dika,skrapa,Leg,leg,0,68,68,63,0,1,1,1,,,,,,,,,,,,,1,2.041,,,,,2018_Jun_18_1302,59.6219779077,verb_norming_oral_input,001,908,
SCOOP,skyffla,dika,skrapa,1,skyffla,dika,skrapa,,,0,68,68,63,,,,,,,,,,,,,,,,,,,return,6.80948791105,,,2018_Jun_18_1302,59.6219779077,verb_norming_oral_input,001,908,
SHAKE,skaka,röra,vispa,2,vispa,skaka,röra,Arm,arm,0,69,69,69,0,0,0,0,,,,,,,,,,,,,7,2.591,,,,,2018_Jun_18_1302,59.6219779077,verb_norming_oral_input,001,908,
SHAKE,skaka,röra,vispa,2,vispa,skaka,röra,Leg,leg,0,69,69,69,0,1,1,1,,,,,,,,,,,,,1,0.8,,,,,2018_Jun_18_1302,59.6219779077,verb_norming_oral_input,001,908,
SHAKE,skaka,röra,vispa,2,vispa,skaka,röra,,,0,69,69,69,,,,,,,,,,,,,,,,,,,return,0.822228596648,,,2018_Jun_18_1302,59.6219779077,verb_norming_oral_input,001,908,
KNOCK,knacka,krocka,klicka,1,knacka,krocka,klicka,Arm,arm,0,70,70,38,0,0,0,0,,,,,,,,,,,,,7,2.307,,,,,2018_Jun_18_1302,59.6219779077,verb_norming_oral_input,001,908,
KNOCK,knacka,krocka,klicka,1,knacka,krocka,klicka,Leg,leg,0,70,70,38,0,1,1,1,,,,,,,,,,,,,1,0.65,,,,,2018_Jun_18_1302,59.6219779077,verb_norming_oral_input,001,908,
KNOCK,knacka,krocka,klicka,1,knacka,krocka,klicka,,,0,70,70,38,,,,,,,,,,,,,,,,,,,return,0.637571233219,,,2018_Jun_18_1302,59.6219779077,verb_norming_oral_input,001,908,
WRAP,slå in,slå ihop,slå till,1,slå in,slå till,slå ihop,Arm,arm,0,71,71,111,0,0,0,0,,,,,,,,,,,,,7,7.624,,,,,2018_Jun_18_1302,59.6219779077,verb_norming_oral_input,001,908,
WRAP,slå in,slå ihop,slå till,1,slå in,slå till,slå ihop,Leg,leg,0,71,71,111,0,1,1,1,,,,,,,,,,,,,1,1.119,,,,,2018_Jun_18_1302,59.6219779077,verb_norming_oral_input,001,908,
WRAP,slå in,slå ihop,slå till,1,slå in,slå till,slå ihop,,,0,71,71,111,,,,,,,,,,,,,,,,,,,return,2.18065648945,,,2018_Jun_18_1302,59.6219779077,verb_norming_oral_input,001,908,
PEEL,skala,rensa,plocka,3,plocka,rensa,skala,Arm,arm,0,72,72,47,0,0,0,0,,,,,,,,,,,,,5,5.259,,,,,2018_Jun_18_1302,59.6219779077,verb_norming_oral_input,001,908,
PEEL,skala,rensa,plocka,3,plocka,rensa,skala,Leg,leg,0,72,72,47,0,1,1,1,,,,,,,,,,,,,1,3.719,,,,,2018_Jun_18_1302,59.6219779077,verb_norming_oral_input,001,908,
PEEL,skala,rensa,plocka,3,plocka,rensa,skala,,,0,72,72,47,,,,,,,,,,,,,,,,,,,return,0.822063836185,,,2018_Jun_18_1302,59.6219779077,verb_norming_oral_input,001,908,
TIPTOE,gå på tå,snava,sparka,1,gå på tå,snava,sparka,Arm,arm,0,73,73,95,0,0,0,0,,,,,,,,,,,,,1,6.7,,,,,2018_Jun_18_1302,59.6219779077,verb_norming_oral_input,001,908,
TIPTOE,gå på tå,snava,sparka,1,gå på tå,snava,sparka,Leg,leg,0,73,73,95,0,1,1,1,,,,,,,,,,,,,7,1.051,,,,,2018_Jun_18_1302,59.6219779077,verb_norming_oral_input,001,908,
TIPTOE,gå på tå,snava,sparka,1,gå på tå,snava,sparka,,,0,73,73,95,,,,,,,,,,,,,,,,,,,return,10.4319904763,,,2018_Jun_18_1302,59.6219779077,verb_norming_oral_input,001,908,
RUN,springa,rusa,jogga,1,springa,jogga,rusa,Arm,arm,0,74,74,61,0,0,0,0,,,,,,,,,,,,,3,3.498,,,,,2018_Jun_18_1302,59.6219779077,verb_norming_oral_input,001,908,
RUN,springa,rusa,jogga,1,springa,jogga,rusa,Leg,leg,0,74,74,61,0,1,1,1,,,,,,,,,,,,,7,0.801,,,,,2018_Jun_18_1302,59.6219779077,verb_norming_oral_input,001,908,
RUN,springa,rusa,jogga,1,springa,jogga,rusa,,,0,74,74,61,,,,,,,,,,,,,,,,,,,return,0.537120690398,,,2018_Jun_18_1302,59.6219779077,verb_norming_oral_input,001,908,
KICK,sparka,knäa,tåa,2,tåa,sparka,knäa,Arm,arm,0,75,75,36,0,0,0,0,,,,,,,,,,,,,1,3.984,,,,,2018_Jun_18_1302,59.6219779077,verb_norming_oral_input,001,908,
KICK,sparka,knäa,tåa,2,tåa,sparka,knäa,Leg,leg,0,75,75,36,0,1,1,1,,,,,,,,,,,,,7,1.218,,,,,2018_Jun_18_1302,59.6219779077,verb_norming_oral_input,001,908,
KICK,sparka,knäa,tåa,2,tåa,sparka,knäa,,,0,75,75,36,,,,,,,,,,,,,,,,,,,return,2.21549957387,,,2018_Jun_18_1302,59.6219779077,verb_norming_oral_input,001,908,
TREAD,trampa,stampa,klampa,3,klampa,stampa,trampa,Arm,arm,0,76,76,98,0,0,0,0,,,,,,,,,,,,,1,3.898,,,,,2018_Jun_18_1302,59.6219779077,verb_norming_oral_input,001,908,
TREAD,trampa,stampa,klampa,3,klampa,stampa,trampa,Leg,leg,0,76,76,98,0,1,1,1,,,,,,,,,,,,,7,0.7,,,,,2018_Jun_18_1302,59.6219779077,verb_norming_oral_input,001,908,
TREAD,trampa,stampa,klampa,3,klampa,stampa,trampa,,,0,76,76,98,,,,,,,,,,,,,,,,,,,return,2.08002814757,,,2018_Jun_18_1302,59.6219779077,verb_norming_oral_input,001,908,
STOMP,stampa,stiga,kliva,1,stampa,kliva,stiga,Arm,arm,0,77,77,86,0,0,0,0,,,,,,,,,,,,,1,2.055,,,,,2018_Jun_18_1302,59.6219779077,verb_norming_oral_input,001,908,
STOMP,stampa,stiga,kliva,1,stampa,kliva,stiga,Leg,leg,0,77,77,86,0,1,1,1,,,,,,,,,,,,,7,0.515,,,,,2018_Jun_18_1302,59.6219779077,verb_norming_oral_input,001,908,
STOMP,stampa,stiga,kliva,1,stampa,kliva,stiga,,,0,77,77,86,,,,,,,,,,,,,,,,,,,return,0.771916598806,,,2018_Jun_18_1302,59.6219779077,verb_norming_oral_input,001,908,
POLISH,polera,sopa,tvätta,3,sopa,tvätta,polera,Arm,arm,0,78,78,52,0,0,0,0,,,,,,,,,,,,,6,3.111,,,,,2018_Jun_18_1302,59.6219779077,verb_norming_oral_input,001,908,
POLISH,polera,sopa,tvätta,3,sopa,tvätta,polera,Leg,leg,0,78,78,52,0,1,1,1,,,,,,,,,,,,,1,1.018,,,,,2018_Jun_18_1302,59.6219779077,verb_norming_oral_input,001,908,
POLISH,polera,sopa,tvätta,3,sopa,tvätta,polera,,,0,78,78,52,,,,,,,,,,,,,,,,,,,return,2.78443088694,,,2018_Jun_18_1302,59.6219779077,verb_norming_oral_input,001,908,
STRAY,ströva,vandra,promenera,3,promenera,vandra,ströva,Arm,arm,0,79,79,87,0,0,0,0,,,,,,,,,,,,,1,4.218,,,,,2018_Jun_18_1302,59.6219779077,verb_norming_oral_input,001,908,
STRAY,ströva,vandra,promenera,3,promenera,vandra,ströva,Leg,leg,0,79,79,87,0,1,1,1,,,,,,,,,,,,,5,0.649,,,,,2018_Jun_18_1302,59.6219779077,verb_norming_oral_input,001,908,
STRAY,ströva,vandra,promenera,3,promenera,vandra,ströva,,,0,79,79,87,,,,,,,,,,,,,,,,,,,return,12.0086244398,,,2018_Jun_18_1302,59.6219779077,verb_norming_oral_input,001,908,
CUT,skära,sticka,spetsa,1,skära,sticka,spetsa,Arm,arm,0,80,80,16,0,0,0,0,,,,,,,,,,,,,6,2.961,,,,,2018_Jun_18_1302,59.6219779077,verb_norming_oral_input,001,908,
CUT,skära,sticka,spetsa,1,skära,sticka,spetsa,Leg,leg,0,80,80,16,0,1,1,1,,,,,,,,,,,,,1,0.986,,,,,2018_Jun_18_1302,59.6219779077,verb_norming_oral_input,001,908,
CUT,skära,sticka,spetsa,1,skära,sticka,spetsa,,,0,80,80,16,,,,,,,,,,,,,,,,,,,return,1.91234743359,,,2018_Jun_18_1302,59.6219779077,verb_norming_oral_input,001,908,
MARCH,marschera,trava,traska,2,trava,marschera,traska,Arm,arm,0,81,81,42,0,0,0,0,,,,,,,,,,,,,1,1.954,,,,,2018_Jun_18_1302,59.6219779077,verb_norming_oral_input,001,908,
MARCH,marschera,trava,traska,2,trava,marschera,traska,Leg,leg,0,81,81,42,0,1,1,1,,,,,,,,,,,,,7,0.599,,,,,2018_Jun_18_1302,59.6219779077,verb_norming_oral_input,001,908,
MARCH,marschera,trava,traska,2,trava,marschera,traska,,,0,81,81,42,,,,,,,,,,,,,,,,,,,return,3.67333689722,,,2018_Jun_18_1302,59.6219779077,verb_norming_oral_input,001,908,
HACK,hacka,skära,kåpa,3,kåpa,skära,hacka,Arm,arm,0,82,82,30,0,0,0,0,,,,,,,,,,,,,7,2.29,,,,,2018_Jun_18_1302,59.6219779077,verb_norming_oral_input,001,908,
HACK,hacka,skära,kåpa,3,kåpa,skära,hacka,Leg,leg,0,82,82,30,0,1,1,1,,,,,,,,,,,,,1,0.851,,,,,2018_Jun_18_1302,59.6219779077,verb_norming_oral_input,001,908,
HACK,hacka,skära,kåpa,3,kåpa,skära,hacka,,,0,82,82,30,,,,,,,,,,,,,,,,,,,return,5.03163361382,,,2018_Jun_18_1302,59.6219779077,verb_norming_oral_input,001,908,
CLICK,klicka,klappa,klämma,2,klämma,klicka,klappa,Arm,arm,0,83,83,11,0,0,0,0,,,,,,,,,,,,,6,2.558,,,,,2018_Jun_18_1302,59.6219779077,verb_norming_oral_input,001,908,
CLICK,klicka,klappa,klämma,2,klämma,klicka,klappa,Leg,leg,0,83,83,11,0,1,1,1,,,,,,,,,,,,,1,0.716,,,,,2018_Jun_18_1302,59.6219779077,verb_norming_oral_input,001,908,
CLICK,klicka,klappa,klämma,2,klämma,klicka,klappa,,,0,83,83,11,,,,,,,,,,,,,,,,,,,return,1.37564674408,,,2018_Jun_18_1302,59.6219779077,verb_norming_oral_input,001,908,
WIPE,torka,putsa,gnugga,2,putsa,torka,gnugga,Arm,arm,0,84,84,109,0,0,0,0,,,,,,,,,,,,,7,3.917,,,,,2018_Jun_18_1302,59.6219779077,verb_norming_oral_input,001,908,
WIPE,torka,putsa,gnugga,2,putsa,torka,gnugga,Leg,leg,0,84,84,109,0,1,1,1,,,,,,,,,,,,,1,1.958,,,,,2018_Jun_18_1302,59.6219779077,verb_norming_oral_input,001,908,
WIPE,torka,putsa,gnugga,2,putsa,torka,gnugga,,,0,84,84,109,,,,,,,,,,,,,,,,,,,return,20.9305781591,,,2018_Jun_18_1302,59.6219779077,verb_norming_oral_input,001,908,
SCUFF,hasa sig fram,dra sig fram,kasta sig fram,2,dra sig fram,hasa sig fram,kasta sig fram,Arm,arm,0,85,85,67,0,0,0,0,,,,,,,,,,,,,4,5.66,,,,,2018_Jun_18_1302,59.6219779077,verb_norming_oral_input,001,908,
SCUFF,hasa sig fram,dra sig fram,kasta sig fram,2,dra sig fram,hasa sig fram,kasta sig fram,Leg,leg,0,85,85,67,0,1,1,1,,,,,,,,,,,,,1,0.951,,,,,2018_Jun_18_1302,59.6219779077,verb_norming_oral_input,001,908,
SCUFF,hasa sig fram,dra sig fram,kasta sig fram,2,dra sig fram,hasa sig fram,kasta sig fram,,,0,85,85,67,,,,,,,,,,,,,,,,,,,return,2.41549981094,,,2018_Jun_18_1302,59.6219779077,verb_norming_oral_input,001,908,
TWINE,tvinna,binda,knyta,3,binda,knyta,tvinna,Arm,arm,0,86,86,103,0,0,0,0,,,,,,,,,,,,,7,3.296,,,,,2018_Jun_18_1302,59.6219779077,verb_norming_oral_input,001,908,
TWINE,tvinna,binda,knyta,3,binda,knyta,tvinna,Leg,leg,0,86,86,103,0,1,1,1,,,,,,,,,,,,,1,0.733,,,,,2018_Jun_18_1302,59.6219779077,verb_norming_oral_input,001,908,
TWINE,tvinna,binda,knyta,3,binda,knyta,tvinna,,,0,86,86,103,,,,,,,,,,,,,,,,,,,return,2.01296471242,,,2018_Jun_18_1302,59.6219779077,verb_norming_oral_input,001,908,
SKIM,skumma,vispa,sleva,2,vispa,skumma,sleva,Arm,arm,0,87,87,71,0,0,0,0,,,,,,,,,,,,,1,11.38,,,,,2018_Jun_18_1302,59.6219779077,verb_norming_oral_input,001,908,
SKIM,skumma,vispa,sleva,2,vispa,skumma,sleva,Leg,leg,0,87,87,71,0,1,1,1,,,,,,,,,,,,,1,3.651,,,,,2018_Jun_18_1302,59.6219779077,verb_norming_oral_input,001,908,
SKIM,skumma,vispa,sleva,2,vispa,skumma,sleva,,,0,87,87,71,,,,,,,,,,,,,,,,,,,return,2.52101446613,,,2018_Jun_18_1302,59.6219779077,verb_norming_oral_input,001,908,
CLUTCH,gripa tag i,sätta ihop,dra ut,1,gripa tag i,dra ut,sätta ihop,Arm,arm,0,88,88,13,0,0,0,0,,,,,,,,,,,,,7,3.312,,,,,2018_Jun_18_1302,59.6219779077,verb_norming_oral_input,001,908,
CLUTCH,gripa tag i,sätta ihop,dra ut,1,gripa tag i,dra ut,sätta ihop,Leg,leg,0,88,88,13,0,1,1,1,,,,,,,,,,,,,1,0.716,,,,,2018_Jun_18_1302,59.6219779077,verb_norming_oral_input,001,908,
CLUTCH,gripa tag i,sätta ihop,dra ut,1,gripa tag i,dra ut,sätta ihop,,,0,88,88,13,,,,,,,,,,,,,,,,,,,return,2.48253005693,,,2018_Jun_18_1302,59.6219779077,verb_norming_oral_input,001,908,
BRAID,fläta,knyta,binda,3,knyta,binda,fläta,Arm,arm,0,89,89,3,0,0,0,0,,,,,,,,,,,,,7,3.598,,,,,2018_Jun_18_1302,59.6219779077,verb_norming_oral_input,001,908,
BRAID,fläta,knyta,binda,3,knyta,binda,fläta,Leg,leg,0,89,89,3,0,1,1,1,,,,,,,,,,,,,1,0.431,,,,,2018_Jun_18_1302,59.6219779077,verb_norming_oral_input,001,908,
BRAID,fläta,knyta,binda,3,knyta,binda,fläta,,,0,89,89,3,,,,,,,,,,,,,,,,,,,return,0.771964011888,,,2018_Jun_18_1302,59.6219779077,verb_norming_oral_input,001,908,
JUMP,hoppa,kliva,lyfta,3,kliva,lyfta,hoppa,Arm,arm,0,90,90,35,0,0,0,0,,,,,,,,,,,,,1,2.002,,,,,2018_Jun_18_1302,59.6219779077,verb_norming_oral_input,001,908,
JUMP,hoppa,kliva,lyfta,3,kliva,lyfta,hoppa,Leg,leg,0,90,90,35,0,1,1,1,,,,,,,,,,,,,7,1.151,,,,,2018_Jun_18_1302,59.6219779077,verb_norming_oral_input,001,908,
JUMP,hoppa,kliva,lyfta,3,kliva,lyfta,hoppa,,,0,90,90,35,,,,,,,,,,,,,,,,,,,return,0.839003345387,,,2018_Jun_18_1302,59.6219779077,verb_norming_oral_input,001,908,
STAMP,stampa,kliva,skutta,3,skutta,kliva,stampa,Arm,arm,0,91,91,83,0,0,0,0,,,,,,,,,,,,,7,4.336,,,,,2018_Jun_18_1302,59.6219779077,verb_norming_oral_input,001,908,
STAMP,stampa,kliva,skutta,3,skutta,kliva,stampa,Leg,leg,0,91,91,83,0,1,1,1,,,,,,,,,,,,,1,0.632,,,,,2018_Jun_18_1302,59.6219779077,verb_norming_oral_input,001,908,
STAMP,stampa,kliva,skutta,3,skutta,kliva,stampa,,,0,91,91,83,,,,,,,,,,,,,,,,,,,return,15.6981513244,,,2018_Jun_18_1302,59.6219779077,verb_norming_oral_input,001,908,
SEIZE,fånga,klämma,fästa,2,fästa,fånga,klämma,Arm,arm,0,92,92,68,0,0,0,0,,,,,,,,,,,,,7,3.611,,,,,2018_Jun_18_1302,59.6219779077,verb_norming_oral_input,001,908,
SEIZE,fånga,klämma,fästa,2,fästa,fånga,klämma,Leg,leg,0,92,92,68,0,1,1,1,,,,,,,,,,,,,1,0.564,,,,,2018_Jun_18_1302,59.6219779077,verb_norming_oral_input,001,908,
SEIZE,fånga,klämma,fästa,2,fästa,fånga,klämma,,,0,92,92,68,,,,,,,,,,,,,,,,,,,return,5.13219478717,,,2018_Jun_18_1302,59.6219779077,verb_norming_oral_input,001,908,
CLAP,klappa,knäppa,klämma,3,klämma,knäppa,klappa,Arm,arm,0,93,93,8,0,0,0,0,,,,,,,,,,,,,7,2.743,,,,,2018_Jun_18_1302,59.6219779077,verb_norming_oral_input,001,908,
CLAP,klappa,knäppa,klämma,3,klämma,knäppa,klappa,Leg,leg,0,93,93,8,0,1,1,1,,,,,,,,,,,,,1,0.583,,,,,2018_Jun_18_1302,59.6219779077,verb_norming_oral_input,001,908,
CLAP,klappa,knäppa,klämma,3,klämma,knäppa,klappa,,,0,93,93,8,,,,,,,,,,,,,,,,,,,return,4.42796115446,,,2018_Jun_18_1302,59.6219779077,verb_norming_oral_input,001,908,
JOG,jogga,spurta,rusa,1,jogga,rusa,spurta,Arm,arm,0,94,94,34,0,0,0,0,,,,,,,,,,,,,1,2.306,,,,,2018_Jun_18_1302,59.6219779077,verb_norming_oral_input,001,908,
JOG,jogga,spurta,rusa,1,jogga,rusa,spurta,Leg,leg,0,94,94,34,0,1,1,1,,,,,,,,,,,,,7,1.151,,,,,2018_Jun_18_1302,59.6219779077,verb_norming_oral_input,001,908,
JOG,jogga,spurta,rusa,1,jogga,rusa,spurta,,,0,94,94,34,,,,,,,,,,,,,,,,,,,return,0.738235530021,,,2018_Jun_18_1302,59.6219779077,verb_norming_oral_input,001,908,
CLEAN,rengöra,rensa,plocka,3,rensa,plocka,rengöra,Arm,arm,0,95,95,10,0,0,0,0,,,,,,,,,,,,,7,2.391,,,,,2018_Jun_18_1302,59.6219779077,verb_norming_oral_input,001,908,
CLEAN,rengöra,rensa,plocka,3,rensa,plocka,rengöra,Leg,leg,0,95,95,10,0,1,1,1,,,,,,,,,,,,,1,0.867,,,,,2018_Jun_18_1302,59.6219779077,verb_norming_oral_input,001,908,
CLEAN,rengöra,rensa,plocka,3,rensa,plocka,rengöra,,,0,95,95,10,,,,,,,,,,,,,,,,,,,return,1.24144322264,,,2018_Jun_18_1302,59.6219779077,verb_norming_oral_input,001,908,
CHOP,hacka,tälja,riva,1,hacka,tälja,riva,Arm,arm,0,96,96,7,0,0,0,0,,,,,,,,,,,,,7,3.783,,,,,2018_Jun_18_1302,59.6219779077,verb_norming_oral_input,001,908,
CHOP,hacka,tälja,riva,1,hacka,tälja,riva,Leg,leg,0,96,96,7,0,1,1,1,,,,,,,,,,,,,1,0.499,,,,,2018_Jun_18_1302,59.6219779077,verb_norming_oral_input,001,908,
CHOP,hacka,tälja,riva,1,hacka,tälja,riva,,,0,96,96,7,,,,,,,,,,,,,,,,,,,return,0.503667994628,,,2018_Jun_18_1302,59.6219779077,verb_norming_oral_input,001,908,
STEP,gå,klampa,traska,3,traska,klampa,gå,Arm,arm,0,97,97,84,0,0,0,0,,,,,,,,,,,,,1,11.129,,,,,2018_Jun_18_1302,59.6219779077,verb_norming_oral_input,001,908,
STEP,gå,klampa,traska,3,traska,klampa,gå,Leg,leg,0,97,97,84,0,1,1,1,,,,,,,,,,,,,7,2.88,,,,,2018_Jun_18_1302,59.6219779077,verb_norming_oral_input,001,908,
STEP,gå,klampa,traska,3,traska,klampa,gå,,,0,97,97,84,,,,,,,,,,,,,,,,,,,return,6.64175899377,,,2018_Jun_18_1302,59.6219779077,verb_norming_oral_input,001,908,
SCRAPE,skrapa,rispa,klösa,1,skrapa,klösa,rispa,Arm,arm,0,98,98,64,0,0,0,0,,,,,,,,,,,,,7,2.926,,,,,2018_Jun_18_1302,59.6219779077,verb_norming_oral_input,001,908,
SCRAPE,skrapa,rispa,klösa,1,skrapa,klösa,rispa,Leg,leg,0,98,98,64,0,1,1,1,,,,,,,,,,,,,1,0.615,,,,,2018_Jun_18_1302,59.6219779077,verb_norming_oral_input,001,908,
SCRAPE,skrapa,rispa,klösa,1,skrapa,klösa,rispa,,,0,98,98,64,,,,,,,,,,,,,,,,,,,return,1.04018614376,,,2018_Jun_18_1302,59.6219779077,verb_norming_oral_input,001,908,
BOUNCE,studsa,dunka,kasta,1,studsa,dunka,kasta,Arm,arm,0,99,99,2,0,0,0,0,,,,,,,,,,,,,1,3.144,,,,,2018_Jun_18_1302,59.6219779077,verb_norming_oral_input,001,908,
BOUNCE,studsa,dunka,kasta,1,studsa,dunka,kasta,Leg,leg,0,99,99,2,0,1,1,1,,,,,,,,,,,,,7,1.504,,,,,2018_Jun_18_1302,59.6219779077,verb_norming_oral_input,001,908,
BOUNCE,studsa,dunka,kasta,1,studsa,dunka,kasta,,,0,99,99,2,,,,,,,,,,,,,,,,,,,return,35.5214467154,,,2018_Jun_18_1302,59.6219779077,verb_norming_oral_input,001,908,
STRIDE,kliva,tassa,lunka,2,tassa,kliva,lunka,Arm,arm,0,100,100,88,0,0,0,0,,,,,,,,,,,,,1,3.211,,,,,2018_Jun_18_1302,59.6219779077,verb_norming_oral_input,001,908,
STRIDE,kliva,tassa,lunka,2,tassa,kliva,lunka,Leg,leg,0,100,100,88,0,1,1,1,,,,,,,,,,,,,7,0.699,,,,,2018_Jun_18_1302,59.6219779077,verb_norming_oral_input,001,908,
STRIDE,kliva,tassa,lunka,2,tassa,kliva,lunka,,,0,100,100,88,,,,,,,,,,,,,,,,,,,return,1.34218259015,,,2018_Jun_18_1302,59.6219779077,verb_norming_oral_input,001,908,
LIMP,halta,hasa,halka,3,hasa,halka,halta,Arm,arm,0,101,101,41,0,0,0,0,,,,,,,,,,,,,1,3.163,,,,,2018_Jun_18_1302,59.6219779077,verb_norming_oral_input,001,908,
LIMP,halta,hasa,halka,3,hasa,halka,halta,Leg,leg,0,101,101,41,0,1,1,1,,,,,,,,,,,,,7,0.733,,,,,2018_Jun_18_1302,59.6219779077,verb_norming_oral_input,001,908,
LIMP,halta,hasa,halka,3,hasa,halka,halta,,,0,101,101,41,,,,,,,,,,,,,,,,,,,return,0.352502837872,,,2018_Jun_18_1302,59.6219779077,verb_norming_oral_input,001,908,
WHIP,piska,klappa,slå,2,slå,piska,klappa,Arm,arm,0,102,102,108,0,0,0,0,,,,,,,,,,,,,7,4.672,,,,,2018_Jun_18_1302,59.6219779077,verb_norming_oral_input,001,908,
WHIP,piska,klappa,slå,2,slå,piska,klappa,Leg,leg,0,102,102,108,0,1,1,1,,,,,,,,,,,,,1,0.834,,,,,2018_Jun_18_1302,59.6219779077,verb_norming_oral_input,001,908,
WHIP,piska,klappa,slå,2,slå,piska,klappa,,,0,102,102,108,,,,,,,,,,,,,,,,,,,return,4.6292431252,,,2018_Jun_18_1302,59.6219779077,verb_norming_oral_input,001,908,
SQUEEZE,klämma,knuffa,knäppa,3,knuffa,knäppa,klämma,Arm,arm,0,103,103,80,0,0,0,0,,,,,,,,,,,,,7,3.609,,,,,2018_Jun_18_1302,59.6219779077,verb_norming_oral_input,001,908,
SQUEEZE,klämma,knuffa,knäppa,3,knuffa,knäppa,klämma,Leg,leg,0,103,103,80,0,1,1,1,,,,,,,,,,,,,1,0.56,,,,,2018_Jun_18_1302,59.6219779077,verb_norming_oral_input,001,908,
SQUEEZE,klämma,knuffa,knäppa,3,knuffa,knäppa,klämma,,,0,103,103,80,,,,,,,,,,,,,,,,,,,return,1.07497035695,,,2018_Jun_18_1302,59.6219779077,verb_norming_oral_input,001,908,
BASH,slå,knuffa,trycka,3,trycka,knuffa,slå,Arm,arm,0,104,104,0,0,0,0,0,,,,,,,,,,,,,7,6.18,,,,,2018_Jun_18_1302,59.6219779077,verb_norming_oral_input,001,908,
BASH,slå,knuffa,trycka,3,trycka,knuffa,slå,Leg,leg,0,104,104,0,0,1,1,1,,,,,,,,,,,,,1,0.616,,,,,2018_Jun_18_1302,59.6219779077,verb_norming_oral_input,001,908,
BASH,slå,knuffa,trycka,3,trycka,knuffa,slå,,,0,104,104,0,,,,,,,,,,,,,,,,,,,return,0.922649111184,,,2018_Jun_18_1302,59.6219779077,verb_norming_oral_input,001,908,
TOSS,slänga,fånga,gripa,1,slänga,gripa,fånga,Arm,arm,0,105,105,96,0,0,0,0,,,,,,,,,,,,,7,9.4,,,,,2018_Jun_18_1302,59.6219779077,verb_norming_oral_input,001,908,
TOSS,slänga,fånga,gripa,1,slänga,gripa,fånga,Leg,leg,0,105,105,96,0,1,1,1,,,,,,,,,,,,,1,0.784,,,,,2018_Jun_18_1302,59.6219779077,verb_norming_oral_input,001,908,
TOSS,slänga,fånga,gripa,1,slänga,gripa,fånga,,,0,105,105,96,,,,,,,,,,,,,,,,,,,return,1.37564713919,,,2018_Jun_18_1302,59.6219779077,verb_norming_oral_input,001,908,
SCRUB,skrubba,sopa,skrapa,2,skrapa,skrubba,sopa,Arm,arm,0,106,106,66,0,0,0,0,,,,,,,,,,,,,7,2.709,,,,,2018_Jun_18_1302,59.6219779077,verb_norming_oral_input,001,908,
SCRUB,skrubba,sopa,skrapa,2,skrapa,skrubba,sopa,Leg,leg,0,106,106,66,0,1,1,1,,,,,,,,,,,,,1,0.633,,,,,2018_Jun_18_1302,59.6219779077,verb_norming_oral_input,001,908,
SCRUB,skrubba,sopa,skrapa,2,skrapa,skrubba,sopa,,,0,106,106,66,,,,,,,,,,,,,,,,,,,return,0.721630283049,,,2018_Jun_18_1302,59.6219779077,verb_norming_oral_input,001,908,
TROT,trava,promenera,flanera,3,flanera,promenera,trava,Arm,arm,0,107,107,100,0,0,0,0,,,,,,,,,,,,,1,5.913,,,,,2018_Jun_18_1302,59.6219779077,verb_norming_oral_input,001,908,
TROT,trava,promenera,flanera,3,flanera,promenera,trava,Leg,leg,0,107,107,100,0,1,1,1,,,,,,,,,,,,,7,0.666,,,,,2018_Jun_18_1302,59.6219779077,verb_norming_oral_input,001,908,
TROT,trava,promenera,flanera,3,flanera,promenera,trava,,,0,107,107,100,,,,,,,,,,,,,,,,,,,return,20.8802693221,,,2018_Jun_18_1302,59.6219779077,verb_norming_oral_input,001,908,
WANDER,vandra,marschera,spatsera,1,vandra,spatsera,marschera,Arm,arm,0,108,108,106,0,0,0,0,,,,,,,,,,,,,1,3.513,,,,,2018_Jun_18_1302,59.6219779077,verb_norming_oral_input,001,908,
WANDER,vandra,marschera,spatsera,1,vandra,spatsera,marschera,Leg,leg,0,108,108,106,0,1,1,1,,,,,,,,,,,,,7,1.722,,,,,2018_Jun_18_1302,59.6219779077,verb_norming_oral_input,001,908,
WANDER,vandra,marschera,spatsera,1,vandra,spatsera,marschera,,,0,108,108,106,,,,,,,,,,,,,,,,,,,return,0.956256294583,,,2018_Jun_18_1302,59.6219779077,verb_norming_oral_input,001,908,
PRANCE,kråma sig,promenera,traska,1,kråma sig,traska,promenera,Arm,arm,0,109,109,53,0,0,0,0,,,,,,,,,,,,,1,3.278,,,,,2018_Jun_18_1302,59.6219779077,verb_norming_oral_input,001,908,
PRANCE,kråma sig,promenera,traska,1,kråma sig,traska,promenera,Leg,leg,0,109,109,53,0,1,1,1,,,,,,,,,,,,,6,0.749,,,,,2018_Jun_18_1302,59.6219779077,verb_norming_oral_input,001,908,
PRANCE,kråma sig,promenera,traska,1,kråma sig,traska,promenera,,,0,109,109,53,,,,,,,,,,,,,,,,,,,return,50.5147069457,,,2018_Jun_18_1302,59.6219779077,verb_norming_oral_input,001,908,
CLAW,klösa,nypa,rispa,3,nypa,rispa,klösa,Arm,arm,0,110,110,9,0,0,0,0,,,,,,,,,,,,,7,3.128,,,,,2018_Jun_18_1302,59.6219779077,verb_norming_oral_input,001,908,
CLAW,klösa,nypa,rispa,3,nypa,rispa,klösa,Leg,leg,0,110,110,9,0,1,1,1,,,,,,,,,,,,,1,0.633,,,,,2018_Jun_18_1302,59.6219779077,verb_norming_oral_input,001,908,
CLAW,klösa,nypa,rispa,3,nypa,rispa,klösa,,,0,110,110,9,,,,,,,,,,,,,,,,,,,return,66.8327969728,,,2018_Jun_18_1302,59.6219779077,verb_norming_oral_input,001,908,
WASH,tvätta,skura,sopa,2,sopa,tvätta,skura,Arm,arm,0,111,111,107,0,0,0,0,,,,,,,,,,,,,7,2.323,,,,,2018_Jun_18_1302,59.6219779077,verb_norming_oral_input,001,908,
WASH,tvätta,skura,sopa,2,sopa,tvätta,skura,Leg,leg,0,111,111,107,0,1,1,1,,,,,,,,,,,,,1,0.666,,,,,2018_Jun_18_1302,59.6219779077,verb_norming_oral_input,001,908,
WASH,tvätta,skura,sopa,2,sopa,tvätta,skura,,,0,111,111,107,,,,,,,,,,,,,,,,,,,return,0.621052515125,,,2018_Jun_18_1302,59.6219779077,verb_norming_oral_input,001,908,
,,,,,,,,,,,,,,,,,,,,,,,,,,,,,,,,,,space,107.401821137,2018_Jun_18_1302,59.6219779077,verb_norming_oral_input,001,908,
