word,target,distrOne,distrTwo,corrAns,w1,w2,w3,category,category_lowercase,trials.thisRepN,trials.thisTrialN,trials.thisN,trials.thisIndex,ArmLeg_loop.thisRepN,ArmLeg_loop.thisTrialN,ArmLeg_loop.thisN,ArmLeg_loop.thisIndex,key_resp_9.keys,key_resp_9.rt,key_resp_3.keys,key_resp_3.rt,key_resp_6.keys,key_resp_6.rt,key_resp_5.keys,key_resp_5.rt,key_resp_4.keys,key_resp_4.rt,key_resp_8.keys,key_resp_8.rt,rating.response,rating.rt,answer.keys,answer.corr,answer.rt,key_resp_7.keys,key_resp_7.rt,date,frameRate,expName,session,participant,
,,,,,,,,,,,,,,,,,,space,22.6908358808,,,,,,,,,,,,,,,,,,2018_Jun_18_1531,59.6364480341,verb_norming,001,909,
,,,,,,,,,,,,,,,,,,,,space,4.84714338151,,,,,,,,,,,,,,,,2018_Jun_18_1531,59.6364480341,verb_norming,001,909,
,,,,,,,,,,,,,,,,,,,,,,space,32.5360396721,,,,,,,,,,,,,,2018_Jun_18_1531,59.6364480341,verb_norming,001,909,
,,,,,,,,,,,,,,,,,,,,,,,,space,19.2701368302,,,,,,,,,,,,2018_Jun_18_1531,59.6364480341,verb_norming,001,909,
,,,,,,,,,,,,,,,,,,,,,,,,,,space,5.56821102931,,,,,,,,,,2018_Jun_18_1531,59.6364480341,verb_norming,001,909,
,,,,,,,,,,,,,,,,,,,,,,,,,,,,space,2.56634137341,,,,,,,,2018_Jun_18_1531,59.6364480341,verb_norming,001,909,
PUSH,knuffa,kasta,klämma,3,kasta,klämma,knuffa,Leg,leg,0,0,0,56,0,0,0,0,,,,,,,,,,,,,1,13.286,,,,,,2018_Jun_18_1531,59.6364480341,verb_norming,001,909,
PUSH,knuffa,kasta,klämma,3,kasta,klämma,knuffa,Arm,arm,0,0,0,56,0,1,1,1,,,,,,,,,,,,,7,4.792,,,,,,2018_Jun_18_1531,59.6364480341,verb_norming,001,909,
PUSH,knuffa,kasta,klämma,3,kasta,klämma,knuffa,,,0,0,0,56,,,,,,,,,,,,,,,,,,,3,1,4.86401335152,,,2018_Jun_18_1531,59.6364480341,verb_norming,001,909,
RAMBLE,ströva,strutta,spurta,2,strutta,ströva,spurta,Leg,leg,0,1,1,57,0,0,0,0,,,,,,,,,,,,,2,9.112,,,,,,2018_Jun_18_1531,59.6364480341,verb_norming,001,909,
RAMBLE,ströva,strutta,spurta,2,strutta,ströva,spurta,Arm,arm,0,1,1,57,0,1,1,1,,,,,,,,,,,,,2,4.49,,,,,,2018_Jun_18_1531,59.6364480341,verb_norming,001,909,
RAMBLE,ströva,strutta,spurta,2,strutta,ströva,spurta,,,0,1,1,57,,,,,,,,,,,,,,,,,,,1,0,9.67727257821,,,2018_Jun_18_1531,59.6364480341,verb_norming,001,909,
KNEEL,knäböja,krypa,kräla,2,kräla,knäböja,krypa,Leg,leg,0,2,2,37,0,0,0,0,,,,,,,,,,,,,7,6.295,,,,,,2018_Jun_18_1531,59.6364480341,verb_norming,001,909,
KNEEL,knäböja,krypa,kräla,2,kräla,knäböja,krypa,Arm,arm,0,2,2,37,0,1,1,1,,,,,,,,,,,,,1,4.187,,,,,,2018_Jun_18_1531,59.6364480341,verb_norming,001,909,
KNEEL,knäböja,krypa,kräla,2,kräla,knäböja,krypa,,,0,2,2,37,,,,,,,,,,,,,,,,,,,2,1,2.41523745855,,,2018_Jun_18_1531,59.6364480341,verb_norming,001,909,
FOLD,vika ihop,knyta ihop,bunta ihop,3,bunta ihop,knyta ihop,vika ihop,Leg,leg,0,3,3,24,0,0,0,0,,,,,,,,,,,,,1,10.604,,,,,,2018_Jun_18_1531,59.6364480341,verb_norming,001,909,
FOLD,vika ihop,knyta ihop,bunta ihop,3,bunta ihop,knyta ihop,vika ihop,Arm,arm,0,3,3,24,0,1,1,1,,,,,,,,,,,,,7,2.827,,,,,,2018_Jun_18_1531,59.6364480341,verb_norming,001,909,
FOLD,vika ihop,knyta ihop,bunta ihop,3,bunta ihop,knyta ihop,vika ihop,,,0,3,3,24,,,,,,,,,,,,,,,,,,,3,1,3.50556293751,,,2018_Jun_18_1531,59.6364480341,verb_norming,001,909,
TREAD,trampa,stampa,klampa,1,trampa,klampa,stampa,Leg,leg,0,4,4,98,0,0,0,0,,,,,,,,,,,,,1,6.566,,,,,,2018_Jun_18_1531,59.6364480341,verb_norming,001,909,
TREAD,trampa,stampa,klampa,1,trampa,klampa,stampa,Arm,arm,0,4,4,98,0,1,1,1,,,,,,,,,,,,,7,1.838,,,,,,2018_Jun_18_1531,59.6364480341,verb_norming,001,909,
TREAD,trampa,stampa,klampa,1,trampa,klampa,stampa,,,0,4,4,98,,,,,,,,,,,,,,,,,,,2,0,17.6099483711,,,2018_Jun_18_1531,59.6364480341,verb_norming,001,909,
STOMP,stampa,stiga,kliva,2,kliva,stampa,stiga,Leg,leg,0,5,5,86,0,0,0,0,,,,,,,,,,,,,7,4.016,,,,,,2018_Jun_18_1531,59.6364480341,verb_norming,001,909,
STOMP,stampa,stiga,kliva,2,kliva,stampa,stiga,Arm,arm,0,5,5,86,0,1,1,1,,,,,,,,,,,,,1,3.164,,,,,,2018_Jun_18_1531,59.6364480341,verb_norming,001,909,
STOMP,stampa,stiga,kliva,2,kliva,stampa,stiga,,,0,5,5,86,,,,,,,,,,,,,,,,,,,2,1,3.25398674883,,,2018_Jun_18_1531,59.6364480341,verb_norming,001,909,
STAB,sticka,hacka,skära,1,sticka,skära,hacka,Leg,leg,0,6,6,81,0,0,0,0,,,,,,,,,,,,,1,5.092,,,,,,2018_Jun_18_1531,59.6364480341,verb_norming,001,909,
STAB,sticka,hacka,skära,1,sticka,skära,hacka,Arm,arm,0,6,6,81,0,1,1,1,,,,,,,,,,,,,7,1.372,,,,,,2018_Jun_18_1531,59.6364480341,verb_norming,001,909,
STAB,sticka,hacka,skära,1,sticka,skära,hacka,,,0,6,6,81,,,,,,,,,,,,,,,,,,,1,1,4.7298852959,,,2018_Jun_18_1531,59.6364480341,verb_norming,001,909,
WANDER,vandra,marschera,spatsera,1,vandra,marschera,spatsera,Leg,leg,0,7,7,106,0,0,0,0,,,,,,,,,,,,,7,8.527,,,,,,2018_Jun_18_1531,59.6364480341,verb_norming,001,909,
WANDER,vandra,marschera,spatsera,1,vandra,marschera,spatsera,Arm,arm,0,7,7,106,0,1,1,1,,,,,,,,,,,,,1,4.22,,,,,,2018_Jun_18_1531,59.6364480341,verb_norming,001,909,
WANDER,vandra,marschera,spatsera,1,vandra,marschera,spatsera,,,0,7,7,106,,,,,,,,,,,,,,,,,,,1,1,2.75064788002,,,2018_Jun_18_1531,59.6364480341,verb_norming,001,909,
CRAWL,kravla,huka,klättra,2,klättra,kravla,huka,Leg,leg,0,8,8,14,0,0,0,0,,,,,,,,,,,,,7,3.783,,,,,,2018_Jun_18_1531,59.6364480341,verb_norming,001,909,
CRAWL,kravla,huka,klättra,2,klättra,kravla,huka,Arm,arm,0,8,8,14,0,1,1,1,,,,,,,,,,,,,1,1.572,,,,,,2018_Jun_18_1531,59.6364480341,verb_norming,001,909,
CRAWL,kravla,huka,klättra,2,klättra,kravla,huka,,,0,8,8,14,,,,,,,,,,,,,,,,,,,2,1,5.24962632564,,,2018_Jun_18_1531,59.6364480341,verb_norming,001,909,
SEIZE,fånga,klämma,fästa,1,fånga,fästa,klämma,Leg,leg,0,9,9,68,0,0,0,0,,,,,,,,,,,,,3,3.008,,,,,,2018_Jun_18_1531,59.6364480341,verb_norming,001,909,
SEIZE,fånga,klämma,fästa,1,fånga,fästa,klämma,Arm,arm,0,9,9,68,0,1,1,1,,,,,,,,,,,,,4,0.9,,,,,,2018_Jun_18_1531,59.6364480341,verb_norming,001,909,
SEIZE,fånga,klämma,fästa,1,fånga,fästa,klämma,,,0,9,9,68,,,,,,,,,,,,,,,,,,,1,1,4.83030264956,,,2018_Jun_18_1531,59.6364480341,verb_norming,001,909,
WIPE,torka,putsa,gnugga,2,putsa,torka,gnugga,Leg,leg,0,10,10,109,0,0,0,0,,,,,,,,,,,,,1,4.974,,,,,,2018_Jun_18_1531,59.6364480341,verb_norming,001,909,
WIPE,torka,putsa,gnugga,2,putsa,torka,gnugga,Arm,arm,0,10,10,109,0,1,1,1,,,,,,,,,,,,,7,0.768,,,,,,2018_Jun_18_1531,59.6364480341,verb_norming,001,909,
WIPE,torka,putsa,gnugga,2,putsa,torka,gnugga,,,0,10,10,109,,,,,,,,,,,,,,,,,,,2,1,5.38384644167,,,2018_Jun_18_1531,59.6364480341,verb_norming,001,909,
LIMP,halta,hasa,halka,3,hasa,halka,halta,Leg,leg,0,11,11,41,0,0,0,0,,,,,,,,,,,,,7,3.918,,,,,,2018_Jun_18_1531,59.6364480341,verb_norming,001,909,
LIMP,halta,hasa,halka,3,hasa,halka,halta,Arm,arm,0,11,11,41,0,1,1,1,,,,,,,,,,,,,1,1.438,,,,,,2018_Jun_18_1531,59.6364480341,verb_norming,001,909,
LIMP,halta,hasa,halka,3,hasa,halka,halta,,,0,11,11,41,,,,,,,,,,,,,,,,,,,3,1,2.88491975533,,,2018_Jun_18_1531,59.6364480341,verb_norming,001,909,
WRAP,slå in,slå ihop,slå till,3,slå ihop,slå till,slå in,Leg,leg,0,12,12,111,0,0,0,0,,,,,,,,,,,,,1,2.929,,,,,,2018_Jun_18_1531,59.6364480341,verb_norming,001,909,
WRAP,slå in,slå ihop,slå till,3,slå ihop,slå till,slå in,Arm,arm,0,12,12,111,0,1,1,1,,,,,,,,,,,,,7,2.277,,,,,,2018_Jun_18_1531,59.6364480341,verb_norming,001,909,
WRAP,slå in,slå ihop,slå till,3,slå ihop,slå till,slå in,,,0,12,12,111,,,,,,,,,,,,,,,,,,,3,1,5.23296655363,,,2018_Jun_18_1531,59.6364480341,verb_norming,001,909,
PULL,dra,slänga,släpa,3,släpa,slänga,dra,Leg,leg,0,13,13,54,0,0,0,0,,,,,,,,,,,,,1,6.131,,,,,,2018_Jun_18_1531,59.6364480341,verb_norming,001,909,
PULL,dra,slänga,släpa,3,släpa,slänga,dra,Arm,arm,0,13,13,54,0,1,1,1,,,,,,,,,,,,,7,2.998,,,,,,2018_Jun_18_1531,59.6364480341,verb_norming,001,909,
PULL,dra,slänga,släpa,3,släpa,slänga,dra,,,0,13,13,54,,,,,,,,,,,,,,,,,,,3,1,2.43212836934,,,2018_Jun_18_1531,59.6364480341,verb_norming,001,909,
HOP,skutta,kliva,studsa,2,kliva,skutta,studsa,Leg,leg,0,14,14,32,0,0,0,0,,,,,,,,,,,,,7,3.665,,,,,,2018_Jun_18_1531,59.6364480341,verb_norming,001,909,
HOP,skutta,kliva,studsa,2,kliva,skutta,studsa,Arm,arm,0,14,14,32,0,1,1,1,,,,,,,,,,,,,1,0.767,,,,,,2018_Jun_18_1531,59.6364480341,verb_norming,001,909,
HOP,skutta,kliva,studsa,2,kliva,skutta,studsa,,,0,14,14,32,,,,,,,,,,,,,,,,,,,3,0,4.0254726788,,,2018_Jun_18_1531,59.6364480341,verb_norming,001,909,
PACE,gå fram och tillbaka,luffa runt,rusa fram,1,gå fram och tillbaka,luffa runt,rusa fram,Leg,leg,0,15,15,45,0,0,0,0,,,,,,,,,,,,,7,3.599,,,,,,2018_Jun_18_1531,59.6364480341,verb_norming,001,909,
PACE,gå fram och tillbaka,luffa runt,rusa fram,1,gå fram och tillbaka,luffa runt,rusa fram,Arm,arm,0,15,15,45,0,1,1,1,,,,,,,,,,,,,1,1.17,,,,,,2018_Jun_18_1531,59.6364480341,verb_norming,001,909,
PACE,gå fram och tillbaka,luffa runt,rusa fram,1,gå fram och tillbaka,luffa runt,rusa fram,,,0,15,15,45,,,,,,,,,,,,,,,,,,,1,1,1.92974645459,,,2018_Jun_18_1531,59.6364480341,verb_norming,001,909,
RUB,gnugga,riva,klappa,3,riva,klappa,gnugga,Leg,leg,0,16,16,60,0,0,0,0,,,,,,,,,,,,,1,4.17,,,,,,2018_Jun_18_1531,59.6364480341,verb_norming,001,909,
RUB,gnugga,riva,klappa,3,riva,klappa,gnugga,Arm,arm,0,16,16,60,0,1,1,1,,,,,,,,,,,,,7,1.053,,,,,,2018_Jun_18_1531,59.6364480341,verb_norming,001,909,
RUB,gnugga,riva,klappa,3,riva,klappa,gnugga,,,0,16,16,60,,,,,,,,,,,,,,,,,,,3,1,5.08178559251,,,2018_Jun_18_1531,59.6364480341,verb_norming,001,909,
NIP,nypa,peta,nudda,1,nypa,peta,nudda,Leg,leg,0,17,17,44,0,0,0,0,,,,,,,,,,,,,1,5.292,,,,,,2018_Jun_18_1531,59.6364480341,verb_norming,001,909,
NIP,nypa,peta,nudda,1,nypa,peta,nudda,Arm,arm,0,17,17,44,0,1,1,1,,,,,,,,,,,,,7,0.882,,,,,,2018_Jun_18_1531,59.6364480341,verb_norming,001,909,
NIP,nypa,peta,nudda,1,nypa,peta,nudda,,,0,17,17,44,,,,,,,,,,,,,,,,,,,1,1,3.62284156879,,,2018_Jun_18_1531,59.6364480341,verb_norming,001,909,
KICK,sparka,knäa,tåa,3,tåa,knäa,sparka,Leg,leg,0,18,18,36,0,0,0,0,,,,,,,,,,,,,7,2.66,,,,,,2018_Jun_18_1531,59.6364480341,verb_norming,001,909,
KICK,sparka,knäa,tåa,3,tåa,knäa,sparka,Arm,arm,0,18,18,36,0,1,1,1,,,,,,,,,,,,,1,4.726,,,,,,2018_Jun_18_1531,59.6364480341,verb_norming,001,909,
KICK,sparka,knäa,tåa,3,tåa,knäa,sparka,,,0,18,18,36,,,,,,,,,,,,,,,,,,,3,1,6.72565565379,,,2018_Jun_18_1531,59.6364480341,verb_norming,001,909,
STEP,gå,klampa,traska,3,traska,klampa,gå,Leg,leg,0,19,19,84,0,0,0,0,,,,,,,,,,,,,7,2.978,,,,,,2018_Jun_18_1531,59.6364480341,verb_norming,001,909,
STEP,gå,klampa,traska,3,traska,klampa,gå,Arm,arm,0,19,19,84,0,1,1,1,,,,,,,,,,,,,1,1.153,,,,,,2018_Jun_18_1531,59.6364480341,verb_norming,001,909,
STEP,gå,klampa,traska,3,traska,klampa,gå,,,0,19,19,84,,,,,,,,,,,,,,,,,,,3,1,8.57034659359,,,2018_Jun_18_1531,59.6364480341,verb_norming,001,909,
BIND,binda,linda,vinda,2,linda,binda,vinda,Leg,leg,0,20,20,1,0,0,0,0,,,,,,,,,,,,,4,4.52,,,,,,2018_Jun_18_1531,59.6364480341,verb_norming,001,909,
BIND,binda,linda,vinda,2,linda,binda,vinda,Arm,arm,0,20,20,1,0,1,1,1,,,,,,,,,,,,,4,1.488,,,,,,2018_Jun_18_1531,59.6364480341,verb_norming,001,909,
BIND,binda,linda,vinda,2,linda,binda,vinda,,,0,20,20,1,,,,,,,,,,,,,,,,,,,2,1,2.46567431084,,,2018_Jun_18_1531,59.6364480341,verb_norming,001,909,
THROW,kasta,greppa,träffa,3,greppa,träffa,kasta,Leg,leg,0,21,21,94,0,0,0,0,,,,,,,,,,,,,1,4.468,,,,,,2018_Jun_18_1531,59.6364480341,verb_norming,001,909,
THROW,kasta,greppa,träffa,3,greppa,träffa,kasta,Arm,arm,0,21,21,94,0,1,1,1,,,,,,,,,,,,,7,1.235,,,,,,2018_Jun_18_1531,59.6364480341,verb_norming,001,909,
THROW,kasta,greppa,träffa,3,greppa,träffa,kasta,,,0,21,21,94,,,,,,,,,,,,,,,,,,,3,1,3.06937363761,,,2018_Jun_18_1531,59.6364480341,verb_norming,001,909,
SWITCH,slå på/av,knäppa,nypa,3,nypa,knäppa,slå på/av,Leg,leg,0,22,22,93,0,0,0,0,,,,,,,,,,,,,1,15.405,,,,,,2018_Jun_18_1531,59.6364480341,verb_norming,001,909,
SWITCH,slå på/av,knäppa,nypa,3,nypa,knäppa,slå på/av,Arm,arm,0,22,22,93,0,1,1,1,,,,,,,,,,,,,7,0.766,,,,,,2018_Jun_18_1531,59.6364480341,verb_norming,001,909,
SWITCH,slå på/av,knäppa,nypa,3,nypa,knäppa,slå på/av,,,0,22,22,93,,,,,,,,,,,,,,,,,,,3,1,3.27077611661,,,2018_Jun_18_1531,59.6364480341,verb_norming,001,909,
PAT,klappa,slå,borsta,1,klappa,borsta,slå,Leg,leg,0,23,23,46,0,0,0,0,,,,,,,,,,,,,1,3.565,,,,,,2018_Jun_18_1531,59.6364480341,verb_norming,001,909,
PAT,klappa,slå,borsta,1,klappa,borsta,slå,Arm,arm,0,23,23,46,0,1,1,1,,,,,,,,,,,,,7,1.154,,,,,,2018_Jun_18_1531,59.6364480341,verb_norming,001,909,
PAT,klappa,slå,borsta,1,klappa,borsta,slå,,,0,23,23,46,,,,,,,,,,,,,,,,,,,1,1,2.75079209482,,,2018_Jun_18_1531,59.6364480341,verb_norming,001,909,
POKE,peta,trycka,knuffa,3,knuffa,trycka,peta,Leg,leg,0,24,24,51,0,0,0,0,,,,,,,,,,,,,1,2.558,,,,,,2018_Jun_18_1531,59.6364480341,verb_norming,001,909,
POKE,peta,trycka,knuffa,3,knuffa,trycka,peta,Arm,arm,0,24,24,51,0,1,1,1,,,,,,,,,,,,,7,1.588,,,,,,2018_Jun_18_1531,59.6364480341,verb_norming,001,909,
POKE,peta,trycka,knuffa,3,knuffa,trycka,peta,,,0,24,24,51,,,,,,,,,,,,,,,,,,,3,1,2.02962053334,,,2018_Jun_18_1531,59.6364480341,verb_norming,001,909,
JUMP,hoppa,kliva,lyfta,2,lyfta,hoppa,kliva,Leg,leg,0,25,25,35,0,0,0,0,,,,,,,,,,,,,7,2.791,,,,,,2018_Jun_18_1531,59.6364480341,verb_norming,001,909,
JUMP,hoppa,kliva,lyfta,2,lyfta,hoppa,kliva,Arm,arm,0,25,25,35,0,1,1,1,,,,,,,,,,,,,1,0.666,,,,,,2018_Jun_18_1531,59.6364480341,verb_norming,001,909,
JUMP,hoppa,kliva,lyfta,2,lyfta,hoppa,kliva,,,0,25,25,35,,,,,,,,,,,,,,,,,,,2,1,1.29181725259,,,2018_Jun_18_1531,59.6364480341,verb_norming,001,909,
TRAIPSE,traska,stappla,vandra,1,traska,stappla,vandra,Leg,leg,0,26,26,97,0,0,0,0,,,,,,,,,,,,,3,2.441,,,,,,2018_Jun_18_1531,59.6364480341,verb_norming,001,909,
TRAIPSE,traska,stappla,vandra,1,traska,stappla,vandra,Arm,arm,0,26,26,97,0,1,1,1,,,,,,,,,,,,,4,0.934,,,,,,2018_Jun_18_1531,59.6364480341,verb_norming,001,909,
TRAIPSE,traska,stappla,vandra,1,traska,stappla,vandra,,,0,26,26,97,,,,,,,,,,,,,,,,,,,1,1,2.75081659158,,,2018_Jun_18_1531,59.6364480341,verb_norming,001,909,
GRATE,riva,hugga,rispa,2,hugga,riva,rispa,Leg,leg,0,27,27,28,0,0,0,0,,,,,,,,,,,,,5,4.216,,,,,,2018_Jun_18_1531,59.6364480341,verb_norming,001,909,
GRATE,riva,hugga,rispa,2,hugga,riva,rispa,Arm,arm,0,27,27,28,0,1,1,1,,,,,,,,,,,,,3,0.479,,,,,,2018_Jun_18_1531,59.6364480341,verb_norming,001,909,
GRATE,riva,hugga,rispa,2,hugga,riva,rispa,,,0,27,27,28,,,,,,,,,,,,,,,,,,,3,0,4.9141823199,,,2018_Jun_18_1531,59.6364480341,verb_norming,001,909,
BRUSH,borsta,skrubba,putsa,3,skrubba,putsa,borsta,Leg,leg,0,28,28,4,0,0,0,0,,,,,,,,,,,,,1,3.816,,,,,,2018_Jun_18_1531,59.6364480341,verb_norming,001,909,
BRUSH,borsta,skrubba,putsa,3,skrubba,putsa,borsta,Arm,arm,0,28,28,4,0,1,1,1,,,,,,,,,,,,,7,1.002,,,,,,2018_Jun_18_1531,59.6364480341,verb_norming,001,909,
BRUSH,borsta,skrubba,putsa,3,skrubba,putsa,borsta,,,0,28,28,4,,,,,,,,,,,,,,,,,,,3,1,2.66691558535,,,2018_Jun_18_1531,59.6364480341,verb_norming,001,909,
WASH,tvätta,skura,sopa,3,skura,sopa,tvätta,Leg,leg,0,29,29,107,0,0,0,0,,,,,,,,,,,,,1,2.945,,,,,,2018_Jun_18_1531,59.6364480341,verb_norming,001,909,
WASH,tvätta,skura,sopa,3,skura,sopa,tvätta,Arm,arm,0,29,29,107,0,1,1,1,,,,,,,,,,,,,7,1.388,,,,,,2018_Jun_18_1531,59.6364480341,verb_norming,001,909,
WASH,tvätta,skura,sopa,3,skura,sopa,tvätta,,,0,29,29,107,,,,,,,,,,,,,,,,,,,3,1,3.35452026455,,,2018_Jun_18_1531,59.6364480341,verb_norming,001,909,
DUNK,dunka,dumpa,dunsa,2,dumpa,dunka,dunsa,Leg,leg,0,30,30,20,0,0,0,0,,,,,,,,,,,,,1,3.429,,,,,,2018_Jun_18_1531,59.6364480341,verb_norming,001,909,
DUNK,dunka,dumpa,dunsa,2,dumpa,dunka,dunsa,Arm,arm,0,30,30,20,0,1,1,1,,,,,,,,,,,,,7,0.916,,,,,,2018_Jun_18_1531,59.6364480341,verb_norming,001,909,
DUNK,dunka,dumpa,dunsa,2,dumpa,dunka,dunsa,,,0,30,30,20,,,,,,,,,,,,,,,,,,,2,1,2.41549862561,,,2018_Jun_18_1531,59.6364480341,verb_norming,001,909,
DELVE,gräva,plöja,rensa,2,rensa,gräva,plöja,Leg,leg,0,31,31,18,0,0,0,0,,,,,,,,,,,,,3,2.756,,,,,,2018_Jun_18_1531,59.6364480341,verb_norming,001,909,
DELVE,gräva,plöja,rensa,2,rensa,gräva,plöja,Arm,arm,0,31,31,18,0,1,1,1,,,,,,,,,,,,,3,0.714,,,,,,2018_Jun_18_1531,59.6364480341,verb_norming,001,909,
DELVE,gräva,plöja,rensa,2,rensa,gräva,plöja,,,0,31,31,18,,,,,,,,,,,,,,,,,,,2,1,4.34405224606,,,2018_Jun_18_1531,59.6364480341,verb_norming,001,909,
SCOOP,skyffla,dika,skrapa,1,skyffla,skrapa,dika,Leg,leg,0,32,32,63,0,0,0,0,,,,,,,,,,,,,1,3.328,,,,,,2018_Jun_18_1531,59.6364480341,verb_norming,001,909,
SCOOP,skyffla,dika,skrapa,1,skyffla,skrapa,dika,Arm,arm,0,32,32,63,0,1,1,1,,,,,,,,,,,,,7,0.849,,,,,,2018_Jun_18_1531,59.6364480341,verb_norming,001,909,
SCOOP,skyffla,dika,skrapa,1,skyffla,skrapa,dika,,,0,32,32,63,,,,,,,,,,,,,,,,,,,2,0,5.11556148746,,,2018_Jun_18_1531,59.6364480341,verb_norming,001,909,
DIG,gräva,dränera,dika,2,dränera,gräva,dika,Leg,leg,0,33,33,19,0,0,0,0,,,,,,,,,,,,,1,2.826,,,,,,2018_Jun_18_1531,59.6364480341,verb_norming,001,909,
DIG,gräva,dränera,dika,2,dränera,gräva,dika,Arm,arm,0,33,33,19,0,1,1,1,,,,,,,,,,,,,7,0.631,,,,,,2018_Jun_18_1531,59.6364480341,verb_norming,001,909,
DIG,gräva,dränera,dika,2,dränera,gräva,dika,,,0,33,33,19,,,,,,,,,,,,,,,,,,,2,1,1.27492239071,,,2018_Jun_18_1531,59.6364480341,verb_norming,001,909,
CREEP,krypa,knäböja,klättra,3,knäböja,klättra,krypa,Leg,leg,0,34,34,15,0,0,0,0,,,,,,,,,,,,,3,2.322,,,,,,2018_Jun_18_1531,59.6364480341,verb_norming,001,909,
CREEP,krypa,knäböja,klättra,3,knäböja,klättra,krypa,Arm,arm,0,34,34,15,0,1,1,1,,,,,,,,,,,,,2,0.901,,,,,,2018_Jun_18_1531,59.6364480341,verb_norming,001,909,
CREEP,krypa,knäböja,klättra,3,knäböja,klättra,krypa,,,0,34,34,15,,,,,,,,,,,,,,,,,,,3,1,1.84521090327,,,2018_Jun_18_1531,59.6364480341,verb_norming,001,909,
PEEL,skala,rensa,plocka,2,rensa,skala,plocka,Leg,leg,0,35,35,47,0,0,0,0,,,,,,,,,,,,,1,3.632,,,,,,2018_Jun_18_1531,59.6364480341,verb_norming,001,909,
PEEL,skala,rensa,plocka,2,rensa,skala,plocka,Arm,arm,0,35,35,47,0,1,1,1,,,,,,,,,,,,,7,0.55,,,,,,2018_Jun_18_1531,59.6364480341,verb_norming,001,909,
PEEL,skala,rensa,plocka,2,rensa,skala,plocka,,,0,35,35,47,,,,,,,,,,,,,,,,,,,2,1,1.49294829169,,,2018_Jun_18_1531,59.6364480341,verb_norming,001,909,
STRIDE,kliva,tassa,lunka,1,kliva,tassa,lunka,Leg,leg,0,36,36,88,0,0,0,0,,,,,,,,,,,,,3,2.003,,,,,,2018_Jun_18_1531,59.6364480341,verb_norming,001,909,
STRIDE,kliva,tassa,lunka,1,kliva,tassa,lunka,Arm,arm,0,36,36,88,0,1,1,1,,,,,,,,,,,,,2,0.413,,,,,,2018_Jun_18_1531,59.6364480341,verb_norming,001,909,
STRIDE,kliva,tassa,lunka,1,kliva,tassa,lunka,,,0,36,36,88,,,,,,,,,,,,,,,,,,,3,0,2.36519373974,,,2018_Jun_18_1531,59.6364480341,verb_norming,001,909,
CATCH,fånga,krama,omfamna,1,fånga,omfamna,krama,Leg,leg,0,37,37,6,0,0,0,0,,,,,,,,,,,,,1,1.72,,,,,,2018_Jun_18_1531,59.6364480341,verb_norming,001,909,
CATCH,fånga,krama,omfamna,1,fånga,omfamna,krama,Arm,arm,0,37,37,6,0,1,1,1,,,,,,,,,,,,,7,0.666,,,,,,2018_Jun_18_1531,59.6364480341,verb_norming,001,909,
CATCH,fånga,krama,omfamna,1,fånga,omfamna,krama,,,0,37,37,6,,,,,,,,,,,,,,,,,,,1,1,1.7947791874,,,2018_Jun_18_1531,59.6364480341,verb_norming,001,909,
CLAP,klappa,knäppa,klämma,2,klämma,klappa,knäppa,Leg,leg,0,38,38,8,0,0,0,0,,,,,,,,,,,,,1,2.24,,,,,,2018_Jun_18_1531,59.6364480341,verb_norming,001,909,
CLAP,klappa,knäppa,klämma,2,klämma,klappa,knäppa,Arm,arm,0,38,38,8,0,1,1,1,,,,,,,,,,,,,7,0.784,,,,,,2018_Jun_18_1531,59.6364480341,verb_norming,001,909,
CLAP,klappa,knäppa,klämma,2,klämma,klappa,knäppa,,,0,38,38,8,,,,,,,,,,,,,,,,,,,2,1,2.54952553333,,,2018_Jun_18_1531,59.6364480341,verb_norming,001,909,
SKATE,åka skridskor,åka skidor,åka kälke,3,åka skidor,åka kälke,åka skridskor,Leg,leg,0,39,39,70,0,0,0,0,,,,,,,,,,,,,7,2.894,,,,,,2018_Jun_18_1531,59.6364480341,verb_norming,001,909,
SKATE,åka skridskor,åka skidor,åka kälke,3,åka skidor,åka kälke,åka skridskor,Arm,arm,0,39,39,70,0,1,1,1,,,,,,,,,,,,,1,0.533,,,,,,2018_Jun_18_1531,59.6364480341,verb_norming,001,909,
SKATE,åka skridskor,åka skidor,åka kälke,3,åka skidor,åka kälke,åka skridskor,,,0,39,39,70,,,,,,,,,,,,,,,,,,,3,1,7.53062588826,,,2018_Jun_18_1531,59.6364480341,verb_norming,001,909,
INCH,röra sig långsamt framåt,dra sig snabbt tillbaka,hasa sig bakåt,3,dra sig snabbt tillbaka,hasa sig bakåt,röra sig långsamt framåt,Leg,leg,0,40,40,33,0,0,0,0,,,,,,,,,,,,,7,3.933,,,,,,2018_Jun_18_1531,59.6364480341,verb_norming,001,909,
INCH,röra sig långsamt framåt,dra sig snabbt tillbaka,hasa sig bakåt,3,dra sig snabbt tillbaka,hasa sig bakåt,röra sig långsamt framåt,Arm,arm,0,40,40,33,0,1,1,1,,,,,,,,,,,,,1,0.414,,,,,,2018_Jun_18_1531,59.6364480341,verb_norming,001,909,
INCH,röra sig långsamt framåt,dra sig snabbt tillbaka,hasa sig bakåt,3,dra sig snabbt tillbaka,hasa sig bakåt,röra sig långsamt framåt,,,0,40,40,33,,,,,,,,,,,,,,,,,,,2,0,7.24531805684,,,2018_Jun_18_1531,59.6364480341,verb_norming,001,909,
SHAKE,skaka,röra,vispa,2,vispa,skaka,röra,Leg,leg,0,41,41,69,0,0,0,0,,,,,,,,,,,,,1,1.803,,,,,,2018_Jun_18_1531,59.6364480341,verb_norming,001,909,
SHAKE,skaka,röra,vispa,2,vispa,skaka,röra,Arm,arm,0,41,41,69,0,1,1,1,,,,,,,,,,,,,7,0.7,,,,,,2018_Jun_18_1531,59.6364480341,verb_norming,001,909,
SHAKE,skaka,röra,vispa,2,vispa,skaka,röra,,,0,41,41,69,,,,,,,,,,,,,,,,,,,2,1,1.39234879276,,,2018_Jun_18_1531,59.6364480341,verb_norming,001,909,
SLIDE,glida,ramla,hasa,2,ramla,glida,hasa,Leg,leg,0,42,42,74,0,0,0,0,,,,,,,,,,,,,7,4.0,,,,,,2018_Jun_18_1531,59.6364480341,verb_norming,001,909,
SLIDE,glida,ramla,hasa,2,ramla,glida,hasa,Arm,arm,0,42,42,74,0,1,1,1,,,,,,,,,,,,,3,1.486,,,,,,2018_Jun_18_1531,59.6364480341,verb_norming,001,909,
SLIDE,glida,ramla,hasa,2,ramla,glida,hasa,,,0,42,42,74,,,,,,,,,,,,,,,,,,,2,1,2.26518887989,,,2018_Jun_18_1531,59.6364480341,verb_norming,001,909,
STAMP,stampa,kliva,skutta,3,kliva,skutta,stampa,Leg,leg,0,43,43,83,0,0,0,0,,,,,,,,,,,,,7,2.19,,,,,,2018_Jun_18_1531,59.6364480341,verb_norming,001,909,
STAMP,stampa,kliva,skutta,3,kliva,skutta,stampa,Arm,arm,0,43,43,83,0,1,1,1,,,,,,,,,,,,,1,1.001,,,,,,2018_Jun_18_1531,59.6364480341,verb_norming,001,909,
STAMP,stampa,kliva,skutta,3,kliva,skutta,stampa,,,0,43,43,83,,,,,,,,,,,,,,,,,,,3,1,1.74453119722,,,2018_Jun_18_1531,59.6364480341,verb_norming,001,909,
SWAY,vingla,tassa,ramla,3,ramla,tassa,vingla,Leg,leg,0,44,44,92,0,0,0,0,,,,,,,,,,,,,4,2.14,,,,,,2018_Jun_18_1531,59.6364480341,verb_norming,001,909,
SWAY,vingla,tassa,ramla,3,ramla,tassa,vingla,Arm,arm,0,44,44,92,0,1,1,1,,,,,,,,,,,,,3,0.483,,,,,,2018_Jun_18_1531,59.6364480341,verb_norming,001,909,
SWAY,vingla,tassa,ramla,3,ramla,tassa,vingla,,,0,44,44,92,,,,,,,,,,,,,,,,,,,3,1,2.14678339767,,,2018_Jun_18_1531,59.6364480341,verb_norming,001,909,
BOUNCE,studsa,dunka,kasta,1,studsa,kasta,dunka,Leg,leg,0,45,45,2,0,0,0,0,,,,,,,,,,,,,7,3.562,,,,,,2018_Jun_18_1531,59.6364480341,verb_norming,001,909,
BOUNCE,studsa,dunka,kasta,1,studsa,kasta,dunka,Arm,arm,0,45,45,2,0,1,1,1,,,,,,,,,,,,,2,0.479,,,,,,2018_Jun_18_1531,59.6364480341,verb_norming,001,909,
BOUNCE,studsa,dunka,kasta,1,studsa,kasta,dunka,,,0,45,45,2,,,,,,,,,,,,,,,,,,,1,1,3.79079609332,,,2018_Jun_18_1531,59.6364480341,verb_norming,001,909,
SCRAPE,skrapa,rispa,klösa,2,rispa,skrapa,klösa,Leg,leg,0,46,46,64,0,0,0,0,,,,,,,,,,,,,1,3.934,,,,,,2018_Jun_18_1531,59.6364480341,verb_norming,001,909,
SCRAPE,skrapa,rispa,klösa,2,rispa,skrapa,klösa,Arm,arm,0,46,46,64,0,1,1,1,,,,,,,,,,,,,7,0.951,,,,,,2018_Jun_18_1531,59.6364480341,verb_norming,001,909,
SCRAPE,skrapa,rispa,klösa,2,rispa,skrapa,klösa,,,0,46,46,64,,,,,,,,,,,,,,,,,,,2,1,1.91202304908,,,2018_Jun_18_1531,59.6364480341,verb_norming,001,909,
PLOD,lunka,pulsa,vingla,2,pulsa,lunka,vingla,Leg,leg,0,47,47,49,0,0,0,0,,,,,,,,,,,,,3,2.608,,,,,,2018_Jun_18_1531,59.6364480341,verb_norming,001,909,
PLOD,lunka,pulsa,vingla,2,pulsa,lunka,vingla,Arm,arm,0,47,47,49,0,1,1,1,,,,,,,,,,,,,2,0.414,,,,,,2018_Jun_18_1531,59.6364480341,verb_norming,001,909,
PLOD,lunka,pulsa,vingla,2,pulsa,lunka,vingla,,,0,47,47,49,,,,,,,,,,,,,,,,,,,1,0,3.01921889317,,,2018_Jun_18_1531,59.6364480341,verb_norming,001,909,
BRAID,fläta,knyta,binda,2,knyta,fläta,binda,Leg,leg,0,48,48,3,0,0,0,0,,,,,,,,,,,,,1,2.239,,,,,,2018_Jun_18_1531,59.6364480341,verb_norming,001,909,
BRAID,fläta,knyta,binda,2,knyta,fläta,binda,Arm,arm,0,48,48,3,0,1,1,1,,,,,,,,,,,,,7,0.614,,,,,,2018_Jun_18_1531,59.6364480341,verb_norming,001,909,
BRAID,fläta,knyta,binda,2,knyta,fläta,binda,,,0,48,48,3,,,,,,,,,,,,,,,,,,,3,0,2.02958576375,,,2018_Jun_18_1531,59.6364480341,verb_norming,001,909,
LEAP,hoppa,stega,kliva,3,kliva,stega,hoppa,Leg,leg,0,49,49,39,0,0,0,0,,,,,,,,,,,,,1,10.643,,,,,,2018_Jun_18_1531,59.6364480341,verb_norming,001,909,
LEAP,hoppa,stega,kliva,3,kliva,stega,hoppa,Arm,arm,0,49,49,39,0,1,1,1,,,,,,,,,,,,,1,9.253,,,,,,2018_Jun_18_1531,59.6364480341,verb_norming,001,909,
LEAP,hoppa,stega,kliva,3,kliva,stega,hoppa,,,0,49,49,39,,,,,,,,,,,,,,,,,,,1,0,4.99807858481,,,2018_Jun_18_1531,59.6364480341,verb_norming,001,909,
HIKE,vandra,flanera,lunka,1,vandra,flanera,lunka,Leg,leg,0,50,50,31,0,0,0,0,,,,,,,,,,,,,7,2.643,,,,,,2018_Jun_18_1531,59.6364480341,verb_norming,001,909,
HIKE,vandra,flanera,lunka,1,vandra,flanera,lunka,Arm,arm,0,50,50,31,0,1,1,1,,,,,,,,,,,,,1,0.516,,,,,,2018_Jun_18_1531,59.6364480341,verb_norming,001,909,
HIKE,vandra,flanera,lunka,1,vandra,flanera,lunka,,,0,50,50,31,,,,,,,,,,,,,,,,,,,1,1,1.71107020416,,,2018_Jun_18_1531,59.6364480341,verb_norming,001,909,
SCRATCH,repa,riva,klösa,1,repa,klösa,riva,Leg,leg,0,51,51,65,0,0,0,0,,,,,,,,,,,,,1,3.849,,,,,,2018_Jun_18_1531,59.6364480341,verb_norming,001,909,
SCRATCH,repa,riva,klösa,1,repa,klösa,riva,Arm,arm,0,51,51,65,0,1,1,1,,,,,,,,,,,,,7,0.749,,,,,,2018_Jun_18_1531,59.6364480341,verb_norming,001,909,
SCRATCH,repa,riva,klösa,1,repa,klösa,riva,,,0,51,51,65,,,,,,,,,,,,,,,,,,,2,0,4.76333522591,,,2018_Jun_18_1531,59.6364480341,verb_norming,001,909,
STRUT,svassa,lunka,strosa,3,lunka,strosa,svassa,Leg,leg,0,52,52,90,0,0,0,0,,,,,,,,,,,,,7,3.163,,,,,,2018_Jun_18_1531,59.6364480341,verb_norming,001,909,
STRUT,svassa,lunka,strosa,3,lunka,strosa,svassa,Arm,arm,0,52,52,90,0,1,1,1,,,,,,,,,,,,,1,0.632,,,,,,2018_Jun_18_1531,59.6364480341,verb_norming,001,909,
STRUT,svassa,lunka,strosa,3,lunka,strosa,svassa,,,0,52,52,90,,,,,,,,,,,,,,,,,,,1,0,1.47618539622,,,2018_Jun_18_1531,59.6364480341,verb_norming,001,909,
GLIDE,glida,hasa,snava,3,snava,hasa,glida,Leg,leg,0,53,53,25,0,0,0,0,,,,,,,,,,,,,7,2.439,,,,,,2018_Jun_18_1531,59.6364480341,verb_norming,001,909,
GLIDE,glida,hasa,snava,3,snava,hasa,glida,Arm,arm,0,53,53,25,0,1,1,1,,,,,,,,,,,,,1,0.43,,,,,,2018_Jun_18_1531,59.6364480341,verb_norming,001,909,
GLIDE,glida,hasa,snava,3,snava,hasa,glida,,,0,53,53,25,,,,,,,,,,,,,,,,,,,3,1,1.59358809173,,,2018_Jun_18_1531,59.6364480341,verb_norming,001,909,
HACK,hacka,skära,kåpa,2,kåpa,hacka,skära,Leg,leg,0,54,54,30,0,0,0,0,,,,,,,,,,,,,4,4.033,,,,,,2018_Jun_18_1531,59.6364480341,verb_norming,001,909,
HACK,hacka,skära,kåpa,2,kåpa,hacka,skära,Arm,arm,0,54,54,30,0,1,1,1,,,,,,,,,,,,,3,0.516,,,,,,2018_Jun_18_1531,59.6364480341,verb_norming,001,909,
HACK,hacka,skära,kåpa,2,kåpa,hacka,skära,,,0,54,54,30,,,,,,,,,,,,,,,,,,,1,0,2.98571127724,,,2018_Jun_18_1531,59.6364480341,verb_norming,001,909,
JOG,jogga,spurta,rusa,1,jogga,rusa,spurta,Leg,leg,0,55,55,34,0,0,0,0,,,,,,,,,,,,,7,2.492,,,,,,2018_Jun_18_1531,59.6364480341,verb_norming,001,909,
JOG,jogga,spurta,rusa,1,jogga,rusa,spurta,Arm,arm,0,55,55,34,0,1,1,1,,,,,,,,,,,,,1,1.136,,,,,,2018_Jun_18_1531,59.6364480341,verb_norming,001,909,
JOG,jogga,spurta,rusa,1,jogga,rusa,spurta,,,0,55,55,34,,,,,,,,,,,,,,,,,,,1,1,0.92274354224,,,2018_Jun_18_1531,59.6364480341,verb_norming,001,909,
SQUEEZE,klämma,knuffa,knäppa,1,klämma,knäppa,knuffa,Leg,leg,0,56,56,80,0,0,0,0,,,,,,,,,,,,,1,3.308,,,,,,2018_Jun_18_1531,59.6364480341,verb_norming,001,909,
SQUEEZE,klämma,knuffa,knäppa,1,klämma,knäppa,knuffa,Arm,arm,0,56,56,80,0,1,1,1,,,,,,,,,,,,,7,0.528,,,,,,2018_Jun_18_1531,59.6364480341,verb_norming,001,909,
SQUEEZE,klämma,knuffa,knäppa,1,klämma,knäppa,knuffa,,,0,56,56,80,,,,,,,,,,,,,,,,,,,1,1,0.98981092848,,,2018_Jun_18_1531,59.6364480341,verb_norming,001,909,
CLAW,klösa,nypa,rispa,2,nypa,klösa,rispa,Leg,leg,0,57,57,9,0,0,0,0,,,,,,,,,,,,,3,2.291,,,,,,2018_Jun_18_1531,59.6364480341,verb_norming,001,909,
CLAW,klösa,nypa,rispa,2,nypa,klösa,rispa,Arm,arm,0,57,57,9,0,1,1,1,,,,,,,,,,,,,3,0.817,,,,,,2018_Jun_18_1531,59.6364480341,verb_norming,001,909,
CLAW,klösa,nypa,rispa,2,nypa,klösa,rispa,,,0,57,57,9,,,,,,,,,,,,,,,,,,,1,0,2.91855894256,,,2018_Jun_18_1531,59.6364480341,verb_norming,001,909,
STAGGER,ragla,lunka,halka,1,ragla,lunka,halka,Leg,leg,0,58,58,82,0,0,0,0,,,,,,,,,,,,,3,2.723,,,,,,2018_Jun_18_1531,59.6364480341,verb_norming,001,909,
STAGGER,ragla,lunka,halka,1,ragla,lunka,halka,Arm,arm,0,58,58,82,0,1,1,1,,,,,,,,,,,,,2,0.882,,,,,,2018_Jun_18_1531,59.6364480341,verb_norming,001,909,
STAGGER,ragla,lunka,halka,1,ragla,lunka,halka,,,0,58,58,82,,,,,,,,,,,,,,,,,,,3,0,2.31460516557,,,2018_Jun_18_1531,59.6364480341,verb_norming,001,909,
TWINE,tvinna,binda,knyta,1,tvinna,knyta,binda,Leg,leg,0,59,59,103,0,0,0,0,,,,,,,,,,,,,2,1.718,,,,,,2018_Jun_18_1531,59.6364480341,verb_norming,001,909,
TWINE,tvinna,binda,knyta,1,tvinna,knyta,binda,Arm,arm,0,59,59,103,0,1,1,1,,,,,,,,,,,,,4,0.497,,,,,,2018_Jun_18_1531,59.6364480341,verb_norming,001,909,
TWINE,tvinna,binda,knyta,1,tvinna,knyta,binda,,,0,59,59,103,,,,,,,,,,,,,,,,,,,1,1,1.07369217925,,,2018_Jun_18_1531,59.6364480341,verb_norming,001,909,
SCUFF,hasa sig fram,dra sig fram,kasta sig fram,3,dra sig fram,kasta sig fram,hasa sig fram,Leg,leg,0,60,60,67,0,0,0,0,,,,,,,,,,,,,4,2.576,,,,,,2018_Jun_18_1531,59.6364480341,verb_norming,001,909,
SCUFF,hasa sig fram,dra sig fram,kasta sig fram,3,dra sig fram,kasta sig fram,hasa sig fram,Arm,arm,0,60,60,67,0,1,1,1,,,,,,,,,,,,,2,0.464,,,,,,2018_Jun_18_1531,59.6364480341,verb_norming,001,909,
SCUFF,hasa sig fram,dra sig fram,kasta sig fram,3,dra sig fram,kasta sig fram,hasa sig fram,,,0,60,60,67,,,,,,,,,,,,,,,,,,,2,0,3.15329597973,,,2018_Jun_18_1531,59.6364480341,verb_norming,001,909,
CLUTCH,gripa tag i,sätta ihop,dra ut,2,dra ut,gripa tag i,sätta ihop,Leg,leg,0,61,61,13,0,0,0,0,,,,,,,,,,,,,1,2.793,,,,,,2018_Jun_18_1531,59.6364480341,verb_norming,001,909,
CLUTCH,gripa tag i,sätta ihop,dra ut,2,dra ut,gripa tag i,sätta ihop,Arm,arm,0,61,61,13,0,1,1,1,,,,,,,,,,,,,7,0.85,,,,,,2018_Jun_18_1531,59.6364480341,verb_norming,001,909,
CLUTCH,gripa tag i,sätta ihop,dra ut,2,dra ut,gripa tag i,sätta ihop,,,0,61,61,13,,,,,,,,,,,,,,,,,,,2,1,2.68368361724,,,2018_Jun_18_1531,59.6364480341,verb_norming,001,909,
GRAB,gripa tag i,fästa ihop,smälla till,1,gripa tag i,smälla till,fästa ihop,Leg,leg,0,62,62,26,0,0,0,0,,,,,,,,,,,,,1,2.022,,,,,,2018_Jun_18_1531,59.6364480341,verb_norming,001,909,
GRAB,gripa tag i,fästa ihop,smälla till,1,gripa tag i,smälla till,fästa ihop,Arm,arm,0,62,62,26,0,1,1,1,,,,,,,,,,,,,7,1.303,,,,,,2018_Jun_18_1531,59.6364480341,verb_norming,001,909,
GRAB,gripa tag i,fästa ihop,smälla till,1,gripa tag i,smälla till,fästa ihop,,,0,62,62,26,,,,,,,,,,,,,,,,,,,1,1,1.44277932331,,,2018_Jun_18_1531,59.6364480341,verb_norming,001,909,
TIPTOE,gå på tå,snava,sparka,3,sparka,snava,gå på tå,Leg,leg,0,63,63,95,0,0,0,0,,,,,,,,,,,,,7,2.824,,,,,,2018_Jun_18_1531,59.6364480341,verb_norming,001,909,
TIPTOE,gå på tå,snava,sparka,3,sparka,snava,gå på tå,Arm,arm,0,63,63,95,0,1,1,1,,,,,,,,,,,,,1,0.474,,,,,,2018_Jun_18_1531,59.6364480341,verb_norming,001,909,
TIPTOE,gå på tå,snava,sparka,3,sparka,snava,gå på tå,,,0,63,63,95,,,,,,,,,,,,,,,,,,,3,1,1.92890526748,,,2018_Jun_18_1531,59.6364480341,verb_norming,001,909,
SNATCH,rycka till sig,knuffa ifrån sig,plocka åt sig,2,plocka åt sig,rycka till sig,knuffa ifrån sig,Leg,leg,0,64,64,77,0,0,0,0,,,,,,,,,,,,,1,2.349,,,,,,2018_Jun_18_1531,59.6364480341,verb_norming,001,909,
SNATCH,rycka till sig,knuffa ifrån sig,plocka åt sig,2,plocka åt sig,rycka till sig,knuffa ifrån sig,Arm,arm,0,64,64,77,0,1,1,1,,,,,,,,,,,,,7,1.364,,,,,,2018_Jun_18_1531,59.6364480341,verb_norming,001,909,
SNATCH,rycka till sig,knuffa ifrån sig,plocka åt sig,2,plocka åt sig,rycka till sig,knuffa ifrån sig,,,0,64,64,77,,,,,,,,,,,,,,,,,,,1,0,5.19925111036,,,2018_Jun_18_1531,59.6364480341,verb_norming,001,909,
WALK,gå,promenera,marschera,2,marschera,gå,promenera,Leg,leg,0,65,65,105,0,0,0,0,,,,,,,,,,,,,7,9.401,,,,,,2018_Jun_18_1531,59.6364480341,verb_norming,001,909,
WALK,gå,promenera,marschera,2,marschera,gå,promenera,Arm,arm,0,65,65,105,0,1,1,1,,,,,,,,,,,,,1,0.856,,,,,,2018_Jun_18_1531,59.6364480341,verb_norming,001,909,
WALK,gå,promenera,marschera,2,marschera,gå,promenera,,,0,65,65,105,,,,,,,,,,,,,,,,,,,2,1,1.47506486702,,,2018_Jun_18_1531,59.6364480341,verb_norming,001,909,
CARVE,tälja,hacka,riva,3,riva,hacka,tälja,Leg,leg,0,66,66,5,0,0,0,0,,,,,,,,,,,,,1,3.177,,,,,,2018_Jun_18_1531,59.6364480341,verb_norming,001,909,
CARVE,tälja,hacka,riva,3,riva,hacka,tälja,Arm,arm,0,66,66,5,0,1,1,1,,,,,,,,,,,,,7,0.592,,,,,,2018_Jun_18_1531,59.6364480341,verb_norming,001,909,
CARVE,tälja,hacka,riva,3,riva,hacka,tälja,,,0,66,66,5,,,,,,,,,,,,,,,,,,,3,1,5.72044811685,,,2018_Jun_18_1531,59.6364480341,verb_norming,001,909,
BASH,slå,knuffa,trycka,2,trycka,slå,knuffa,Leg,leg,0,67,67,0,0,0,0,0,,,,,,,,,,,,,1,2.24,,,,,,2018_Jun_18_1531,59.6364480341,verb_norming,001,909,
BASH,slå,knuffa,trycka,2,trycka,slå,knuffa,Arm,arm,0,67,67,0,0,1,1,1,,,,,,,,,,,,,7,0.902,,,,,,2018_Jun_18_1531,59.6364480341,verb_norming,001,909,
BASH,slå,knuffa,trycka,2,trycka,slå,knuffa,,,0,67,67,0,,,,,,,,,,,,,,,,,,,2,1,1.54326621616,,,2018_Jun_18_1531,59.6364480341,verb_norming,001,909,
ROLL,vingla,snubbla,svassa,1,vingla,svassa,snubbla,Leg,leg,0,68,68,59,0,0,0,0,,,,,,,,,,,,,4,3.311,,,,,,2018_Jun_18_1531,59.6364480341,verb_norming,001,909,
ROLL,vingla,snubbla,svassa,1,vingla,svassa,snubbla,Arm,arm,0,68,68,59,0,1,1,1,,,,,,,,,,,,,2,1.202,,,,,,2018_Jun_18_1531,59.6364480341,verb_norming,001,909,
ROLL,vingla,snubbla,svassa,1,vingla,svassa,snubbla,,,0,68,68,59,,,,,,,,,,,,,,,,,,,3,0,4.86411805542,,,2018_Jun_18_1531,59.6364480341,verb_norming,001,909,
SNEAK,smyga,hasa,glida,3,hasa,glida,smyga,Leg,leg,0,69,69,78,0,0,0,0,,,,,,,,,,,,,6,6.784,,,,,,2018_Jun_18_1531,59.6364480341,verb_norming,001,909,
SNEAK,smyga,hasa,glida,3,hasa,glida,smyga,Arm,arm,0,69,69,78,0,1,1,1,,,,,,,,,,,,,4,0.531,,,,,,2018_Jun_18_1531,59.6364480341,verb_norming,001,909,
SNEAK,smyga,hasa,glida,3,hasa,glida,smyga,,,0,69,69,78,,,,,,,,,,,,,,,,,,,3,1,1.97909675706,,,2018_Jun_18_1531,59.6364480341,verb_norming,001,909,
SKIM,skumma,vispa,sleva,3,sleva,vispa,skumma,Leg,leg,0,70,70,71,0,0,0,0,,,,,,,,,,,,,4,6.383,,,,,,2018_Jun_18_1531,59.6364480341,verb_norming,001,909,
SKIM,skumma,vispa,sleva,3,sleva,vispa,skumma,Arm,arm,0,70,70,71,0,1,1,1,,,,,,,,,,,,,3,0.482,,,,,,2018_Jun_18_1531,59.6364480341,verb_norming,001,909,
SKIM,skumma,vispa,sleva,3,sleva,vispa,skumma,,,0,70,70,71,,,,,,,,,,,,,,,,,,,3,1,2.54952948442,,,2018_Jun_18_1531,59.6364480341,verb_norming,001,909,
WADE,vada,pulsa,plöja,1,vada,pulsa,plöja,Leg,leg,0,71,71,104,0,0,0,0,,,,,,,,,,,,,2,1.786,,,,,,2018_Jun_18_1531,59.6364480341,verb_norming,001,909,
WADE,vada,pulsa,plöja,1,vada,pulsa,plöja,Arm,arm,0,71,71,104,0,1,1,1,,,,,,,,,,,,,4,0.833,,,,,,2018_Jun_18_1531,59.6364480341,verb_norming,001,909,
WADE,vada,pulsa,plöja,1,vada,pulsa,plöja,,,0,71,71,104,,,,,,,,,,,,,,,,,,,2,0,1.0903709165,,,2018_Jun_18_1531,59.6364480341,verb_norming,001,909,
ROAM,ströva omkring,ta sig fram,luffa runt,1,ströva omkring,ta sig fram,luffa runt,Leg,leg,0,72,72,58,0,0,0,0,,,,,,,,,,,,,7,2.288,,,,,,2018_Jun_18_1531,59.6364480341,verb_norming,001,909,
ROAM,ströva omkring,ta sig fram,luffa runt,1,ströva omkring,ta sig fram,luffa runt,Arm,arm,0,72,72,58,0,1,1,1,,,,,,,,,,,,,1,0.765,,,,,,2018_Jun_18_1531,59.6364480341,verb_norming,001,909,
ROAM,ströva omkring,ta sig fram,luffa runt,1,ströva omkring,ta sig fram,luffa runt,,,0,72,72,58,,,,,,,,,,,,,,,,,,,1,1,4.54525796076,,,2018_Jun_18_1531,59.6364480341,verb_norming,001,909,
SCRUB,skrubba,sopa,skrapa,1,skrubba,skrapa,sopa,Leg,leg,0,73,73,66,0,0,0,0,,,,,,,,,,,,,1,2.475,,,,,,2018_Jun_18_1531,59.6364480341,verb_norming,001,909,
SCRUB,skrubba,sopa,skrapa,1,skrubba,skrapa,sopa,Arm,arm,0,73,73,66,0,1,1,1,,,,,,,,,,,,,7,0.497,,,,,,2018_Jun_18_1531,59.6364480341,verb_norming,001,909,
SCRUB,skrubba,sopa,skrapa,1,skrubba,skrapa,sopa,,,0,73,73,66,,,,,,,,,,,,,,,,,,,1,1,1.61036797689,,,2018_Jun_18_1531,59.6364480341,verb_norming,001,909,
SLITHER,hasa,glida,trilla,2,trilla,hasa,glida,Leg,leg,0,74,74,76,0,0,0,0,,,,,,,,,,,,,3,2.927,,,,,,2018_Jun_18_1531,59.6364480341,verb_norming,001,909,
SLITHER,hasa,glida,trilla,2,trilla,hasa,glida,Arm,arm,0,74,74,76,0,1,1,1,,,,,,,,,,,,,7,0.934,,,,,,2018_Jun_18_1531,59.6364480341,verb_norming,001,909,
SLITHER,hasa,glida,trilla,2,trilla,hasa,glida,,,0,74,74,76,,,,,,,,,,,,,,,,,,,1,0,3.75708578647,,,2018_Jun_18_1531,59.6364480341,verb_norming,001,909,
MARCH,marschera,trava,traska,2,traska,marschera,trava,Leg,leg,0,75,75,42,0,0,0,0,,,,,,,,,,,,,7,2.089,,,,,,2018_Jun_18_1531,59.6364480341,verb_norming,001,909,
MARCH,marschera,trava,traska,2,traska,marschera,trava,Arm,arm,0,75,75,42,0,1,1,1,,,,,,,,,,,,,1,0.448,,,,,,2018_Jun_18_1531,59.6364480341,verb_norming,001,909,
MARCH,marschera,trava,traska,2,traska,marschera,trava,,,0,75,75,42,,,,,,,,,,,,,,,,,,,2,1,1.27496703803,,,2018_Jun_18_1531,59.6364480341,verb_norming,001,909,
TROT,trava,promenera,flanera,2,promenera,trava,flanera,Leg,leg,0,76,76,100,0,0,0,0,,,,,,,,,,,,,3,1.685,,,,,,2018_Jun_18_1531,59.6364480341,verb_norming,001,909,
TROT,trava,promenera,flanera,2,promenera,trava,flanera,Arm,arm,0,76,76,100,0,1,1,1,,,,,,,,,,,,,2,0.648,,,,,,2018_Jun_18_1531,59.6364480341,verb_norming,001,909,
TROT,trava,promenera,flanera,2,promenera,trava,flanera,,,0,76,76,100,,,,,,,,,,,,,,,,,,,2,1,1.56012591335,,,2018_Jun_18_1531,59.6364480341,verb_norming,001,909,
STRAY,ströva,vandra,promenera,1,ströva,vandra,promenera,Leg,leg,0,77,77,87,0,0,0,0,,,,,,,,,,,,,5,4.269,,,,,,2018_Jun_18_1531,59.6364480341,verb_norming,001,909,
STRAY,ströva,vandra,promenera,1,ströva,vandra,promenera,Arm,arm,0,77,77,87,0,1,1,1,,,,,,,,,,,,,2,0.532,,,,,,2018_Jun_18_1531,59.6364480341,verb_norming,001,909,
STRAY,ströva,vandra,promenera,1,ströva,vandra,promenera,,,0,77,77,87,,,,,,,,,,,,,,,,,,,2,0,2.58304460741,,,2018_Jun_18_1531,59.6364480341,verb_norming,001,909,
FLEE,fly,lyfta,flyga,1,fly,flyga,lyfta,Leg,leg,0,78,78,22,0,0,0,0,,,,,,,,,,,,,7,2.811,,,,,,2018_Jun_18_1531,59.6364480341,verb_norming,001,909,
FLEE,fly,lyfta,flyga,1,fly,flyga,lyfta,Arm,arm,0,78,78,22,0,1,1,1,,,,,,,,,,,,,1,1.203,,,,,,2018_Jun_18_1531,59.6364480341,verb_norming,001,909,
FLEE,fly,lyfta,flyga,1,fly,flyga,lyfta,,,0,78,78,22,,,,,,,,,,,,,,,,,,,1,1,2.01280903946,,,2018_Jun_18_1531,59.6364480341,verb_norming,001,909,
STIR,röra,sleva,vispa,2,vispa,röra,sleva,Leg,leg,0,79,79,85,0,0,0,0,,,,,,,,,,,,,1,2.542,,,,,,2018_Jun_18_1531,59.6364480341,verb_norming,001,909,
STIR,röra,sleva,vispa,2,vispa,röra,sleva,Arm,arm,0,79,79,85,0,1,1,1,,,,,,,,,,,,,7,0.533,,,,,,2018_Jun_18_1531,59.6364480341,verb_norming,001,909,
STIR,röra,sleva,vispa,2,vispa,röra,sleva,,,0,79,79,85,,,,,,,,,,,,,,,,,,,1,0,2.43208332692,,,2018_Jun_18_1531,59.6364480341,verb_norming,001,909,
LIFT,lyfta,pressa,öka,2,öka,lyfta,pressa,Leg,leg,0,80,80,40,0,0,0,0,,,,,,,,,,,,,1,4.069,,,,,,2018_Jun_18_1531,59.6364480341,verb_norming,001,909,
LIFT,lyfta,pressa,öka,2,öka,lyfta,pressa,Arm,arm,0,80,80,40,0,1,1,1,,,,,,,,,,,,,7,0.835,,,,,,2018_Jun_18_1531,59.6364480341,verb_norming,001,909,
LIFT,lyfta,pressa,öka,2,öka,lyfta,pressa,,,0,80,80,40,,,,,,,,,,,,,,,,,,,2,1,1.39228201934,,,2018_Jun_18_1531,59.6364480341,verb_norming,001,909,
PINCH,nypa,plocka,pensla,3,plocka,pensla,nypa,Leg,leg,0,81,81,48,0,0,0,0,,,,,,,,,,,,,1,1.417,,,,,,2018_Jun_18_1531,59.6364480341,verb_norming,001,909,
PINCH,nypa,plocka,pensla,3,plocka,pensla,nypa,Arm,arm,0,81,81,48,0,1,1,1,,,,,,,,,,,,,7,0.799,,,,,,2018_Jun_18_1531,59.6364480341,verb_norming,001,909,
PINCH,nypa,plocka,pensla,3,plocka,pensla,nypa,,,0,81,81,48,,,,,,,,,,,,,,,,,,,3,1,1.91233755586,,,2018_Jun_18_1531,59.6364480341,verb_norming,001,909,
STROLL,strosa,trava,marschera,2,marschera,strosa,trava,Leg,leg,0,82,82,89,0,0,0,0,,,,,,,,,,,,,7,4.921,,,,,,2018_Jun_18_1531,59.6364480341,verb_norming,001,909,
STROLL,strosa,trava,marschera,2,marschera,strosa,trava,Arm,arm,0,82,82,89,0,1,1,1,,,,,,,,,,,,,1,1.1,,,,,,2018_Jun_18_1531,59.6364480341,verb_norming,001,909,
STROLL,strosa,trava,marschera,2,marschera,strosa,trava,,,0,82,82,89,,,,,,,,,,,,,,,,,,,2,1,1.74458809292,,,2018_Jun_18_1531,59.6364480341,verb_norming,001,909,
SPRINT,spurta,springa,löpa,3,springa,löpa,spurta,Leg,leg,0,83,83,79,0,0,0,0,,,,,,,,,,,,,7,3.513,,,,,,2018_Jun_18_1531,59.6364480341,verb_norming,001,909,
SPRINT,spurta,springa,löpa,3,springa,löpa,spurta,Arm,arm,0,83,83,79,0,1,1,1,,,,,,,,,,,,,1,1.57,,,,,,2018_Jun_18_1531,59.6364480341,verb_norming,001,909,
SPRINT,spurta,springa,löpa,3,springa,löpa,spurta,,,0,83,83,79,,,,,,,,,,,,,,,,,,,3,1,3.42175873299,,,2018_Jun_18_1531,59.6364480341,verb_norming,001,909,
WOBBLE,vingla,ramla,glida,1,vingla,glida,ramla,Leg,leg,0,84,84,110,0,0,0,0,,,,,,,,,,,,,7,4.032,,,,,,2018_Jun_18_1531,59.6364480341,verb_norming,001,909,
WOBBLE,vingla,ramla,glida,1,vingla,glida,ramla,Arm,arm,0,84,84,110,0,1,1,1,,,,,,,,,,,,,1,0.547,,,,,,2018_Jun_18_1531,59.6364480341,verb_norming,001,909,
WOBBLE,vingla,ramla,glida,1,vingla,glida,ramla,,,0,84,84,110,,,,,,,,,,,,,,,,,,,1,1,4.61233641005,,,2018_Jun_18_1531,59.6364480341,verb_norming,001,909,
PRANCE,kråma sig,promenera,traska,2,traska,kråma sig,promenera,Leg,leg,0,85,85,53,0,0,0,0,,,,,,,,,,,,,3,2.07,,,,,,2018_Jun_18_1531,59.6364480341,verb_norming,001,909,
PRANCE,kråma sig,promenera,traska,2,traska,kråma sig,promenera,Arm,arm,0,85,85,53,0,1,1,1,,,,,,,,,,,,,2,0.882,,,,,,2018_Jun_18_1531,59.6364480341,verb_norming,001,909,
PRANCE,kråma sig,promenera,traska,2,traska,kråma sig,promenera,,,0,85,85,53,,,,,,,,,,,,,,,,,,,3,0,1.19099688773,,,2018_Jun_18_1531,59.6364480341,verb_norming,001,909,
STUMBLE,snubbla,glida,svaja,2,glida,snubbla,svaja,Leg,leg,0,86,86,91,0,0,0,0,,,,,,,,,,,,,7,2.859,,,,,,2018_Jun_18_1531,59.6364480341,verb_norming,001,909,
STUMBLE,snubbla,glida,svaja,2,glida,snubbla,svaja,Arm,arm,0,86,86,91,0,1,1,1,,,,,,,,,,,,,1,5.764,,,,,,2018_Jun_18_1531,59.6364480341,verb_norming,001,909,
STUMBLE,snubbla,glida,svaja,2,glida,snubbla,svaja,,,0,86,86,91,,,,,,,,,,,,,,,,,,,2,1,4.0922184463,,,2018_Jun_18_1531,59.6364480341,verb_norming,001,909,
TRUDGE,släpa sig fram,kasta sig fram,ta sig fram,1,släpa sig fram,kasta sig fram,ta sig fram,Leg,leg,0,87,87,101,0,0,0,0,,,,,,,,,,,,,4,2.372,,,,,,2018_Jun_18_1531,59.6364480341,verb_norming,001,909,
TRUDGE,släpa sig fram,kasta sig fram,ta sig fram,1,släpa sig fram,kasta sig fram,ta sig fram,Arm,arm,0,87,87,101,0,1,1,1,,,,,,,,,,,,,2,0.581,,,,,,2018_Jun_18_1531,59.6364480341,verb_norming,001,909,
TRUDGE,släpa sig fram,kasta sig fram,ta sig fram,1,släpa sig fram,kasta sig fram,ta sig fram,,,0,87,87,101,,,,,,,,,,,,,,,,,,,1,1,3.95817415378,,,2018_Jun_18_1531,59.6364480341,verb_norming,001,909,
GRASP,gripa,klämma,omfamna,2,omfamna,gripa,klämma,Leg,leg,0,88,88,27,0,0,0,0,,,,,,,,,,,,,1,2.507,,,,,,2018_Jun_18_1531,59.6364480341,verb_norming,001,909,
GRASP,gripa,klämma,omfamna,2,omfamna,gripa,klämma,Arm,arm,0,88,88,27,0,1,1,1,,,,,,,,,,,,,7,0.464,,,,,,2018_Jun_18_1531,59.6364480341,verb_norming,001,909,
GRASP,gripa,klämma,omfamna,2,omfamna,gripa,klämma,,,0,88,88,27,,,,,,,,,,,,,,,,,,,2,1,1.89555016364,,,2018_Jun_18_1531,59.6364480341,verb_norming,001,909,
GRIP,gripa om,hålla om,kasta om,3,hålla om,kasta om,gripa om,Leg,leg,0,89,89,29,0,0,0,0,,,,,,,,,,,,,1,5.678,,,,,,2018_Jun_18_1531,59.6364480341,verb_norming,001,909,
GRIP,gripa om,hålla om,kasta om,3,hålla om,kasta om,gripa om,Arm,arm,0,89,89,29,0,1,1,1,,,,,,,,,,,,,7,0.749,,,,,,2018_Jun_18_1531,59.6364480341,verb_norming,001,909,
GRIP,gripa om,hålla om,kasta om,3,hålla om,kasta om,gripa om,,,0,89,89,29,,,,,,,,,,,,,,,,,,,1,0,2.86785065037,,,2018_Jun_18_1531,59.6364480341,verb_norming,001,909,
SLIP,halka,snava,ramla,3,ramla,snava,halka,Leg,leg,0,90,90,75,0,0,0,0,,,,,,,,,,,,,7,8.177,,,,,,2018_Jun_18_1531,59.6364480341,verb_norming,001,909,
SLIP,halka,snava,ramla,3,ramla,snava,halka,Arm,arm,0,90,90,75,0,1,1,1,,,,,,,,,,,,,1,0.516,,,,,,2018_Jun_18_1531,59.6364480341,verb_norming,001,909,
SLIP,halka,snava,ramla,3,ramla,snava,halka,,,0,90,90,75,,,,,,,,,,,,,,,,,,,3,1,2.41549625496,,,2018_Jun_18_1531,59.6364480341,verb_norming,001,909,
SKIP,hoppa,kliva,strutta,1,hoppa,strutta,kliva,Leg,leg,0,91,91,72,0,0,0,0,,,,,,,,,,,,,7,3.112,,,,,,2018_Jun_18_1531,59.6364480341,verb_norming,001,909,
SKIP,hoppa,kliva,strutta,1,hoppa,strutta,kliva,Arm,arm,0,91,91,72,0,1,1,1,,,,,,,,,,,,,1,0.532,,,,,,2018_Jun_18_1531,59.6364480341,verb_norming,001,909,
SKIP,hoppa,kliva,strutta,1,hoppa,strutta,kliva,,,0,91,91,72,,,,,,,,,,,,,,,,,,,1,1,4.47800803415,,,2018_Jun_18_1531,59.6364480341,verb_norming,001,909,
PUNCH,slå,knuffa,kasta,3,kasta,knuffa,slå,Leg,leg,0,92,92,55,0,0,0,0,,,,,,,,,,,,,1,2.96,,,,,,2018_Jun_18_1531,59.6364480341,verb_norming,001,909,
PUNCH,slå,knuffa,kasta,3,kasta,knuffa,slå,Arm,arm,0,92,92,55,0,1,1,1,,,,,,,,,,,,,7,1.252,,,,,,2018_Jun_18_1531,59.6364480341,verb_norming,001,909,
PUNCH,slå,knuffa,kasta,3,kasta,knuffa,slå,,,0,92,92,55,,,,,,,,,,,,,,,,,,,3,1,1.84510027275,,,2018_Jun_18_1531,59.6364480341,verb_norming,001,909,
CUT,skära,sticka,spetsa,3,sticka,spetsa,skära,Leg,leg,0,93,93,16,0,0,0,0,,,,,,,,,,,,,1,2.171,,,,,,2018_Jun_18_1531,59.6364480341,verb_norming,001,909,
CUT,skära,sticka,spetsa,3,sticka,spetsa,skära,Arm,arm,0,93,93,16,0,1,1,1,,,,,,,,,,,,,7,2.059,,,,,,2018_Jun_18_1531,59.6364480341,verb_norming,001,909,
CUT,skära,sticka,spetsa,3,sticka,spetsa,skära,,,0,93,93,16,,,,,,,,,,,,,,,,,,,3,1,3.17005729476,,,2018_Jun_18_1531,59.6364480341,verb_norming,001,909,
CHOP,hacka,tälja,riva,1,hacka,riva,tälja,Leg,leg,0,94,94,7,0,0,0,0,,,,,,,,,,,,,1,2.222,,,,,,2018_Jun_18_1531,59.6364480341,verb_norming,001,909,
CHOP,hacka,tälja,riva,1,hacka,riva,tälja,Arm,arm,0,94,94,7,0,1,1,1,,,,,,,,,,,,,7,0.431,,,,,,2018_Jun_18_1531,59.6364480341,verb_norming,001,909,
CHOP,hacka,tälja,riva,1,hacka,riva,tälja,,,0,94,94,7,,,,,,,,,,,,,,,,,,,2,0,2.2477768203,,,2018_Jun_18_1531,59.6364480341,verb_norming,001,909,
WHIP,piska,klappa,slå,1,piska,klappa,slå,Leg,leg,0,95,95,108,0,0,0,0,,,,,,,,,,,,,1,3.079,,,,,,2018_Jun_18_1531,59.6364480341,verb_norming,001,909,
WHIP,piska,klappa,slå,1,piska,klappa,slå,Arm,arm,0,95,95,108,0,1,1,1,,,,,,,,,,,,,7,0.6,,,,,,2018_Jun_18_1531,59.6364480341,verb_norming,001,909,
WHIP,piska,klappa,slå,1,piska,klappa,slå,,,0,95,95,108,,,,,,,,,,,,,,,,,,,1,1,1.84523381959,,,2018_Jun_18_1531,59.6364480341,verb_norming,001,909,
CLICK,klicka,klappa,klämma,2,klämma,klicka,klappa,Leg,leg,0,96,96,11,0,0,0,0,,,,,,,,,,,,,1,10.944,,,,,,2018_Jun_18_1531,59.6364480341,verb_norming,001,909,
CLICK,klicka,klappa,klämma,2,klämma,klicka,klappa,Arm,arm,0,96,96,11,0,1,1,1,,,,,,,,,,,,,7,0.817,,,,,,2018_Jun_18_1531,59.6364480341,verb_norming,001,909,
CLICK,klicka,klappa,klämma,2,klämma,klicka,klappa,,,0,96,96,11,,,,,,,,,,,,,,,,,,,2,1,1.66063019099,,,2018_Jun_18_1531,59.6364480341,verb_norming,001,909,
CLIMB,klättra,kliva,krypa,1,klättra,krypa,kliva,Leg,leg,0,97,97,12,0,0,0,0,,,,,,,,,,,,,5,4.755,,,,,,2018_Jun_18_1531,59.6364480341,verb_norming,001,909,
CLIMB,klättra,kliva,krypa,1,klättra,krypa,kliva,Arm,arm,0,97,97,12,0,1,1,1,,,,,,,,,,,,,5,0.834,,,,,,2018_Jun_18_1531,59.6364480341,verb_norming,001,909,
CLIMB,klättra,kliva,krypa,1,klättra,krypa,kliva,,,0,97,97,12,,,,,,,,,,,,,,,,,,,1,1,1.02329088677,,,2018_Jun_18_1531,59.6364480341,verb_norming,001,909,
TOSS,slänga,fånga,gripa,2,fånga,slänga,gripa,Leg,leg,0,98,98,96,0,0,0,0,,,,,,,,,,,,,1,1.937,,,,,,2018_Jun_18_1531,59.6364480341,verb_norming,001,909,
TOSS,slänga,fånga,gripa,2,fånga,slänga,gripa,Arm,arm,0,98,98,96,0,1,1,1,,,,,,,,,,,,,7,0.448,,,,,,2018_Jun_18_1531,59.6364480341,verb_norming,001,909,
TOSS,slänga,fånga,gripa,2,fånga,slänga,gripa,,,0,98,98,96,,,,,,,,,,,,,,,,,,,2,1,3.03589328421,,,2018_Jun_18_1531,59.6364480341,verb_norming,001,909,
RUSH,rusa,springa,löpa,3,springa,löpa,rusa,Leg,leg,0,99,99,62,0,0,0,0,,,,,,,,,,,,,7,2.408,,,,,,2018_Jun_18_1531,59.6364480341,verb_norming,001,909,
RUSH,rusa,springa,löpa,3,springa,löpa,rusa,Arm,arm,0,99,99,62,0,1,1,1,,,,,,,,,,,,,1,0.466,,,,,,2018_Jun_18_1531,59.6364480341,verb_norming,001,909,
RUSH,rusa,springa,löpa,3,springa,löpa,rusa,,,0,99,99,62,,,,,,,,,,,,,,,,,,,3,1,3.62296405259,,,2018_Jun_18_1531,59.6364480341,verb_norming,001,909,
TRIP,snubbla,stampa,stappla,3,stampa,stappla,snubbla,Leg,leg,0,100,100,99,0,0,0,0,,,,,,,,,,,,,7,3.7,,,,,,2018_Jun_18_1531,59.6364480341,verb_norming,001,909,
TRIP,snubbla,stampa,stappla,3,stampa,stappla,snubbla,Arm,arm,0,100,100,99,0,1,1,1,,,,,,,,,,,,,1,0.449,,,,,,2018_Jun_18_1531,59.6364480341,verb_norming,001,909,
TRIP,snubbla,stampa,stappla,3,stampa,stappla,snubbla,,,0,100,100,99,,,,,,,,,,,,,,,,,,,3,1,4.14189985014,,,2018_Jun_18_1531,59.6364480341,verb_norming,001,909,
CLEAN,rengöra,rensa,plocka,3,plocka,rensa,rengöra,Leg,leg,0,101,101,10,0,0,0,0,,,,,,,,,,,,,5,5.877,,,,,,2018_Jun_18_1531,59.6364480341,verb_norming,001,909,
CLEAN,rengöra,rensa,plocka,3,plocka,rensa,rengöra,Arm,arm,0,101,101,10,0,1,1,1,,,,,,,,,,,,,5,1.135,,,,,,2018_Jun_18_1531,59.6364480341,verb_norming,001,909,
CLEAN,rengöra,rensa,plocka,3,plocka,rensa,rengöra,,,0,101,101,10,,,,,,,,,,,,,,,,,,,2,0,5.95418434286,,,2018_Jun_18_1531,59.6364480341,verb_norming,001,909,
TUG,rycka,pressa,slå,1,rycka,pressa,slå,Leg,leg,0,102,102,102,0,0,0,0,,,,,,,,,,,,,7,4.218,,,,,,2018_Jun_18_1531,59.6364480341,verb_norming,001,909,
TUG,rycka,pressa,slå,1,rycka,pressa,slå,Arm,arm,0,102,102,102,0,1,1,1,,,,,,,,,,,,,4,0.414,,,,,,2018_Jun_18_1531,59.6364480341,verb_norming,001,909,
TUG,rycka,pressa,slå,1,rycka,pressa,slå,,,0,102,102,102,,,,,,,,,,,,,,,,,,,1,1,2.95193301163,,,2018_Jun_18_1531,59.6364480341,verb_norming,001,909,
MOUNT,gå uppför,ströva runt,kliva över,2,kliva över,gå uppför,ströva runt,Leg,leg,0,103,103,43,0,0,0,0,,,,,,,,,,,,,4,2.254,,,,,,2018_Jun_18_1531,59.6364480341,verb_norming,001,909,
MOUNT,gå uppför,ströva runt,kliva över,2,kliva över,gå uppför,ströva runt,Arm,arm,0,103,103,43,0,1,1,1,,,,,,,,,,,,,5,0.446,,,,,,2018_Jun_18_1531,59.6364480341,verb_norming,001,909,
MOUNT,gå uppför,ströva runt,kliva över,2,kliva över,gå uppför,ströva runt,,,0,103,103,43,,,,,,,,,,,,,,,,,,,2,1,1.49300439717,,,2018_Jun_18_1531,59.6364480341,verb_norming,001,909,
FLIT,rusa,hasa,svassa,2,svassa,rusa,hasa,Leg,leg,0,104,104,23,0,0,0,0,,,,,,,,,,,,,4,1.905,,,,,,2018_Jun_18_1531,59.6364480341,verb_norming,001,909,
FLIT,rusa,hasa,svassa,2,svassa,rusa,hasa,Arm,arm,0,104,104,23,0,1,1,1,,,,,,,,,,,,,2,0.583,,,,,,2018_Jun_18_1531,59.6364480341,verb_norming,001,909,
FLIT,rusa,hasa,svassa,2,svassa,rusa,hasa,,,0,104,104,23,,,,,,,,,,,,,,,,,,,2,1,2.31467509987,,,2018_Jun_18_1531,59.6364480341,verb_norming,001,909,
DANCE,dansa,snurra,svänga,3,svänga,snurra,dansa,Leg,leg,0,105,105,17,0,0,0,0,,,,,,,,,,,,,5,4.402,,,,,,2018_Jun_18_1531,59.6364480341,verb_norming,001,909,
DANCE,dansa,snurra,svänga,3,svänga,snurra,dansa,Arm,arm,0,105,105,17,0,1,1,1,,,,,,,,,,,,,6,1.552,,,,,,2018_Jun_18_1531,59.6364480341,verb_norming,001,909,
DANCE,dansa,snurra,svänga,3,svänga,snurra,dansa,,,0,105,105,17,,,,,,,,,,,,,,,,,,,3,1,2.49907287668,,,2018_Jun_18_1531,59.6364480341,verb_norming,001,909,
FILE,fila,putsa,riva,2,riva,fila,putsa,Leg,leg,0,106,106,21,0,0,0,0,,,,,,,,,,,,,2,2.894,,,,,,2018_Jun_18_1531,59.6364480341,verb_norming,001,909,
FILE,fila,putsa,riva,2,riva,fila,putsa,Arm,arm,0,106,106,21,0,1,1,1,,,,,,,,,,,,,4,0.447,,,,,,2018_Jun_18_1531,59.6364480341,verb_norming,001,909,
FILE,fila,putsa,riva,2,riva,fila,putsa,,,0,106,106,21,,,,,,,,,,,,,,,,,,,2,1,3.52228553186,,,2018_Jun_18_1531,59.6364480341,verb_norming,001,909,
POLISH,polera,sopa,tvätta,3,tvätta,sopa,polera,Leg,leg,0,107,107,52,0,0,0,0,,,,,,,,,,,,,1,2.204,,,,,,2018_Jun_18_1531,59.6364480341,verb_norming,001,909,
POLISH,polera,sopa,tvätta,3,tvätta,sopa,polera,Arm,arm,0,107,107,52,0,1,1,1,,,,,,,,,,,,,7,0.48,,,,,,2018_Jun_18_1531,59.6364480341,verb_norming,001,909,
POLISH,polera,sopa,tvätta,3,tvätta,sopa,polera,,,0,107,107,52,,,,,,,,,,,,,,,,,,,3,1,2.73374037465,,,2018_Jun_18_1531,59.6364480341,verb_norming,001,909,
RUN,springa,rusa,jogga,2,jogga,springa,rusa,Leg,leg,0,108,108,61,0,0,0,0,,,,,,,,,,,,,7,1.904,,,,,,2018_Jun_18_1531,59.6364480341,verb_norming,001,909,
RUN,springa,rusa,jogga,2,jogga,springa,rusa,Arm,arm,0,108,108,61,0,1,1,1,,,,,,,,,,,,,1,0.515,,,,,,2018_Jun_18_1531,59.6364480341,verb_norming,001,909,
RUN,springa,rusa,jogga,2,jogga,springa,rusa,,,0,108,108,61,,,,,,,,,,,,,,,,,,,2,1,3.20376207009,,,2018_Jun_18_1531,59.6364480341,verb_norming,001,909,
SLAP,smälla till,knäppa fast,klämma åt,3,knäppa fast,klämma åt,smälla till,Leg,leg,0,109,109,73,0,0,0,0,,,,,,,,,,,,,1,1.435,,,,,,2018_Jun_18_1531,59.6364480341,verb_norming,001,909,
SLAP,smälla till,knäppa fast,klämma åt,3,knäppa fast,klämma åt,smälla till,Arm,arm,0,109,109,73,0,1,1,1,,,,,,,,,,,,,7,0.432,,,,,,2018_Jun_18_1531,59.6364480341,verb_norming,001,909,
SLAP,smälla till,knäppa fast,klämma åt,3,knäppa fast,klämma åt,smälla till,,,0,109,109,73,,,,,,,,,,,,,,,,,,,1,0,2.53338493457,,,2018_Jun_18_1531,59.6364480341,verb_norming,001,909,
KNOCK,knacka,krocka,klicka,1,knacka,klicka,krocka,Leg,leg,0,110,110,38,0,0,0,0,,,,,,,,,,,,,1,6.849,,,,,,2018_Jun_18_1531,59.6364480341,verb_norming,001,909,
KNOCK,knacka,krocka,klicka,1,knacka,klicka,krocka,Arm,arm,0,110,110,38,0,1,1,1,,,,,,,,,,,,,7,0.497,,,,,,2018_Jun_18_1531,59.6364480341,verb_norming,001,909,
KNOCK,knacka,krocka,klicka,1,knacka,klicka,krocka,,,0,110,110,38,,,,,,,,,,,,,,,,,,,1,1,1.34193248614,,,2018_Jun_18_1531,59.6364480341,verb_norming,001,909,
PLUCK,plocka,rensa,picka,3,rensa,picka,plocka,Leg,leg,0,111,111,50,0,0,0,0,,,,,,,,,,,,,1,2.425,,,,,,2018_Jun_18_1531,59.6364480341,verb_norming,001,909,
PLUCK,plocka,rensa,picka,3,rensa,picka,plocka,Arm,arm,0,111,111,50,0,1,1,1,,,,,,,,,,,,,7,1.001,,,,,,2018_Jun_18_1531,59.6364480341,verb_norming,001,909,
PLUCK,plocka,rensa,picka,3,rensa,picka,plocka,,,0,111,111,50,,,,,,,,,,,,,,,,,,,3,1,1.77806963164,,,2018_Jun_18_1531,59.6364480341,verb_norming,001,909,
,,,,,,,,,,,,,,,,,,,,,,,,,,,,,,,,,,,space,2.4161327756,2018_Jun_18_1531,59.6364480341,verb_norming,001,909,
