word,target,distrOne,distrTwo,corrAns,w1,w2,w3,category,category_lowercase,trials.thisRepN,trials.thisTrialN,trials.thisN,trials.thisIndex,ArmLeg_loop.thisRepN,ArmLeg_loop.thisTrialN,ArmLeg_loop.thisN,ArmLeg_loop.thisIndex,key_resp_9.keys,key_resp_9.rt,key_resp_3.keys,key_resp_3.rt,key_resp_6.keys,key_resp_6.rt,key_resp_5.keys,key_resp_5.rt,key_resp_4.keys,key_resp_4.rt,key_resp_8.keys,key_resp_8.rt,rating.response,rating.rt,answer.keys,answer.corr,answer.rt,date,frameRate,expName,session,participant,
,,,,,,,,,,,,,,,,,,space,528.129181421,,,,,,,,,,,,,,,,2018_Jun_19_1101,59.6362770948,verb_norming,001,910,
,,,,,,,,,,,,,,,,,,,,space,15.1285172299,,,,,,,,,,,,,,2018_Jun_19_1101,59.6362770948,verb_norming,001,910,
,,,,,,,,,,,,,,,,,,,,,,space,24.8053793555,,,,,,,,,,,,2018_Jun_19_1101,59.6362770948,verb_norming,001,910,
,,,,,,,,,,,,,,,,,,,,,,,,space,39.1113845758,,,,,,,,,,2018_Jun_19_1101,59.6362770948,verb_norming,001,910,
,,,,,,,,,,,,,,,,,,,,,,,,,,space,11.2541892245,,,,,,,,2018_Jun_19_1101,59.6362770948,verb_norming,001,910,
,,,,,,,,,,,,,,,,,,,,,,,,,,,,space,7.66512637017,,,,,,2018_Jun_19_1101,59.6362770948,verb_norming,001,910,
SLIP,halka,snava,ramla,2,snava,halka,ramla,Arm,arm,0,0,0,75,0,0,0,0,,,,,,,,,,,,,6,18.08,,,,2018_Jun_19_1101,59.6362770948,verb_norming,001,910,
SLIP,halka,snava,ramla,2,snava,halka,ramla,Leg,leg,0,0,0,75,0,1,1,1,,,,,,,,,,,,,6,37.721,,,,2018_Jun_19_1101,59.6362770948,verb_norming,001,910,
SLIP,halka,snava,ramla,2,snava,halka,ramla,,,0,0,0,75,,,,,,,,,,,,,,,,,,,2,1,12.1762801188,2018_Jun_19_1101,59.6362770948,verb_norming,001,910,
SKIM,skumma,vispa,sleva,2,sleva,skumma,vispa,Arm,arm,0,1,1,71,0,0,0,0,,,,,,,,,,,,,2,54.488,,,,2018_Jun_19_1101,59.6362770948,verb_norming,001,910,
SKIM,skumma,vispa,sleva,2,sleva,skumma,vispa,Leg,leg,0,1,1,71,0,1,1,1,,,,,,,,,,,,,2,8.508,,,,2018_Jun_19_1101,59.6362770948,verb_norming,001,910,
SKIM,skumma,vispa,sleva,2,sleva,skumma,vispa,,,0,1,1,71,,,,,,,,,,,,,,,,,,,2,1,20.4449752617,2018_Jun_19_1101,59.6362770948,verb_norming,001,910,
BIND,binda,linda,vinda,1,binda,vinda,linda,Arm,arm,0,2,2,1,0,0,0,0,,,,,,,,,,,,,7,11.122,,,,2018_Jun_19_1101,59.6362770948,verb_norming,001,910,
BIND,binda,linda,vinda,1,binda,vinda,linda,Leg,leg,0,2,2,1,0,1,1,1,,,,,,,,,,,,,7,7.723,,,,2018_Jun_19_1101,59.6362770948,verb_norming,001,910,
BIND,binda,linda,vinda,1,binda,vinda,linda,,,0,2,2,1,,,,,,,,,,,,,,,,,,,1,1,6.70940235442,2018_Jun_19_1101,59.6362770948,verb_norming,001,910,
BASH,slå,knuffa,trycka,2,trycka,slå,knuffa,Arm,arm,0,3,3,0,0,0,0,0,,,,,,,,,,,,,7,14.138,,,,2018_Jun_19_1101,59.6362770948,verb_norming,001,910,
BASH,slå,knuffa,trycka,2,trycka,slå,knuffa,Leg,leg,0,3,3,0,0,1,1,1,,,,,,,,,,,,,2,10.12,,,,2018_Jun_19_1101,59.6362770948,verb_norming,001,910,
BASH,slå,knuffa,trycka,2,trycka,slå,knuffa,,,0,3,3,0,,,,,,,,,,,,,,,,,,,2,1,5.03205660599,2018_Jun_19_1101,59.6362770948,verb_norming,001,910,
TOSS,slänga,fånga,gripa,3,fånga,gripa,slänga,Arm,arm,0,4,4,96,0,0,0,0,,,,,,,,,,,,,7,4.576,,,,2018_Jun_19_1101,59.6362770948,verb_norming,001,910,
TOSS,slänga,fånga,gripa,3,fånga,gripa,slänga,Leg,leg,0,4,4,96,0,1,1,1,,,,,,,,,,,,,1,2.262,,,,2018_Jun_19_1101,59.6362770948,verb_norming,001,910,
TOSS,slänga,fånga,gripa,3,fånga,gripa,slänga,,,0,4,4,96,,,,,,,,,,,,,,,,,,,3,1,2.41546676318,2018_Jun_19_1101,59.6362770948,verb_norming,001,910,
WRAP,slå in,slå ihop,slå till,3,slå ihop,slå till,slå in,Arm,arm,0,5,5,111,0,0,0,0,,,,,,,,,,,,,7,13.573,,,,2018_Jun_19_1101,59.6362770948,verb_norming,001,910,
WRAP,slå in,slå ihop,slå till,3,slå ihop,slå till,slå in,Leg,leg,0,5,5,111,0,1,1,1,,,,,,,,,,,,,4,7.956,,,,2018_Jun_19_1101,59.6362770948,verb_norming,001,910,
WRAP,slå in,slå ihop,slå till,3,slå ihop,slå till,slå in,,,0,5,5,111,,,,,,,,,,,,,,,,,,,3,1,6.49095182816,2018_Jun_19_1101,59.6362770948,verb_norming,001,910,
STAMP,stampa,kliva,skutta,1,stampa,kliva,skutta,Arm,arm,0,6,6,83,0,0,0,0,,,,,,,,,,,,,1,10.849,,,,2018_Jun_19_1101,59.6362770948,verb_norming,001,910,
STAMP,stampa,kliva,skutta,1,stampa,kliva,skutta,Leg,leg,0,6,6,83,0,1,1,1,,,,,,,,,,,,,7,2.809,,,,2018_Jun_19_1101,59.6362770948,verb_norming,001,910,
STAMP,stampa,kliva,skutta,1,stampa,kliva,skutta,,,0,6,6,83,,,,,,,,,,,,,,,,,,,1,1,2.44947406019,2018_Jun_19_1101,59.6362770948,verb_norming,001,910,
KICK,sparka,knäa,tåa,3,tåa,knäa,sparka,Arm,arm,0,7,7,36,0,0,0,0,,,,,,,,,,,,,1,9.576,,,,2018_Jun_19_1101,59.6362770948,verb_norming,001,910,
KICK,sparka,knäa,tåa,3,tåa,knäa,sparka,Leg,leg,0,7,7,36,0,1,1,1,,,,,,,,,,,,,7,4.715,,,,2018_Jun_19_1101,59.6362770948,verb_norming,001,910,
KICK,sparka,knäa,tåa,3,tåa,knäa,sparka,,,0,7,7,36,,,,,,,,,,,,,,,,,,,3,1,5.38433314974,2018_Jun_19_1101,59.6362770948,verb_norming,001,910,
HACK,hacka,skära,kåpa,2,kåpa,hacka,skära,Arm,arm,0,8,8,30,0,0,0,0,,,,,,,,,,,,,6,15.597,,,,2018_Jun_19_1101,59.6362770948,verb_norming,001,910,
HACK,hacka,skära,kåpa,2,kåpa,hacka,skära,Leg,leg,0,8,8,30,0,1,1,1,,,,,,,,,,,,,1,1.948,,,,2018_Jun_19_1101,59.6362770948,verb_norming,001,910,
HACK,hacka,skära,kåpa,2,kåpa,hacka,skära,,,0,8,8,30,,,,,,,,,,,,,,,,,,,2,1,9.74474317021,2018_Jun_19_1101,59.6362770948,verb_norming,001,910,
STRIDE,kliva,tassa,lunka,1,kliva,tassa,lunka,Arm,arm,0,9,9,88,0,0,0,0,,,,,,,,,,,,,1,5.199,,,,2018_Jun_19_1101,59.6362770948,verb_norming,001,910,
STRIDE,kliva,tassa,lunka,1,kliva,tassa,lunka,Leg,leg,0,9,9,88,0,1,1,1,,,,,,,,,,,,,7,2.422,,,,2018_Jun_19_1101,59.6362770948,verb_norming,001,910,
STRIDE,kliva,tassa,lunka,1,kliva,tassa,lunka,,,0,9,9,88,,,,,,,,,,,,,,,,,,,1,1,3.7575413944,2018_Jun_19_1101,59.6362770948,verb_norming,001,910,
RUSH,rusa,springa,löpa,1,rusa,löpa,springa,Arm,arm,0,10,10,62,0,0,0,0,,,,,,,,,,,,,2,5.669,,,,2018_Jun_19_1101,59.6362770948,verb_norming,001,910,
RUSH,rusa,springa,löpa,1,rusa,löpa,springa,Leg,leg,0,10,10,62,0,1,1,1,,,,,,,,,,,,,6,4.286,,,,2018_Jun_19_1101,59.6362770948,verb_norming,001,910,
RUSH,rusa,springa,löpa,1,rusa,löpa,springa,,,0,10,10,62,,,,,,,,,,,,,,,,,,,1,1,7.36335719575,2018_Jun_19_1101,59.6362770948,verb_norming,001,910,
JOG,jogga,spurta,rusa,2,rusa,jogga,spurta,Arm,arm,0,11,11,34,0,0,0,0,,,,,,,,,,,,,3,11.875,,,,2018_Jun_19_1101,59.6362770948,verb_norming,001,910,
JOG,jogga,spurta,rusa,2,rusa,jogga,spurta,Leg,leg,0,11,11,34,0,1,1,1,,,,,,,,,,,,,7,7.012,,,,2018_Jun_19_1101,59.6362770948,verb_norming,001,910,
JOG,jogga,spurta,rusa,2,rusa,jogga,spurta,,,0,11,11,34,,,,,,,,,,,,,,,,,,,2,1,6.12231982482,2018_Jun_19_1101,59.6362770948,verb_norming,001,910,
ROLL,vingla,snubbla,svassa,1,vingla,snubbla,svassa,Arm,arm,0,12,12,59,0,0,0,0,,,,,,,,,,,,,5,10.266,,,,2018_Jun_19_1101,59.6362770948,verb_norming,001,910,
ROLL,vingla,snubbla,svassa,1,vingla,snubbla,svassa,Leg,leg,0,12,12,59,0,1,1,1,,,,,,,,,,,,,3,4.836,,,,2018_Jun_19_1101,59.6362770948,verb_norming,001,910,
ROLL,vingla,snubbla,svassa,1,vingla,snubbla,svassa,,,0,12,12,59,,,,,,,,,,,,,,,,,,,1,1,26.70078565,2018_Jun_19_1101,59.6362770948,verb_norming,001,910,
BOUNCE,studsa,dunka,kasta,3,dunka,kasta,studsa,Arm,arm,0,13,13,2,0,0,0,0,,,,,,,,,,,,,5,8.924,,,,2018_Jun_19_1101,59.6362770948,verb_norming,001,910,
BOUNCE,studsa,dunka,kasta,3,dunka,kasta,studsa,Leg,leg,0,13,13,2,0,1,1,1,,,,,,,,,,,,,5,4.534,,,,2018_Jun_19_1101,59.6362770948,verb_norming,001,910,
BOUNCE,studsa,dunka,kasta,3,dunka,kasta,studsa,,,0,13,13,2,,,,,,,,,,,,,,,,,,,3,1,3.47249118692,2018_Jun_19_1101,59.6362770948,verb_norming,001,910,
CLAP,klappa,knäppa,klämma,2,klämma,klappa,knäppa,Arm,arm,0,14,14,8,0,0,0,0,,,,,,,,,,,,,7,4.144,,,,2018_Jun_19_1101,59.6362770948,verb_norming,001,910,
CLAP,klappa,knäppa,klämma,2,klämma,klappa,knäppa,Leg,leg,0,14,14,8,0,1,1,1,,,,,,,,,,,,,1,3.258,,,,2018_Jun_19_1101,59.6362770948,verb_norming,001,910,
CLAP,klappa,knäppa,klämma,2,klämma,klappa,knäppa,,,0,14,14,8,,,,,,,,,,,,,,,,,,,2,1,2.88486576701,2018_Jun_19_1101,59.6362770948,verb_norming,001,910,
STOMP,stampa,stiga,kliva,2,kliva,stampa,stiga,Arm,arm,0,15,15,86,0,0,0,0,,,,,,,,,,,,,1,6.071,,,,2018_Jun_19_1101,59.6362770948,verb_norming,001,910,
STOMP,stampa,stiga,kliva,2,kliva,stampa,stiga,Leg,leg,0,15,15,86,0,1,1,1,,,,,,,,,,,,,7,1.985,,,,2018_Jun_19_1101,59.6362770948,verb_norming,001,910,
STOMP,stampa,stiga,kliva,2,kliva,stampa,stiga,,,0,15,15,86,,,,,,,,,,,,,,,,,,,2,1,4.83036732417,2018_Jun_19_1101,59.6362770948,verb_norming,001,910,
SNATCH,rycka till sig,knuffa ifrån sig,plocka åt sig,1,rycka till sig,plocka åt sig,knuffa ifrån sig,Arm,arm,0,16,16,77,0,0,0,0,,,,,,,,,,,,,7,5.079,,,,2018_Jun_19_1101,59.6362770948,verb_norming,001,910,
SNATCH,rycka till sig,knuffa ifrån sig,plocka åt sig,1,rycka till sig,plocka åt sig,knuffa ifrån sig,Leg,leg,0,16,16,77,0,1,1,1,,,,,,,,,,,,,1,4.16,,,,2018_Jun_19_1101,59.6362770948,verb_norming,001,910,
SNATCH,rycka till sig,knuffa ifrån sig,plocka åt sig,1,rycka till sig,plocka åt sig,knuffa ifrån sig,,,0,16,16,77,,,,,,,,,,,,,,,,,,,1,1,12.109329969,2018_Jun_19_1101,59.6362770948,verb_norming,001,910,
SCRATCH,repa,riva,klösa,1,repa,riva,klösa,Arm,arm,0,17,17,65,0,0,0,0,,,,,,,,,,,,,7,6.774,,,,2018_Jun_19_1101,59.6362770948,verb_norming,001,910,
SCRATCH,repa,riva,klösa,1,repa,riva,klösa,Leg,leg,0,17,17,65,0,1,1,1,,,,,,,,,,,,,2,4.649,,,,2018_Jun_19_1101,59.6362770948,verb_norming,001,910,
SCRATCH,repa,riva,klösa,1,repa,riva,klösa,,,0,17,17,65,,,,,,,,,,,,,,,,,,,2,0,10.7848277568,2018_Jun_19_1101,59.6362770948,verb_norming,001,910,
STUMBLE,snubbla,glida,svaja,2,svaja,snubbla,glida,Arm,arm,0,18,18,91,0,0,0,0,,,,,,,,,,,,,1,9.291,,,,2018_Jun_19_1101,59.6362770948,verb_norming,001,910,
STUMBLE,snubbla,glida,svaja,2,svaja,snubbla,glida,Leg,leg,0,18,18,91,0,1,1,1,,,,,,,,,,,,,7,5.368,,,,2018_Jun_19_1101,59.6362770948,verb_norming,001,910,
STUMBLE,snubbla,glida,svaja,2,svaja,snubbla,glida,,,0,18,18,91,,,,,,,,,,,,,,,,,,,2,1,10.6169908862,2018_Jun_19_1101,59.6362770948,verb_norming,001,910,
GLIDE,glida,hasa,snava,1,glida,hasa,snava,Arm,arm,0,19,19,25,0,0,0,0,,,,,,,,,,,,,2,24.218,,,,2018_Jun_19_1101,59.6362770948,verb_norming,001,910,
GLIDE,glida,hasa,snava,1,glida,hasa,snava,Leg,leg,0,19,19,25,0,1,1,1,,,,,,,,,,,,,5,8.723,,,,2018_Jun_19_1101,59.6362770948,verb_norming,001,910,
GLIDE,glida,hasa,snava,1,glida,hasa,snava,,,0,19,19,25,,,,,,,,,,,,,,,,,,,1,1,5.33404862622,2018_Jun_19_1101,59.6362770948,verb_norming,001,910,
LIFT,lyfta,pressa,öka,3,öka,pressa,lyfta,Arm,arm,0,20,20,40,0,0,0,0,,,,,,,,,,,,,7,4.937,,,,2018_Jun_19_1101,59.6362770948,verb_norming,001,910,
LIFT,lyfta,pressa,öka,3,öka,pressa,lyfta,Leg,leg,0,20,20,40,0,1,1,1,,,,,,,,,,,,,4,6.946,,,,2018_Jun_19_1101,59.6362770948,verb_norming,001,910,
LIFT,lyfta,pressa,öka,3,öka,pressa,lyfta,,,0,20,20,40,,,,,,,,,,,,,,,,,,,3,1,4.10975432435,2018_Jun_19_1101,59.6362770948,verb_norming,001,910,
PAT,klappa,slå,borsta,2,borsta,klappa,slå,Arm,arm,0,21,21,46,0,0,0,0,,,,,,,,,,,,,7,4.782,,,,2018_Jun_19_1101,59.6362770948,verb_norming,001,910,
PAT,klappa,slå,borsta,2,borsta,klappa,slå,Leg,leg,0,21,21,46,0,1,1,1,,,,,,,,,,,,,1,7.825,,,,2018_Jun_19_1101,59.6362770948,verb_norming,001,910,
PAT,klappa,slå,borsta,2,borsta,klappa,slå,,,0,21,21,46,,,,,,,,,,,,,,,,,,,2,1,2.76778755999,2018_Jun_19_1101,59.6362770948,verb_norming,001,910,
SWITCH,slå på/av,knäppa,nypa,3,nypa,knäppa,slå på/av,Arm,arm,0,22,22,93,0,0,0,0,,,,,,,,,,,,,4,9.003,,,,2018_Jun_19_1101,59.6362770948,verb_norming,001,910,
SWITCH,slå på/av,knäppa,nypa,3,nypa,knäppa,slå på/av,Leg,leg,0,22,22,93,0,1,1,1,,,,,,,,,,,,,4,2.219,,,,2018_Jun_19_1101,59.6362770948,verb_norming,001,910,
SWITCH,slå på/av,knäppa,nypa,3,nypa,knäppa,slå på/av,,,0,22,22,93,,,,,,,,,,,,,,,,,,,3,1,9.19133880544,2018_Jun_19_1101,59.6362770948,verb_norming,001,910,
FLEE,fly,lyfta,flyga,3,flyga,lyfta,fly,Arm,arm,0,23,23,22,0,0,0,0,,,,,,,,,,,,,1,10.082,,,,2018_Jun_19_1101,59.6362770948,verb_norming,001,910,
FLEE,fly,lyfta,flyga,3,flyga,lyfta,fly,Leg,leg,0,23,23,22,0,1,1,1,,,,,,,,,,,,,6,2.591,,,,2018_Jun_19_1101,59.6362770948,verb_norming,001,910,
FLEE,fly,lyfta,flyga,3,flyga,lyfta,fly,,,0,23,23,22,,,,,,,,,,,,,,,,,,,3,1,4.21033641024,2018_Jun_19_1101,59.6362770948,verb_norming,001,910,
PULL,dra,slänga,släpa,2,slänga,dra,släpa,Arm,arm,0,24,24,54,0,0,0,0,,,,,,,,,,,,,7,4.787,,,,2018_Jun_19_1101,59.6362770948,verb_norming,001,910,
PULL,dra,slänga,släpa,2,slänga,dra,släpa,Leg,leg,0,24,24,54,0,1,1,1,,,,,,,,,,,,,1,4.35,,,,2018_Jun_19_1101,59.6362770948,verb_norming,001,910,
PULL,dra,slänga,släpa,2,slänga,dra,släpa,,,0,24,24,54,,,,,,,,,,,,,,,,,,,2,1,20.9314883492,2018_Jun_19_1101,59.6362770948,verb_norming,001,910,
LEAP,hoppa,stega,kliva,2,stega,hoppa,kliva,Arm,arm,0,25,25,39,0,0,0,0,,,,,,,,,,,,,1,6.04,,,,2018_Jun_19_1101,59.6362770948,verb_norming,001,910,
LEAP,hoppa,stega,kliva,2,stega,hoppa,kliva,Leg,leg,0,25,25,39,0,1,1,1,,,,,,,,,,,,,7,4.671,,,,2018_Jun_19_1101,59.6362770948,verb_norming,001,910,
LEAP,hoppa,stega,kliva,2,stega,hoppa,kliva,,,0,25,25,39,,,,,,,,,,,,,,,,,,,2,1,2.93585438844,2018_Jun_19_1101,59.6362770948,verb_norming,001,910,
SLITHER,hasa,glida,trilla,3,glida,trilla,hasa,Arm,arm,0,26,26,76,0,0,0,0,,,,,,,,,,,,,4,12.227,,,,2018_Jun_19_1101,59.6362770948,verb_norming,001,910,
SLITHER,hasa,glida,trilla,3,glida,trilla,hasa,Leg,leg,0,26,26,76,0,1,1,1,,,,,,,,,,,,,5,2.955,,,,2018_Jun_19_1101,59.6362770948,verb_norming,001,910,
SLITHER,hasa,glida,trilla,3,glida,trilla,hasa,,,0,26,26,76,,,,,,,,,,,,,,,,,,,3,1,2.18099109486,2018_Jun_19_1101,59.6362770948,verb_norming,001,910,
WANDER,vandra,marschera,spatsera,3,marschera,spatsera,vandra,Arm,arm,0,27,27,106,0,0,0,0,,,,,,,,,,,,,1,7.629,,,,2018_Jun_19_1101,59.6362770948,verb_norming,001,910,
WANDER,vandra,marschera,spatsera,3,marschera,spatsera,vandra,Leg,leg,0,27,27,106,0,1,1,1,,,,,,,,,,,,,7,1.598,,,,2018_Jun_19_1101,59.6362770948,verb_norming,001,910,
WANDER,vandra,marschera,spatsera,3,marschera,spatsera,vandra,,,0,27,27,106,,,,,,,,,,,,,,,,,,,3,1,2.46615865199,2018_Jun_19_1101,59.6362770948,verb_norming,001,910,
FOLD,vika ihop,knyta ihop,bunta ihop,3,bunta ihop,knyta ihop,vika ihop,Arm,arm,0,28,28,24,0,0,0,0,,,,,,,,,,,,,7,8.085,,,,2018_Jun_19_1101,59.6362770948,verb_norming,001,910,
FOLD,vika ihop,knyta ihop,bunta ihop,3,bunta ihop,knyta ihop,vika ihop,Leg,leg,0,28,28,24,0,1,1,1,,,,,,,,,,,,,3,6.33,,,,2018_Jun_19_1101,59.6362770948,verb_norming,001,910,
FOLD,vika ihop,knyta ihop,bunta ihop,3,bunta ihop,knyta ihop,vika ihop,,,0,28,28,24,,,,,,,,,,,,,,,,,,,3,1,3.17062599915,2018_Jun_19_1101,59.6362770948,verb_norming,001,910,
PINCH,nypa,plocka,pensla,1,nypa,plocka,pensla,Arm,arm,0,29,29,48,0,0,0,0,,,,,,,,,,,,,7,11.604,,,,2018_Jun_19_1101,59.6362770948,verb_norming,001,910,
PINCH,nypa,plocka,pensla,1,nypa,plocka,pensla,Leg,leg,0,29,29,48,0,1,1,1,,,,,,,,,,,,,1,4.816,,,,2018_Jun_19_1101,59.6362770948,verb_norming,001,910,
PINCH,nypa,plocka,pensla,1,nypa,plocka,pensla,,,0,29,29,48,,,,,,,,,,,,,,,,,,,1,1,4.99845627915,2018_Jun_19_1101,59.6362770948,verb_norming,001,910,
KNEEL,knäböja,krypa,kräla,3,kräla,krypa,knäböja,Arm,arm,0,30,30,37,0,0,0,0,,,,,,,,,,,,,1,4.642,,,,2018_Jun_19_1101,59.6362770948,verb_norming,001,910,
KNEEL,knäböja,krypa,kräla,3,kräla,krypa,knäböja,Leg,leg,0,30,30,37,0,1,1,1,,,,,,,,,,,,,7,3.255,,,,2018_Jun_19_1101,59.6362770948,verb_norming,001,910,
KNEEL,knäböja,krypa,kräla,3,kräla,krypa,knäböja,,,0,30,30,37,,,,,,,,,,,,,,,,,,,3,1,3.06993762688,2018_Jun_19_1101,59.6362770948,verb_norming,001,910,
POLISH,polera,sopa,tvätta,3,sopa,tvätta,polera,Arm,arm,0,31,31,52,0,0,0,0,,,,,,,,,,,,,7,3.568,,,,2018_Jun_19_1101,59.6362770948,verb_norming,001,910,
POLISH,polera,sopa,tvätta,3,sopa,tvätta,polera,Leg,leg,0,31,31,52,0,1,1,1,,,,,,,,,,,,,1,1.896,,,,2018_Jun_19_1101,59.6362770948,verb_norming,001,910,
POLISH,polera,sopa,tvätta,3,sopa,tvätta,polera,,,0,31,31,52,,,,,,,,,,,,,,,,,,,3,1,2.95249038088,2018_Jun_19_1101,59.6362770948,verb_norming,001,910,
WADE,vada,pulsa,plöja,2,pulsa,vada,plöja,Arm,arm,0,32,32,104,0,0,0,0,,,,,,,,,,,,,1,5.17,,,,2018_Jun_19_1101,59.6362770948,verb_norming,001,910,
WADE,vada,pulsa,plöja,2,pulsa,vada,plöja,Leg,leg,0,32,32,104,0,1,1,1,,,,,,,,,,,,,7,1.881,,,,2018_Jun_19_1101,59.6362770948,verb_norming,001,910,
WADE,vada,pulsa,plöja,2,pulsa,vada,plöja,,,0,32,32,104,,,,,,,,,,,,,,,,,,,2,1,4.16010799329,2018_Jun_19_1101,59.6362770948,verb_norming,001,910,
TROT,trava,promenera,flanera,1,trava,promenera,flanera,Arm,arm,0,33,33,100,0,0,0,0,,,,,,,,,,,,,1,4.566,,,,2018_Jun_19_1101,59.6362770948,verb_norming,001,910,
TROT,trava,promenera,flanera,1,trava,promenera,flanera,Leg,leg,0,33,33,100,0,1,1,1,,,,,,,,,,,,,7,1.966,,,,2018_Jun_19_1101,59.6362770948,verb_norming,001,910,
TROT,trava,promenera,flanera,1,trava,promenera,flanera,,,0,33,33,100,,,,,,,,,,,,,,,,,,,1,1,4.32739999795,2018_Jun_19_1101,59.6362770948,verb_norming,001,910,
PACE,gå fram och tillbaka,luffa runt,rusa fram,3,luffa runt,rusa fram,gå fram och tillbaka,Arm,arm,0,34,34,45,0,0,0,0,,,,,,,,,,,,,4,7.599,,,,2018_Jun_19_1101,59.6362770948,verb_norming,001,910,
PACE,gå fram och tillbaka,luffa runt,rusa fram,3,luffa runt,rusa fram,gå fram och tillbaka,Leg,leg,0,34,34,45,0,1,1,1,,,,,,,,,,,,,6,9.583,,,,2018_Jun_19_1101,59.6362770948,verb_norming,001,910,
PACE,gå fram och tillbaka,luffa runt,rusa fram,3,luffa runt,rusa fram,gå fram och tillbaka,,,0,34,34,45,,,,,,,,,,,,,,,,,,,3,1,4.36132550581,2018_Jun_19_1101,59.6362770948,verb_norming,001,910,
TUG,rycka,pressa,slå,1,rycka,pressa,slå,Arm,arm,0,35,35,102,0,0,0,0,,,,,,,,,,,,,7,3.46,,,,2018_Jun_19_1101,59.6362770948,verb_norming,001,910,
TUG,rycka,pressa,slå,1,rycka,pressa,slå,Leg,leg,0,35,35,102,0,1,1,1,,,,,,,,,,,,,2,2.421,,,,2018_Jun_19_1101,59.6362770948,verb_norming,001,910,
TUG,rycka,pressa,slå,1,rycka,pressa,slå,,,0,35,35,102,,,,,,,,,,,,,,,,,,,1,1,6.94391239789,2018_Jun_19_1101,59.6362770948,verb_norming,001,910,
PLOD,lunka,pulsa,vingla,1,lunka,vingla,pulsa,Arm,arm,0,36,36,49,0,0,0,0,,,,,,,,,,,,,1,9.591,,,,2018_Jun_19_1101,59.6362770948,verb_norming,001,910,
PLOD,lunka,pulsa,vingla,1,lunka,vingla,pulsa,Leg,leg,0,36,36,49,0,1,1,1,,,,,,,,,,,,,5,1.293,,,,2018_Jun_19_1101,59.6362770948,verb_norming,001,910,
PLOD,lunka,pulsa,vingla,1,lunka,vingla,pulsa,,,0,36,36,49,,,,,,,,,,,,,,,,,,,3,0,4.24380950951,2018_Jun_19_1101,59.6362770948,verb_norming,001,910,
GRIP,gripa om,hålla om,kasta om,2,kasta om,gripa om,hålla om,Arm,arm,0,37,37,29,0,0,0,0,,,,,,,,,,,,,7,5.405,,,,2018_Jun_19_1101,59.6362770948,verb_norming,001,910,
GRIP,gripa om,hålla om,kasta om,2,kasta om,gripa om,hålla om,Leg,leg,0,37,37,29,0,1,1,1,,,,,,,,,,,,,4,7.666,,,,2018_Jun_19_1101,59.6362770948,verb_norming,001,910,
GRIP,gripa om,hålla om,kasta om,2,kasta om,gripa om,hålla om,,,0,37,37,29,,,,,,,,,,,,,,,,,,,2,1,14.5079133967,2018_Jun_19_1101,59.6362770948,verb_norming,001,910,
TIPTOE,gå på tå,snava,sparka,2,snava,gå på tå,sparka,Arm,arm,0,38,38,95,0,0,0,0,,,,,,,,,,,,,1,5.214,,,,2018_Jun_19_1101,59.6362770948,verb_norming,001,910,
TIPTOE,gå på tå,snava,sparka,2,snava,gå på tå,sparka,Leg,leg,0,38,38,95,0,1,1,1,,,,,,,,,,,,,7,2.17,,,,2018_Jun_19_1101,59.6362770948,verb_norming,001,910,
TIPTOE,gå på tå,snava,sparka,2,snava,gå på tå,sparka,,,0,38,38,95,,,,,,,,,,,,,,,,,,,2,1,3.70714623821,2018_Jun_19_1101,59.6362770948,verb_norming,001,910,
MARCH,marschera,trava,traska,1,marschera,trava,traska,Arm,arm,0,39,39,42,0,0,0,0,,,,,,,,,,,,,1,3.763,,,,2018_Jun_19_1101,59.6362770948,verb_norming,001,910,
MARCH,marschera,trava,traska,1,marschera,trava,traska,Leg,leg,0,39,39,42,0,1,1,1,,,,,,,,,,,,,7,2.122,,,,2018_Jun_19_1101,59.6362770948,verb_norming,001,910,
MARCH,marschera,trava,traska,1,marschera,trava,traska,,,0,39,39,42,,,,,,,,,,,,,,,,,,,1,1,2.18112108825,2018_Jun_19_1101,59.6362770948,verb_norming,001,910,
PUNCH,slå,knuffa,kasta,1,slå,knuffa,kasta,Arm,arm,0,40,40,55,0,0,0,0,,,,,,,,,,,,,7,2.89,,,,2018_Jun_19_1101,59.6362770948,verb_norming,001,910,
PUNCH,slå,knuffa,kasta,1,slå,knuffa,kasta,Leg,leg,0,40,40,55,0,1,1,1,,,,,,,,,,,,,1,1.578,,,,2018_Jun_19_1101,59.6362770948,verb_norming,001,910,
PUNCH,slå,knuffa,kasta,1,slå,knuffa,kasta,,,0,40,40,55,,,,,,,,,,,,,,,,,,,1,1,3.84158389631,2018_Jun_19_1101,59.6362770948,verb_norming,001,910,
CREEP,krypa,knäböja,klättra,1,krypa,klättra,knäböja,Arm,arm,0,41,41,15,0,0,0,0,,,,,,,,,,,,,1,3.713,,,,2018_Jun_19_1101,59.6362770948,verb_norming,001,910,
CREEP,krypa,knäböja,klättra,1,krypa,klättra,knäböja,Leg,leg,0,41,41,15,0,1,1,1,,,,,,,,,,,,,7,3.194,,,,2018_Jun_19_1101,59.6362770948,verb_norming,001,910,
CREEP,krypa,knäböja,klättra,1,krypa,klättra,knäböja,,,0,41,41,15,,,,,,,,,,,,,,,,,,,1,1,3.53923231991,2018_Jun_19_1101,59.6362770948,verb_norming,001,910,
WIPE,torka,putsa,gnugga,3,putsa,gnugga,torka,Arm,arm,0,42,42,109,0,0,0,0,,,,,,,,,,,,,7,2.285,,,,2018_Jun_19_1101,59.6362770948,verb_norming,001,910,
WIPE,torka,putsa,gnugga,3,putsa,gnugga,torka,Leg,leg,0,42,42,109,0,1,1,1,,,,,,,,,,,,,1,9.63,,,,2018_Jun_19_1101,59.6362770948,verb_norming,001,910,
WIPE,torka,putsa,gnugga,3,putsa,gnugga,torka,,,0,42,42,109,,,,,,,,,,,,,,,,,,,2,0,7.17877370009,2018_Jun_19_1101,59.6362770948,verb_norming,001,910,
RUN,springa,rusa,jogga,3,jogga,rusa,springa,Arm,arm,0,43,43,61,0,0,0,0,,,,,,,,,,,,,1,10.397,,,,2018_Jun_19_1101,59.6362770948,verb_norming,001,910,
RUN,springa,rusa,jogga,3,jogga,rusa,springa,Leg,leg,0,43,43,61,0,1,1,1,,,,,,,,,,,,,7,6.097,,,,2018_Jun_19_1101,59.6362770948,verb_norming,001,910,
RUN,springa,rusa,jogga,3,jogga,rusa,springa,,,0,43,43,61,,,,,,,,,,,,,,,,,,,3,1,3.99239005286,2018_Jun_19_1101,59.6362770948,verb_norming,001,910,
SKATE,åka skridskor,åka skidor,åka kälke,1,åka skridskor,åka kälke,åka skidor,Arm,arm,0,44,44,70,0,0,0,0,,,,,,,,,,,,,1,5.069,,,,2018_Jun_19_1101,59.6362770948,verb_norming,001,910,
SKATE,åka skridskor,åka skidor,åka kälke,1,åka skridskor,åka kälke,åka skidor,Leg,leg,0,44,44,70,0,1,1,1,,,,,,,,,,,,,5,4.031,,,,2018_Jun_19_1101,59.6362770948,verb_norming,001,910,
SKATE,åka skridskor,åka skidor,åka kälke,1,åka skridskor,åka kälke,åka skidor,,,0,44,44,70,,,,,,,,,,,,,,,,,,,1,1,6.39053964245,2018_Jun_19_1101,59.6362770948,verb_norming,001,910,
BRUSH,borsta,skrubba,putsa,2,putsa,borsta,skrubba,Arm,arm,0,45,45,4,0,0,0,0,,,,,,,,,,,,,7,7.007,,,,2018_Jun_19_1101,59.6362770948,verb_norming,001,910,
BRUSH,borsta,skrubba,putsa,2,putsa,borsta,skrubba,Leg,leg,0,45,45,4,0,1,1,1,,,,,,,,,,,,,1,3.025,,,,2018_Jun_19_1101,59.6362770948,verb_norming,001,910,
BRUSH,borsta,skrubba,putsa,2,putsa,borsta,skrubba,,,0,45,45,4,,,,,,,,,,,,,,,,,,,2,1,4.19368263755,2018_Jun_19_1101,59.6362770948,verb_norming,001,910,
PEEL,skala,rensa,plocka,1,skala,rensa,plocka,Arm,arm,0,46,46,47,0,0,0,0,,,,,,,,,,,,,7,5.069,,,,2018_Jun_19_1101,59.6362770948,verb_norming,001,910,
PEEL,skala,rensa,plocka,1,skala,rensa,plocka,Leg,leg,0,46,46,47,0,1,1,1,,,,,,,,,,,,,1,2.338,,,,2018_Jun_19_1101,59.6362770948,verb_norming,001,910,
PEEL,skala,rensa,plocka,1,skala,rensa,plocka,,,0,46,46,47,,,,,,,,,,,,,,,,,,,1,1,6.42423598264,2018_Jun_19_1101,59.6362770948,verb_norming,001,910,
KNOCK,knacka,krocka,klicka,1,knacka,klicka,krocka,Arm,arm,0,47,47,38,0,0,0,0,,,,,,,,,,,,,7,3.238,,,,2018_Jun_19_1101,59.6362770948,verb_norming,001,910,
KNOCK,knacka,krocka,klicka,1,knacka,klicka,krocka,Leg,leg,0,47,47,38,0,1,1,1,,,,,,,,,,,,,1,12.73,,,,2018_Jun_19_1101,59.6362770948,verb_norming,001,910,
KNOCK,knacka,krocka,klicka,1,knacka,klicka,krocka,,,0,47,47,38,,,,,,,,,,,,,,,,,,,1,1,2.4828460096,2018_Jun_19_1101,59.6362770948,verb_norming,001,910,
TREAD,trampa,stampa,klampa,1,trampa,stampa,klampa,Arm,arm,0,48,48,98,0,0,0,0,,,,,,,,,,,,,1,5.901,,,,2018_Jun_19_1101,59.6362770948,verb_norming,001,910,
TREAD,trampa,stampa,klampa,1,trampa,stampa,klampa,Leg,leg,0,48,48,98,0,1,1,1,,,,,,,,,,,,,7,1.885,,,,2018_Jun_19_1101,59.6362770948,verb_norming,001,910,
TREAD,trampa,stampa,klampa,1,trampa,stampa,klampa,,,0,48,48,98,,,,,,,,,,,,,,,,,,,1,1,4.99830929575,2018_Jun_19_1101,59.6362770948,verb_norming,001,910,
SPRINT,spurta,springa,löpa,3,löpa,springa,spurta,Arm,arm,0,49,49,79,0,0,0,0,,,,,,,,,,,,,1,3.286,,,,2018_Jun_19_1101,59.6362770948,verb_norming,001,910,
SPRINT,spurta,springa,löpa,3,löpa,springa,spurta,Leg,leg,0,49,49,79,0,1,1,1,,,,,,,,,,,,,7,2.185,,,,2018_Jun_19_1101,59.6362770948,verb_norming,001,910,
SPRINT,spurta,springa,löpa,3,löpa,springa,spurta,,,0,49,49,79,,,,,,,,,,,,,,,,,,,3,1,2.1474970544,2018_Jun_19_1101,59.6362770948,verb_norming,001,910,
BRAID,fläta,knyta,binda,2,knyta,fläta,binda,Arm,arm,0,50,50,3,0,0,0,0,,,,,,,,,,,,,7,3.036,,,,2018_Jun_19_1101,59.6362770948,verb_norming,001,910,
BRAID,fläta,knyta,binda,2,knyta,fläta,binda,Leg,leg,0,50,50,3,0,1,1,1,,,,,,,,,,,,,1,1.377,,,,2018_Jun_19_1101,59.6362770948,verb_norming,001,910,
BRAID,fläta,knyta,binda,2,knyta,fläta,binda,,,0,50,50,3,,,,,,,,,,,,,,,,,,,2,1,2.81845613691,2018_Jun_19_1101,59.6362770948,verb_norming,001,910,
GRAB,gripa tag i,fästa ihop,smälla till,1,gripa tag i,fästa ihop,smälla till,Arm,arm,0,51,51,26,0,0,0,0,,,,,,,,,,,,,7,3.123,,,,2018_Jun_19_1101,59.6362770948,verb_norming,001,910,
GRAB,gripa tag i,fästa ihop,smälla till,1,gripa tag i,fästa ihop,smälla till,Leg,leg,0,51,51,26,0,1,1,1,,,,,,,,,,,,,1,9.836,,,,2018_Jun_19_1101,59.6362770948,verb_norming,001,910,
GRAB,gripa tag i,fästa ihop,smälla till,1,gripa tag i,fästa ihop,smälla till,,,0,51,51,26,,,,,,,,,,,,,,,,,,,1,1,2.85013422113,2018_Jun_19_1101,59.6362770948,verb_norming,001,910,
SLAP,smälla till,knäppa fast,klämma åt,2,knäppa fast,smälla till,klämma åt,Arm,arm,0,52,52,73,0,0,0,0,,,,,,,,,,,,,7,3.829,,,,2018_Jun_19_1101,59.6362770948,verb_norming,001,910,
SLAP,smälla till,knäppa fast,klämma åt,2,knäppa fast,smälla till,klämma åt,Leg,leg,0,52,52,73,0,1,1,1,,,,,,,,,,,,,1,1.383,,,,2018_Jun_19_1101,59.6362770948,verb_norming,001,910,
SLAP,smälla till,knäppa fast,klämma åt,2,knäppa fast,smälla till,klämma åt,,,0,52,52,73,,,,,,,,,,,,,,,,,,,2,1,2.80156845515,2018_Jun_19_1101,59.6362770948,verb_norming,001,910,
DANCE,dansa,snurra,svänga,1,dansa,svänga,snurra,Arm,arm,0,53,53,17,0,0,0,0,,,,,,,,,,,,,6,8.587,,,,2018_Jun_19_1101,59.6362770948,verb_norming,001,910,
DANCE,dansa,snurra,svänga,1,dansa,svänga,snurra,Leg,leg,0,53,53,17,0,1,1,1,,,,,,,,,,,,,6,4.386,,,,2018_Jun_19_1101,59.6362770948,verb_norming,001,910,
DANCE,dansa,snurra,svänga,1,dansa,svänga,snurra,,,0,53,53,17,,,,,,,,,,,,,,,,,,,1,1,3.019611221,2018_Jun_19_1101,59.6362770948,verb_norming,001,910,
CLAW,klösa,nypa,rispa,2,rispa,klösa,nypa,Arm,arm,0,54,54,9,0,0,0,0,,,,,,,,,,,,,7,6.362,,,,2018_Jun_19_1101,59.6362770948,verb_norming,001,910,
CLAW,klösa,nypa,rispa,2,rispa,klösa,nypa,Leg,leg,0,54,54,9,0,1,1,1,,,,,,,,,,,,,6,2.906,,,,2018_Jun_19_1101,59.6362770948,verb_norming,001,910,
CLAW,klösa,nypa,rispa,2,rispa,klösa,nypa,,,0,54,54,9,,,,,,,,,,,,,,,,,,,2,1,5.43442406608,2018_Jun_19_1101,59.6362770948,verb_norming,001,910,
TRUDGE,släpa sig fram,kasta sig fram,ta sig fram,1,släpa sig fram,ta sig fram,kasta sig fram,Arm,arm,0,55,55,101,0,0,0,0,,,,,,,,,,,,,1,9.057,,,,2018_Jun_19_1101,59.6362770948,verb_norming,001,910,
TRUDGE,släpa sig fram,kasta sig fram,ta sig fram,1,släpa sig fram,ta sig fram,kasta sig fram,Leg,leg,0,55,55,101,0,1,1,1,,,,,,,,,,,,,7,1.125,,,,2018_Jun_19_1101,59.6362770948,verb_norming,001,910,
TRUDGE,släpa sig fram,kasta sig fram,ta sig fram,1,släpa sig fram,ta sig fram,kasta sig fram,,,0,55,55,101,,,,,,,,,,,,,,,,,,,1,1,3.40507993605,2018_Jun_19_1101,59.6362770948,verb_norming,001,910,
THROW,kasta,greppa,träffa,2,träffa,kasta,greppa,Arm,arm,0,56,56,94,0,0,0,0,,,,,,,,,,,,,7,3.673,,,,2018_Jun_19_1101,59.6362770948,verb_norming,001,910,
THROW,kasta,greppa,träffa,2,träffa,kasta,greppa,Leg,leg,0,56,56,94,0,1,1,1,,,,,,,,,,,,,1,1.581,,,,2018_Jun_19_1101,59.6362770948,verb_norming,001,910,
THROW,kasta,greppa,träffa,2,träffa,kasta,greppa,,,0,56,56,94,,,,,,,,,,,,,,,,,,,2,1,2.18077496604,2018_Jun_19_1101,59.6362770948,verb_norming,001,910,
STAB,sticka,hacka,skära,3,skära,hacka,sticka,Arm,arm,0,57,57,81,0,0,0,0,,,,,,,,,,,,,7,3.56,,,,2018_Jun_19_1101,59.6362770948,verb_norming,001,910,
STAB,sticka,hacka,skära,3,skära,hacka,sticka,Leg,leg,0,57,57,81,0,1,1,1,,,,,,,,,,,,,1,1.568,,,,2018_Jun_19_1101,59.6362770948,verb_norming,001,910,
STAB,sticka,hacka,skära,3,skära,hacka,sticka,,,0,57,57,81,,,,,,,,,,,,,,,,,,,3,1,4.02586552283,2018_Jun_19_1101,59.6362770948,verb_norming,001,910,
STRUT,svassa,lunka,strosa,3,lunka,strosa,svassa,Arm,arm,0,58,58,90,0,0,0,0,,,,,,,,,,,,,1,2.602,,,,2018_Jun_19_1101,59.6362770948,verb_norming,001,910,
STRUT,svassa,lunka,strosa,3,lunka,strosa,svassa,Leg,leg,0,58,58,90,0,1,1,1,,,,,,,,,,,,,7,1.128,,,,2018_Jun_19_1101,59.6362770948,verb_norming,001,910,
STRUT,svassa,lunka,strosa,3,lunka,strosa,svassa,,,0,58,58,90,,,,,,,,,,,,,,,,,,,3,1,4.64640060563,2018_Jun_19_1101,59.6362770948,verb_norming,001,910,
FLIT,rusa,hasa,svassa,1,rusa,hasa,svassa,Arm,arm,0,59,59,23,0,0,0,0,,,,,,,,,,,,,5,11.905,,,,2018_Jun_19_1101,59.6362770948,verb_norming,001,910,
FLIT,rusa,hasa,svassa,1,rusa,hasa,svassa,Leg,leg,0,59,59,23,0,1,1,1,,,,,,,,,,,,,1,3.276,,,,2018_Jun_19_1101,59.6362770948,verb_norming,001,910,
FLIT,rusa,hasa,svassa,1,rusa,hasa,svassa,,,0,59,59,23,,,,,,,,,,,,,,,,,,,2,0,10.4157943149,2018_Jun_19_1101,59.6362770948,verb_norming,001,910,
HIKE,vandra,flanera,lunka,2,lunka,vandra,flanera,Arm,arm,0,60,60,31,0,0,0,0,,,,,,,,,,,,,1,3.625,,,,2018_Jun_19_1101,59.6362770948,verb_norming,001,910,
HIKE,vandra,flanera,lunka,2,lunka,vandra,flanera,Leg,leg,0,60,60,31,0,1,1,1,,,,,,,,,,,,,7,1.619,,,,2018_Jun_19_1101,59.6362770948,verb_norming,001,910,
HIKE,vandra,flanera,lunka,2,lunka,vandra,flanera,,,0,60,60,31,,,,,,,,,,,,,,,,,,,2,1,4.17680167277,2018_Jun_19_1101,59.6362770948,verb_norming,001,910,
CHOP,hacka,tälja,riva,2,tälja,hacka,riva,Arm,arm,0,61,61,7,0,0,0,0,,,,,,,,,,,,,7,4.194,,,,2018_Jun_19_1101,59.6362770948,verb_norming,001,910,
CHOP,hacka,tälja,riva,2,tälja,hacka,riva,Leg,leg,0,61,61,7,0,1,1,1,,,,,,,,,,,,,2,0.894,,,,2018_Jun_19_1101,59.6362770948,verb_norming,001,910,
CHOP,hacka,tälja,riva,2,tälja,hacka,riva,,,0,61,61,7,,,,,,,,,,,,,,,,,,,2,1,1.76168814389,2018_Jun_19_1101,59.6362770948,verb_norming,001,910,
POKE,peta,trycka,knuffa,2,trycka,peta,knuffa,Arm,arm,0,62,62,51,0,0,0,0,,,,,,,,,,,,,7,4.895,,,,2018_Jun_19_1101,59.6362770948,verb_norming,001,910,
POKE,peta,trycka,knuffa,2,trycka,peta,knuffa,Leg,leg,0,62,62,51,0,1,1,1,,,,,,,,,,,,,3,6.275,,,,2018_Jun_19_1101,59.6362770948,verb_norming,001,910,
POKE,peta,trycka,knuffa,2,trycka,peta,knuffa,,,0,62,62,51,,,,,,,,,,,,,,,,,,,2,1,3.52261292237,2018_Jun_19_1101,59.6362770948,verb_norming,001,910,
WALK,gå,promenera,marschera,2,marschera,gå,promenera,Arm,arm,0,63,63,105,0,0,0,0,,,,,,,,,,,,,1,2.874,,,,2018_Jun_19_1101,59.6362770948,verb_norming,001,910,
WALK,gå,promenera,marschera,2,marschera,gå,promenera,Leg,leg,0,63,63,105,0,1,1,1,,,,,,,,,,,,,7,0.924,,,,2018_Jun_19_1101,59.6362770948,verb_norming,001,910,
WALK,gå,promenera,marschera,2,marschera,gå,promenera,,,0,63,63,105,,,,,,,,,,,,,,,,,,,3,0,14.960740417,2018_Jun_19_1101,59.6362770948,verb_norming,001,910,
SNEAK,smyga,hasa,glida,3,hasa,glida,smyga,Arm,arm,0,64,64,78,0,0,0,0,,,,,,,,,,,,,2,6.58,,,,2018_Jun_19_1101,59.6362770948,verb_norming,001,910,
SNEAK,smyga,hasa,glida,3,hasa,glida,smyga,Leg,leg,0,64,64,78,0,1,1,1,,,,,,,,,,,,,7,2.872,,,,2018_Jun_19_1101,59.6362770948,verb_norming,001,910,
SNEAK,smyga,hasa,glida,3,hasa,glida,smyga,,,0,64,64,78,,,,,,,,,,,,,,,,,,,3,1,2.36513719636,2018_Jun_19_1101,59.6362770948,verb_norming,001,910,
SHAKE,skaka,röra,vispa,1,skaka,röra,vispa,Arm,arm,0,65,65,69,0,0,0,0,,,,,,,,,,,,,7,3.476,,,,2018_Jun_19_1101,59.6362770948,verb_norming,001,910,
SHAKE,skaka,röra,vispa,1,skaka,röra,vispa,Leg,leg,0,65,65,69,0,1,1,1,,,,,,,,,,,,,3,5.805,,,,2018_Jun_19_1101,59.6362770948,verb_norming,001,910,
SHAKE,skaka,röra,vispa,1,skaka,röra,vispa,,,0,65,65,69,,,,,,,,,,,,,,,,,,,1,1,3.08664434521,2018_Jun_19_1101,59.6362770948,verb_norming,001,910,
JUMP,hoppa,kliva,lyfta,2,kliva,hoppa,lyfta,Arm,arm,0,66,66,35,0,0,0,0,,,,,,,,,,,,,1,4.022,,,,2018_Jun_19_1101,59.6362770948,verb_norming,001,910,
JUMP,hoppa,kliva,lyfta,2,kliva,hoppa,lyfta,Leg,leg,0,66,66,35,0,1,1,1,,,,,,,,,,,,,7,2.283,,,,2018_Jun_19_1101,59.6362770948,verb_norming,001,910,
JUMP,hoppa,kliva,lyfta,2,kliva,hoppa,lyfta,,,0,66,66,35,,,,,,,,,,,,,,,,,,,2,1,1.67795106717,2018_Jun_19_1101,59.6362770948,verb_norming,001,910,
RUB,gnugga,riva,klappa,3,klappa,riva,gnugga,Arm,arm,0,67,67,60,0,0,0,0,,,,,,,,,,,,,7,3.996,,,,2018_Jun_19_1101,59.6362770948,verb_norming,001,910,
RUB,gnugga,riva,klappa,3,klappa,riva,gnugga,Leg,leg,0,67,67,60,0,1,1,1,,,,,,,,,,,,,1,2.306,,,,2018_Jun_19_1101,59.6362770948,verb_norming,001,910,
RUB,gnugga,riva,klappa,3,klappa,riva,gnugga,,,0,67,67,60,,,,,,,,,,,,,,,,,,,3,1,2.01337390918,2018_Jun_19_1101,59.6362770948,verb_norming,001,910,
SCUFF,hasa sig fram,dra sig fram,kasta sig fram,2,dra sig fram,hasa sig fram,kasta sig fram,Arm,arm,0,68,68,67,0,0,0,0,,,,,,,,,,,,,6,10.186,,,,2018_Jun_19_1101,59.6362770948,verb_norming,001,910,
SCUFF,hasa sig fram,dra sig fram,kasta sig fram,2,dra sig fram,hasa sig fram,kasta sig fram,Leg,leg,0,68,68,67,0,1,1,1,,,,,,,,,,,,,6,0.911,,,,2018_Jun_19_1101,59.6362770948,verb_norming,001,910,
SCUFF,hasa sig fram,dra sig fram,kasta sig fram,2,dra sig fram,hasa sig fram,kasta sig fram,,,0,68,68,67,,,,,,,,,,,,,,,,,,,2,1,11.9584380722,2018_Jun_19_1101,59.6362770948,verb_norming,001,910,
STRAY,ströva,vandra,promenera,2,vandra,ströva,promenera,Arm,arm,0,69,69,87,0,0,0,0,,,,,,,,,,,,,3,11.569,,,,2018_Jun_19_1101,59.6362770948,verb_norming,001,910,
STRAY,ströva,vandra,promenera,2,vandra,ströva,promenera,Leg,leg,0,69,69,87,0,1,1,1,,,,,,,,,,,,,5,1.392,,,,2018_Jun_19_1101,59.6362770948,verb_norming,001,910,
STRAY,ströva,vandra,promenera,2,vandra,ströva,promenera,,,0,69,69,87,,,,,,,,,,,,,,,,,,,2,1,3.5729310308,2018_Jun_19_1101,59.6362770948,verb_norming,001,910,
CARVE,tälja,hacka,riva,3,hacka,riva,tälja,Arm,arm,0,70,70,5,0,0,0,0,,,,,,,,,,,,,7,4.347,,,,2018_Jun_19_1101,59.6362770948,verb_norming,001,910,
CARVE,tälja,hacka,riva,3,hacka,riva,tälja,Leg,leg,0,70,70,5,0,1,1,1,,,,,,,,,,,,,1,2.621,,,,2018_Jun_19_1101,59.6362770948,verb_norming,001,910,
CARVE,tälja,hacka,riva,3,hacka,riva,tälja,,,0,70,70,5,,,,,,,,,,,,,,,,,,,3,1,2.54980050559,2018_Jun_19_1101,59.6362770948,verb_norming,001,910,
STROLL,strosa,trava,marschera,2,marschera,strosa,trava,Arm,arm,0,71,71,89,0,0,0,0,,,,,,,,,,,,,1,3.791,,,,2018_Jun_19_1101,59.6362770948,verb_norming,001,910,
STROLL,strosa,trava,marschera,2,marschera,strosa,trava,Leg,leg,0,71,71,89,0,1,1,1,,,,,,,,,,,,,7,1.581,,,,2018_Jun_19_1101,59.6362770948,verb_norming,001,910,
STROLL,strosa,trava,marschera,2,marschera,strosa,trava,,,0,71,71,89,,,,,,,,,,,,,,,,,,,2,1,3.1703095107,2018_Jun_19_1101,59.6362770948,verb_norming,001,910,
CRAWL,kravla,huka,klättra,1,kravla,huka,klättra,Arm,arm,0,72,72,14,0,0,0,0,,,,,,,,,,,,,5,13.958,,,,2018_Jun_19_1101,59.6362770948,verb_norming,001,910,
CRAWL,kravla,huka,klättra,1,kravla,huka,klättra,Leg,leg,0,72,72,14,0,1,1,1,,,,,,,,,,,,,7,5.522,,,,2018_Jun_19_1101,59.6362770948,verb_norming,001,910,
CRAWL,kravla,huka,klättra,1,kravla,huka,klättra,,,0,72,72,14,,,,,,,,,,,,,,,,,,,1,1,4.27723242896,2018_Jun_19_1101,59.6362770948,verb_norming,001,910,
STIR,röra,sleva,vispa,1,röra,vispa,sleva,Arm,arm,0,73,73,85,0,0,0,0,,,,,,,,,,,,,7,3.519,,,,2018_Jun_19_1101,59.6362770948,verb_norming,001,910,
STIR,röra,sleva,vispa,1,röra,vispa,sleva,Leg,leg,0,73,73,85,0,1,1,1,,,,,,,,,,,,,1,1.545,,,,2018_Jun_19_1101,59.6362770948,verb_norming,001,910,
STIR,röra,sleva,vispa,1,röra,vispa,sleva,,,0,73,73,85,,,,,,,,,,,,,,,,,,,2,0,3.25423624342,2018_Jun_19_1101,59.6362770948,verb_norming,001,910,
PUSH,knuffa,kasta,klämma,1,knuffa,klämma,kasta,Arm,arm,0,74,74,56,0,0,0,0,,,,,,,,,,,,,7,8.57,,,,2018_Jun_19_1101,59.6362770948,verb_norming,001,910,
PUSH,knuffa,kasta,klämma,1,knuffa,klämma,kasta,Leg,leg,0,74,74,56,0,1,1,1,,,,,,,,,,,,,6,1.116,,,,2018_Jun_19_1101,59.6362770948,verb_norming,001,910,
PUSH,knuffa,kasta,klämma,1,knuffa,klämma,kasta,,,0,74,74,56,,,,,,,,,,,,,,,,,,,1,1,5.71978364991,2018_Jun_19_1101,59.6362770948,verb_norming,001,910,
INCH,röra sig långsamt framåt,dra sig snabbt tillbaka,hasa sig bakåt,2,dra sig snabbt tillbaka,röra sig långsamt framåt,hasa sig bakåt,Arm,arm,0,75,75,33,0,0,0,0,,,,,,,,,,,,,4,10.683,,,,2018_Jun_19_1101,59.6362770948,verb_norming,001,910,
INCH,röra sig långsamt framåt,dra sig snabbt tillbaka,hasa sig bakåt,2,dra sig snabbt tillbaka,röra sig långsamt framåt,hasa sig bakåt,Leg,leg,0,75,75,33,0,1,1,1,,,,,,,,,,,,,4,1.729,,,,2018_Jun_19_1101,59.6362770948,verb_norming,001,910,
INCH,röra sig långsamt framåt,dra sig snabbt tillbaka,hasa sig bakåt,2,dra sig snabbt tillbaka,röra sig långsamt framåt,hasa sig bakåt,,,0,75,75,33,,,,,,,,,,,,,,,,,,,2,1,5.80362701302,2018_Jun_19_1101,59.6362770948,verb_norming,001,910,
DELVE,gräva,plöja,rensa,2,rensa,gräva,plöja,Arm,arm,0,76,76,18,0,0,0,0,,,,,,,,,,,,,4,9.06,,,,2018_Jun_19_1101,59.6362770948,verb_norming,001,910,
DELVE,gräva,plöja,rensa,2,rensa,gräva,plöja,Leg,leg,0,76,76,18,0,1,1,1,,,,,,,,,,,,,4,0.876,,,,2018_Jun_19_1101,59.6362770948,verb_norming,001,910,
DELVE,gräva,plöja,rensa,2,rensa,gräva,plöja,,,0,76,76,18,,,,,,,,,,,,,,,,,,,3,0,11.7572612567,2018_Jun_19_1101,59.6362770948,verb_norming,001,910,
DIG,gräva,dränera,dika,2,dränera,gräva,dika,Arm,arm,0,77,77,19,0,0,0,0,,,,,,,,,,,,,7,3.745,,,,2018_Jun_19_1101,59.6362770948,verb_norming,001,910,
DIG,gräva,dränera,dika,2,dränera,gräva,dika,Leg,leg,0,77,77,19,0,1,1,1,,,,,,,,,,,,,3,1.735,,,,2018_Jun_19_1101,59.6362770948,verb_norming,001,910,
DIG,gräva,dränera,dika,2,dränera,gräva,dika,,,0,77,77,19,,,,,,,,,,,,,,,,,,,2,1,3.30417464473,2018_Jun_19_1101,59.6362770948,verb_norming,001,910,
STAGGER,ragla,lunka,halka,2,lunka,ragla,halka,Arm,arm,0,78,78,82,0,0,0,0,,,,,,,,,,,,,1,3.45,,,,2018_Jun_19_1101,59.6362770948,verb_norming,001,910,
STAGGER,ragla,lunka,halka,2,lunka,ragla,halka,Leg,leg,0,78,78,82,0,1,1,1,,,,,,,,,,,,,7,0.841,,,,2018_Jun_19_1101,59.6362770948,verb_norming,001,910,
STAGGER,ragla,lunka,halka,2,lunka,ragla,halka,,,0,78,78,82,,,,,,,,,,,,,,,,,,,2,1,2.13078045816,2018_Jun_19_1101,59.6362770948,verb_norming,001,910,
ROAM,ströva omkring,ta sig fram,luffa runt,2,ta sig fram,ströva omkring,luffa runt,Arm,arm,0,79,79,58,0,0,0,0,,,,,,,,,,,,,1,3.241,,,,2018_Jun_19_1101,59.6362770948,verb_norming,001,910,
ROAM,ströva omkring,ta sig fram,luffa runt,2,ta sig fram,ströva omkring,luffa runt,Leg,leg,0,79,79,58,0,1,1,1,,,,,,,,,,,,,7,1.513,,,,2018_Jun_19_1101,59.6362770948,verb_norming,001,910,
ROAM,ströva omkring,ta sig fram,luffa runt,2,ta sig fram,ströva omkring,luffa runt,,,0,79,79,58,,,,,,,,,,,,,,,,,,,2,1,16.0504761551,2018_Jun_19_1101,59.6362770948,verb_norming,001,910,
CUT,skära,sticka,spetsa,1,skära,spetsa,sticka,Arm,arm,0,80,80,16,0,0,0,0,,,,,,,,,,,,,7,5.575,,,,2018_Jun_19_1101,59.6362770948,verb_norming,001,910,
CUT,skära,sticka,spetsa,1,skära,spetsa,sticka,Leg,leg,0,80,80,16,0,1,1,1,,,,,,,,,,,,,1,2.586,,,,2018_Jun_19_1101,59.6362770948,verb_norming,001,910,
CUT,skära,sticka,spetsa,1,skära,spetsa,sticka,,,0,80,80,16,,,,,,,,,,,,,,,,,,,1,1,4.31108286466,2018_Jun_19_1101,59.6362770948,verb_norming,001,910,
CLEAN,rengöra,rensa,plocka,1,rengöra,plocka,rensa,Arm,arm,0,81,81,10,0,0,0,0,,,,,,,,,,,,,6,4.666,,,,2018_Jun_19_1101,59.6362770948,verb_norming,001,910,
CLEAN,rengöra,rensa,plocka,1,rengöra,plocka,rensa,Leg,leg,0,81,81,10,0,1,1,1,,,,,,,,,,,,,1,2.305,,,,2018_Jun_19_1101,59.6362770948,verb_norming,001,910,
CLEAN,rengöra,rensa,plocka,1,rengöra,plocka,rensa,,,0,81,81,10,,,,,,,,,,,,,,,,,,,1,1,2.48259194958,2018_Jun_19_1101,59.6362770948,verb_norming,001,910,
PRANCE,kråma sig,promenera,traska,3,promenera,traska,kråma sig,Arm,arm,0,82,82,53,0,0,0,0,,,,,,,,,,,,,1,9.734,,,,2018_Jun_19_1101,59.6362770948,verb_norming,001,910,
PRANCE,kråma sig,promenera,traska,3,promenera,traska,kråma sig,Leg,leg,0,82,82,53,0,1,1,1,,,,,,,,,,,,,7,1.029,,,,2018_Jun_19_1101,59.6362770948,verb_norming,001,910,
PRANCE,kråma sig,promenera,traska,3,promenera,traska,kråma sig,,,0,82,82,53,,,,,,,,,,,,,,,,,,,2,0,22.8265101952,2018_Jun_19_1101,59.6362770948,verb_norming,001,910,
SCOOP,skyffla,dika,skrapa,1,skyffla,skrapa,dika,Arm,arm,0,83,83,63,0,0,0,0,,,,,,,,,,,,,6,4.493,,,,2018_Jun_19_1101,59.6362770948,verb_norming,001,910,
SCOOP,skyffla,dika,skrapa,1,skyffla,skrapa,dika,Leg,leg,0,83,83,63,0,1,1,1,,,,,,,,,,,,,1,3.795,,,,2018_Jun_19_1101,59.6362770948,verb_norming,001,910,
SCOOP,skyffla,dika,skrapa,1,skyffla,skrapa,dika,,,0,83,83,63,,,,,,,,,,,,,,,,,,,1,1,6.84182570771,2018_Jun_19_1101,59.6362770948,verb_norming,001,910,
SKIP,hoppa,kliva,strutta,2,kliva,hoppa,strutta,Arm,arm,0,84,84,72,0,0,0,0,,,,,,,,,,,,,1,5.996,,,,2018_Jun_19_1101,59.6362770948,verb_norming,001,910,
SKIP,hoppa,kliva,strutta,2,kliva,hoppa,strutta,Leg,leg,0,84,84,72,0,1,1,1,,,,,,,,,,,,,7,3.897,,,,2018_Jun_19_1101,59.6362770948,verb_norming,001,910,
SKIP,hoppa,kliva,strutta,2,kliva,hoppa,strutta,,,0,84,84,72,,,,,,,,,,,,,,,,,,,2,1,8.95668375415,2018_Jun_19_1101,59.6362770948,verb_norming,001,910,
SEIZE,fånga,klämma,fästa,2,fästa,fånga,klämma,Arm,arm,0,85,85,68,0,0,0,0,,,,,,,,,,,,,7,4.322,,,,2018_Jun_19_1101,59.6362770948,verb_norming,001,910,
SEIZE,fånga,klämma,fästa,2,fästa,fånga,klämma,Leg,leg,0,85,85,68,0,1,1,1,,,,,,,,,,,,,1,1.231,,,,2018_Jun_19_1101,59.6362770948,verb_norming,001,910,
SEIZE,fånga,klämma,fästa,2,fästa,fånga,klämma,,,0,85,85,68,,,,,,,,,,,,,,,,,,,2,1,15.7989812312,2018_Jun_19_1101,59.6362770948,verb_norming,001,910,
SLIDE,glida,ramla,hasa,2,ramla,glida,hasa,Arm,arm,0,86,86,74,0,0,0,0,,,,,,,,,,,,,4,17.479,,,,2018_Jun_19_1101,59.6362770948,verb_norming,001,910,
SLIDE,glida,ramla,hasa,2,ramla,glida,hasa,Leg,leg,0,86,86,74,0,1,1,1,,,,,,,,,,,,,4,1.514,,,,2018_Jun_19_1101,59.6362770948,verb_norming,001,910,
SLIDE,glida,ramla,hasa,2,ramla,glida,hasa,,,0,86,86,74,,,,,,,,,,,,,,,,,,,2,1,3.37162896332,2018_Jun_19_1101,59.6362770948,verb_norming,001,910,
TWINE,tvinna,binda,knyta,3,knyta,binda,tvinna,Arm,arm,0,87,87,103,0,0,0,0,,,,,,,,,,,,,7,5.222,,,,2018_Jun_19_1101,59.6362770948,verb_norming,001,910,
TWINE,tvinna,binda,knyta,3,knyta,binda,tvinna,Leg,leg,0,87,87,103,0,1,1,1,,,,,,,,,,,,,3,4.617,,,,2018_Jun_19_1101,59.6362770948,verb_norming,001,910,
TWINE,tvinna,binda,knyta,3,knyta,binda,tvinna,,,0,87,87,103,,,,,,,,,,,,,,,,,,,3,1,5.46770671912,2018_Jun_19_1101,59.6362770948,verb_norming,001,910,
SCRUB,skrubba,sopa,skrapa,3,sopa,skrapa,skrubba,Arm,arm,0,88,88,66,0,0,0,0,,,,,,,,,,,,,7,3.841,,,,2018_Jun_19_1101,59.6362770948,verb_norming,001,910,
SCRUB,skrubba,sopa,skrapa,3,sopa,skrapa,skrubba,Leg,leg,0,88,88,66,0,1,1,1,,,,,,,,,,,,,1,0.762,,,,2018_Jun_19_1101,59.6362770948,verb_norming,001,910,
SCRUB,skrubba,sopa,skrapa,3,sopa,skrapa,skrubba,,,0,88,88,66,,,,,,,,,,,,,,,,,,,3,1,2.88546831994,2018_Jun_19_1101,59.6362770948,verb_norming,001,910,
TRAIPSE,traska,stappla,vandra,2,stappla,traska,vandra,Arm,arm,0,89,89,97,0,0,0,0,,,,,,,,,,,,,4,16.339,,,,2018_Jun_19_1101,59.6362770948,verb_norming,001,910,
TRAIPSE,traska,stappla,vandra,2,stappla,traska,vandra,Leg,leg,0,89,89,97,0,1,1,1,,,,,,,,,,,,,4,0.573,,,,2018_Jun_19_1101,59.6362770948,verb_norming,001,910,
TRAIPSE,traska,stappla,vandra,2,stappla,traska,vandra,,,0,89,89,97,,,,,,,,,,,,,,,,,,,2,1,19.7574532834,2018_Jun_19_1101,59.6362770948,verb_norming,001,910,
SCRAPE,skrapa,rispa,klösa,2,rispa,skrapa,klösa,Arm,arm,0,90,90,64,0,0,0,0,,,,,,,,,,,,,6,4.92,,,,2018_Jun_19_1101,59.6362770948,verb_norming,001,910,
SCRAPE,skrapa,rispa,klösa,2,rispa,skrapa,klösa,Leg,leg,0,90,90,64,0,1,1,1,,,,,,,,,,,,,2,4.297,,,,2018_Jun_19_1101,59.6362770948,verb_norming,001,910,
SCRAPE,skrapa,rispa,klösa,2,rispa,skrapa,klösa,,,0,90,90,64,,,,,,,,,,,,,,,,,,,1,0,9.57689286569,2018_Jun_19_1101,59.6362770948,verb_norming,001,910,
SWAY,vingla,tassa,ramla,2,ramla,vingla,tassa,Arm,arm,0,91,91,92,0,0,0,0,,,,,,,,,,,,,1,5.935,,,,2018_Jun_19_1101,59.6362770948,verb_norming,001,910,
SWAY,vingla,tassa,ramla,2,ramla,vingla,tassa,Leg,leg,0,91,91,92,0,1,1,1,,,,,,,,,,,,,6,2.002,,,,2018_Jun_19_1101,59.6362770948,verb_norming,001,910,
SWAY,vingla,tassa,ramla,2,ramla,vingla,tassa,,,0,91,91,92,,,,,,,,,,,,,,,,,,,2,1,4.39479307345,2018_Jun_19_1101,59.6362770948,verb_norming,001,910,
GRATE,riva,hugga,rispa,3,rispa,hugga,riva,Arm,arm,0,92,92,28,0,0,0,0,,,,,,,,,,,,,7,3.284,,,,2018_Jun_19_1101,59.6362770948,verb_norming,001,910,
GRATE,riva,hugga,rispa,3,rispa,hugga,riva,Leg,leg,0,92,92,28,0,1,1,1,,,,,,,,,,,,,1,0.907,,,,2018_Jun_19_1101,59.6362770948,verb_norming,001,910,
GRATE,riva,hugga,rispa,3,rispa,hugga,riva,,,0,92,92,28,,,,,,,,,,,,,,,,,,,3,1,3.10333762957,2018_Jun_19_1101,59.6362770948,verb_norming,001,910,
WASH,tvätta,skura,sopa,1,tvätta,skura,sopa,Arm,arm,0,93,93,107,0,0,0,0,,,,,,,,,,,,,7,3.075,,,,2018_Jun_19_1101,59.6362770948,verb_norming,001,910,
WASH,tvätta,skura,sopa,1,tvätta,skura,sopa,Leg,leg,0,93,93,107,0,1,1,1,,,,,,,,,,,,,2,1.047,,,,2018_Jun_19_1101,59.6362770948,verb_norming,001,910,
WASH,tvätta,skura,sopa,1,tvätta,skura,sopa,,,0,93,93,107,,,,,,,,,,,,,,,,,,,1,1,2.14705096768,2018_Jun_19_1101,59.6362770948,verb_norming,001,910,
NIP,nypa,peta,nudda,1,nypa,peta,nudda,Arm,arm,0,94,94,44,0,0,0,0,,,,,,,,,,,,,7,3.913,,,,2018_Jun_19_1101,59.6362770948,verb_norming,001,910,
NIP,nypa,peta,nudda,1,nypa,peta,nudda,Leg,leg,0,94,94,44,0,1,1,1,,,,,,,,,,,,,1,1.298,,,,2018_Jun_19_1101,59.6362770948,verb_norming,001,910,
NIP,nypa,peta,nudda,1,nypa,peta,nudda,,,0,94,94,44,,,,,,,,,,,,,,,,,,,1,1,2.45050926588,2018_Jun_19_1101,59.6362770948,verb_norming,001,910,
WHIP,piska,klappa,slå,3,klappa,slå,piska,Arm,arm,0,95,95,108,0,0,0,0,,,,,,,,,,,,,7,3.88,,,,2018_Jun_19_1101,59.6362770948,verb_norming,001,910,
WHIP,piska,klappa,slå,3,klappa,slå,piska,Leg,leg,0,95,95,108,0,1,1,1,,,,,,,,,,,,,1,0.642,,,,2018_Jun_19_1101,59.6362770948,verb_norming,001,910,
WHIP,piska,klappa,slå,3,klappa,slå,piska,,,0,95,95,108,,,,,,,,,,,,,,,,,,,3,1,2.73430418768,2018_Jun_19_1101,59.6362770948,verb_norming,001,910,
LIMP,halta,hasa,halka,2,hasa,halta,halka,Arm,arm,0,96,96,41,0,0,0,0,,,,,,,,,,,,,1,3.304,,,,2018_Jun_19_1101,59.6362770948,verb_norming,001,910,
LIMP,halta,hasa,halka,2,hasa,halta,halka,Leg,leg,0,96,96,41,0,1,1,1,,,,,,,,,,,,,7,0.859,,,,2018_Jun_19_1101,59.6362770948,verb_norming,001,910,
LIMP,halta,hasa,halka,2,hasa,halta,halka,,,0,96,96,41,,,,,,,,,,,,,,,,,,,2,1,2.21414335939,2018_Jun_19_1101,59.6362770948,verb_norming,001,910,
STEP,gå,klampa,traska,1,gå,traska,klampa,Arm,arm,0,97,97,84,0,0,0,0,,,,,,,,,,,,,1,3.108,,,,2018_Jun_19_1101,59.6362770948,verb_norming,001,910,
STEP,gå,klampa,traska,1,gå,traska,klampa,Leg,leg,0,97,97,84,0,1,1,1,,,,,,,,,,,,,7,0.83,,,,2018_Jun_19_1101,59.6362770948,verb_norming,001,910,
STEP,gå,klampa,traska,1,gå,traska,klampa,,,0,97,97,84,,,,,,,,,,,,,,,,,,,1,1,7.93315495133,2018_Jun_19_1101,59.6362770948,verb_norming,001,910,
MOUNT,gå uppför,ströva runt,kliva över,2,kliva över,gå uppför,ströva runt,Arm,arm,0,98,98,43,0,0,0,0,,,,,,,,,,,,,4,7.232,,,,2018_Jun_19_1101,59.6362770948,verb_norming,001,910,
MOUNT,gå uppför,ströva runt,kliva över,2,kliva över,gå uppför,ströva runt,Leg,leg,0,98,98,43,0,1,1,1,,,,,,,,,,,,,4,1.21,,,,2018_Jun_19_1101,59.6362770948,verb_norming,001,910,
MOUNT,gå uppför,ströva runt,kliva över,2,kliva över,gå uppför,ströva runt,,,0,98,98,43,,,,,,,,,,,,,,,,,,,1,0,22.5915279873,2018_Jun_19_1101,59.6362770948,verb_norming,001,910,
CLIMB,klättra,kliva,krypa,3,krypa,kliva,klättra,Arm,arm,0,99,99,12,0,0,0,0,,,,,,,,,,,,,7,4.701,,,,2018_Jun_19_1101,59.6362770948,verb_norming,001,910,
CLIMB,klättra,kliva,krypa,3,krypa,kliva,klättra,Leg,leg,0,99,99,12,0,1,1,1,,,,,,,,,,,,,5,3.507,,,,2018_Jun_19_1101,59.6362770948,verb_norming,001,910,
CLIMB,klättra,kliva,krypa,3,krypa,kliva,klättra,,,0,99,99,12,,,,,,,,,,,,,,,,,,,3,1,1.84517116059,2018_Jun_19_1101,59.6362770948,verb_norming,001,910,
DUNK,dunka,dumpa,dunsa,3,dunsa,dumpa,dunka,Arm,arm,0,100,100,20,0,0,0,0,,,,,,,,,,,,,7,5.321,,,,2018_Jun_19_1101,59.6362770948,verb_norming,001,910,
DUNK,dunka,dumpa,dunsa,3,dunsa,dumpa,dunka,Leg,leg,0,100,100,20,0,1,1,1,,,,,,,,,,,,,1,1.802,,,,2018_Jun_19_1101,59.6362770948,verb_norming,001,910,
DUNK,dunka,dumpa,dunsa,3,dunsa,dumpa,dunka,,,0,100,100,20,,,,,,,,,,,,,,,,,,,3,1,4.16009495444,2018_Jun_19_1101,59.6362770948,verb_norming,001,910,
FILE,fila,putsa,riva,2,riva,fila,putsa,Arm,arm,0,101,101,21,0,0,0,0,,,,,,,,,,,,,6,8.954,,,,2018_Jun_19_1101,59.6362770948,verb_norming,001,910,
FILE,fila,putsa,riva,2,riva,fila,putsa,Leg,leg,0,101,101,21,0,1,1,1,,,,,,,,,,,,,1,1.129,,,,2018_Jun_19_1101,59.6362770948,verb_norming,001,910,
FILE,fila,putsa,riva,2,riva,fila,putsa,,,0,101,101,21,,,,,,,,,,,,,,,,,,,2,1,3.28794364688,2018_Jun_19_1101,59.6362770948,verb_norming,001,910,
RAMBLE,ströva,strutta,spurta,3,spurta,strutta,ströva,Arm,arm,0,102,102,57,0,0,0,0,,,,,,,,,,,,,1,4.601,,,,2018_Jun_19_1101,59.6362770948,verb_norming,001,910,
RAMBLE,ströva,strutta,spurta,3,spurta,strutta,ströva,Leg,leg,0,102,102,57,0,1,1,1,,,,,,,,,,,,,1,1.331,,,,2018_Jun_19_1101,59.6362770948,verb_norming,001,910,
RAMBLE,ströva,strutta,spurta,3,spurta,strutta,ströva,,,0,102,102,57,,,,,,,,,,,,,,,,,,,3,1,11.1703498126,2018_Jun_19_1101,59.6362770948,verb_norming,001,910,
PLUCK,plocka,rensa,picka,3,picka,rensa,plocka,Arm,arm,0,103,103,50,0,0,0,0,,,,,,,,,,,,,7,3.037,,,,2018_Jun_19_1101,59.6362770948,verb_norming,001,910,
PLUCK,plocka,rensa,picka,3,picka,rensa,plocka,Leg,leg,0,103,103,50,0,1,1,1,,,,,,,,,,,,,1,2.317,,,,2018_Jun_19_1101,59.6362770948,verb_norming,001,910,
PLUCK,plocka,rensa,picka,3,picka,rensa,plocka,,,0,103,103,50,,,,,,,,,,,,,,,,,,,3,1,8.88909074961,2018_Jun_19_1101,59.6362770948,verb_norming,001,910,
CATCH,fånga,krama,omfamna,1,fånga,omfamna,krama,Arm,arm,0,104,104,6,0,0,0,0,,,,,,,,,,,,,7,2.479,,,,2018_Jun_19_1101,59.6362770948,verb_norming,001,910,
CATCH,fånga,krama,omfamna,1,fånga,omfamna,krama,Leg,leg,0,104,104,6,0,1,1,1,,,,,,,,,,,,,1,5.907,,,,2018_Jun_19_1101,59.6362770948,verb_norming,001,910,
CATCH,fånga,krama,omfamna,1,fånga,omfamna,krama,,,0,104,104,6,,,,,,,,,,,,,,,,,,,1,1,2.66740974943,2018_Jun_19_1101,59.6362770948,verb_norming,001,910,
CLICK,klicka,klappa,klämma,3,klämma,klappa,klicka,Arm,arm,0,105,105,11,0,0,0,0,,,,,,,,,,,,,7,5.57,,,,2018_Jun_19_1101,59.6362770948,verb_norming,001,910,
CLICK,klicka,klappa,klämma,3,klämma,klappa,klicka,Leg,leg,0,105,105,11,0,1,1,1,,,,,,,,,,,,,1,0.694,,,,2018_Jun_19_1101,59.6362770948,verb_norming,001,910,
CLICK,klicka,klappa,klämma,3,klämma,klappa,klicka,,,0,105,105,11,,,,,,,,,,,,,,,,,,,3,1,2.38216000803,2018_Jun_19_1101,59.6362770948,verb_norming,001,910,
WOBBLE,vingla,ramla,glida,2,glida,vingla,ramla,Arm,arm,0,106,106,110,0,0,0,0,,,,,,,,,,,,,2,5.162,,,,2018_Jun_19_1101,59.6362770948,verb_norming,001,910,
WOBBLE,vingla,ramla,glida,2,glida,vingla,ramla,Leg,leg,0,106,106,110,0,1,1,1,,,,,,,,,,,,,7,1.193,,,,2018_Jun_19_1101,59.6362770948,verb_norming,001,910,
WOBBLE,vingla,ramla,glida,2,glida,vingla,ramla,,,0,106,106,110,,,,,,,,,,,,,,,,,,,2,1,2.24833636124,2018_Jun_19_1101,59.6362770948,verb_norming,001,910,
GRASP,gripa,klämma,omfamna,1,gripa,omfamna,klämma,Arm,arm,0,107,107,27,0,0,0,0,,,,,,,,,,,,,7,2.233,,,,2018_Jun_19_1101,59.6362770948,verb_norming,001,910,
GRASP,gripa,klämma,omfamna,1,gripa,omfamna,klämma,Leg,leg,0,107,107,27,0,1,1,1,,,,,,,,,,,,,1,0.728,,,,2018_Jun_19_1101,59.6362770948,verb_norming,001,910,
GRASP,gripa,klämma,omfamna,1,gripa,omfamna,klämma,,,0,107,107,27,,,,,,,,,,,,,,,,,,,1,1,2.83492222919,2018_Jun_19_1101,59.6362770948,verb_norming,001,910,
CLUTCH,gripa tag i,sätta ihop,dra ut,3,sätta ihop,dra ut,gripa tag i,Arm,arm,0,108,108,13,0,0,0,0,,,,,,,,,,,,,7,6.525,,,,2018_Jun_19_1101,59.6362770948,verb_norming,001,910,
CLUTCH,gripa tag i,sätta ihop,dra ut,3,sätta ihop,dra ut,gripa tag i,Leg,leg,0,108,108,13,0,1,1,1,,,,,,,,,,,,,1,6.818,,,,2018_Jun_19_1101,59.6362770948,verb_norming,001,910,
CLUTCH,gripa tag i,sätta ihop,dra ut,3,sätta ihop,dra ut,gripa tag i,,,0,108,108,13,,,,,,,,,,,,,,,,,,,3,1,3.18735998053,2018_Jun_19_1101,59.6362770948,verb_norming,001,910,
SQUEEZE,klämma,knuffa,knäppa,2,knäppa,klämma,knuffa,Arm,arm,0,109,109,80,0,0,0,0,,,,,,,,,,,,,7,6.622,,,,2018_Jun_19_1101,59.6362770948,verb_norming,001,910,
SQUEEZE,klämma,knuffa,knäppa,2,knäppa,klämma,knuffa,Leg,leg,0,109,109,80,0,1,1,1,,,,,,,,,,,,,5,2.145,,,,2018_Jun_19_1101,59.6362770948,verb_norming,001,910,
SQUEEZE,klämma,knuffa,knäppa,2,knäppa,klämma,knuffa,,,0,109,109,80,,,,,,,,,,,,,,,,,,,2,1,2.65067813875,2018_Jun_19_1101,59.6362770948,verb_norming,001,910,
TRIP,snubbla,stampa,stappla,2,stappla,snubbla,stampa,Arm,arm,0,110,110,99,0,0,0,0,,,,,,,,,,,,,1,6.024,,,,2018_Jun_19_1101,59.6362770948,verb_norming,001,910,
TRIP,snubbla,stampa,stappla,2,stappla,snubbla,stampa,Leg,leg,0,110,110,99,0,1,1,1,,,,,,,,,,,,,7,1.265,,,,2018_Jun_19_1101,59.6362770948,verb_norming,001,910,
TRIP,snubbla,stampa,stappla,2,stappla,snubbla,stampa,,,0,110,110,99,,,,,,,,,,,,,,,,,,,2,1,9.82881254005,2018_Jun_19_1101,59.6362770948,verb_norming,001,910,
HOP,skutta,kliva,studsa,1,skutta,studsa,kliva,Arm,arm,0,111,111,32,0,0,0,0,,,,,,,,,,,,,2,35.385,,,,2018_Jun_19_1101,59.6362770948,verb_norming,001,910,
HOP,skutta,kliva,studsa,1,skutta,studsa,kliva,Leg,leg,0,111,111,32,0,1,1,1,,,,,,,,,,,,,7,41.53,,,,2018_Jun_19_1101,59.6362770948,verb_norming,001,910,
HOP,skutta,kliva,studsa,1,skutta,studsa,kliva,,,0,111,111,32,,,,,,,,,,,,,,,,,,,1,1,5.83722259846,2018_Jun_19_1101,59.6362770948,verb_norming,001,910,
