word,target,distrOne,distrTwo,corrAns,w1,w2,w3,category,category_lowercase,trials.thisRepN,trials.thisTrialN,trials.thisN,trials.thisIndex,ArmLeg_loop.thisRepN,ArmLeg_loop.thisTrialN,ArmLeg_loop.thisN,ArmLeg_loop.thisIndex,key_resp_9.keys,key_resp_9.rt,key_resp_3.keys,key_resp_3.rt,key_resp_6.keys,key_resp_6.rt,key_resp_5.keys,key_resp_5.rt,key_resp_4.keys,key_resp_4.rt,key_resp_8.keys,key_resp_8.rt,rating.response,rating.rt,answer.keys,answer.corr,answer.rt,date,frameRate,expName,session,participant,
,,,,,,,,,,,,,,,,,,space,142.203928803,,,,,,,,,,,,,,,,2018_Jun_19_1257,59.6199809192,verb_norming,001,911,
,,,,,,,,,,,,,,,,,,,,space,18.3481444136,,,,,,,,,,,,,,2018_Jun_19_1257,59.6199809192,verb_norming,001,911,
,,,,,,,,,,,,,,,,,,,,,,space,22.0713766418,,,,,,,,,,,,2018_Jun_19_1257,59.6199809192,verb_norming,001,911,
,,,,,,,,,,,,,,,,,,,,,,,,space,19.0860828844,,,,,,,,,,2018_Jun_19_1257,59.6199809192,verb_norming,001,911,
,,,,,,,,,,,,,,,,,,,,,,,,,,space,7.51390059971,,,,,,,,2018_Jun_19_1257,59.6199809192,verb_norming,001,911,
,,,,,,,,,,,,,,,,,,,,,,,,,,,,space,5.14904393618,,,,,,2018_Jun_19_1257,59.6199809192,verb_norming,001,911,
NIP,nypa,peta,nudda,2,nudda,nypa,peta,Leg,leg,0,0,0,44,0,0,0,0,,,,,,,,,,,,,1,14.56,,,,2018_Jun_19_1257,59.6199809192,verb_norming,001,911,
NIP,nypa,peta,nudda,2,nudda,nypa,peta,Arm,arm,0,0,0,44,0,1,1,1,,,,,,,,,,,,,7,8.818,,,,2018_Jun_19_1257,59.6199809192,verb_norming,001,911,
NIP,nypa,peta,nudda,2,nudda,nypa,peta,,,0,0,0,44,,,,,,,,,,,,,,,,,,,2,1,7.39653514286,2018_Jun_19_1257,59.6199809192,verb_norming,001,911,
STRIDE,kliva,tassa,lunka,1,kliva,tassa,lunka,Leg,leg,0,1,1,88,0,0,0,0,,,,,,,,,,,,,7,11.629,,,,2018_Jun_19_1257,59.6199809192,verb_norming,001,911,
STRIDE,kliva,tassa,lunka,1,kliva,tassa,lunka,Arm,arm,0,1,1,88,0,1,1,1,,,,,,,,,,,,,1,5.278,,,,2018_Jun_19_1257,59.6199809192,verb_norming,001,911,
STRIDE,kliva,tassa,lunka,1,kliva,tassa,lunka,,,0,1,1,88,,,,,,,,,,,,,,,,,,,1,1,11.1197827807,2018_Jun_19_1257,59.6199809192,verb_norming,001,911,
KICK,sparka,knäa,tåa,2,knäa,sparka,tåa,Leg,leg,0,2,2,36,0,0,0,0,,,,,,,,,,,,,7,8.261,,,,2018_Jun_19_1257,59.6199809192,verb_norming,001,911,
KICK,sparka,knäa,tåa,2,knäa,sparka,tåa,Arm,arm,0,2,2,36,0,1,1,1,,,,,,,,,,,,,1,3.467,,,,2018_Jun_19_1257,59.6199809192,verb_norming,001,911,
KICK,sparka,knäa,tåa,2,knäa,sparka,tåa,,,0,2,2,36,,,,,,,,,,,,,,,,,,,2,1,5.2665366206,2018_Jun_19_1257,59.6199809192,verb_norming,001,911,
PLOD,lunka,pulsa,vingla,1,lunka,pulsa,vingla,Leg,leg,0,3,3,49,0,0,0,0,,,,,,,,,,,,,5,19.629,,,,2018_Jun_19_1257,59.6199809192,verb_norming,001,911,
PLOD,lunka,pulsa,vingla,1,lunka,pulsa,vingla,Arm,arm,0,3,3,49,0,1,1,1,,,,,,,,,,,,,7,26.259,,,,2018_Jun_19_1257,59.6199809192,verb_norming,001,911,
PLOD,lunka,pulsa,vingla,1,lunka,pulsa,vingla,,,0,3,3,49,,,,,,,,,,,,,,,,,,,1,1,8.70468821738,2018_Jun_19_1257,59.6199809192,verb_norming,001,911,
MOUNT,gå uppför,ströva runt,kliva över,3,ströva runt,kliva över,gå uppför,Leg,leg,0,4,4,43,0,0,0,0,,,,,,,,,,,,,1,16.459,,,,2018_Jun_19_1257,59.6199809192,verb_norming,001,911,
MOUNT,gå uppför,ströva runt,kliva över,3,ströva runt,kliva över,gå uppför,Arm,arm,0,4,4,43,0,1,1,1,,,,,,,,,,,,,7,1.906,,,,2018_Jun_19_1257,59.6199809192,verb_norming,001,911,
MOUNT,gå uppför,ströva runt,kliva över,3,ströva runt,kliva över,gå uppför,,,0,4,4,43,,,,,,,,,,,,,,,,,,,3,1,16.3189472669,2018_Jun_19_1257,59.6199809192,verb_norming,001,911,
FLEE,fly,lyfta,flyga,1,fly,lyfta,flyga,Leg,leg,0,5,5,22,0,0,0,0,,,,,,,,,,,,,5,20.856,,,,2018_Jun_19_1257,59.6199809192,verb_norming,001,911,
FLEE,fly,lyfta,flyga,1,fly,lyfta,flyga,Arm,arm,0,5,5,22,0,1,1,1,,,,,,,,,,,,,3,5.917,,,,2018_Jun_19_1257,59.6199809192,verb_norming,001,911,
FLEE,fly,lyfta,flyga,1,fly,lyfta,flyga,,,0,5,5,22,,,,,,,,,,,,,,,,,,,1,1,3.13649068433,2018_Jun_19_1257,59.6199809192,verb_norming,001,911,
GRIP,gripa om,hålla om,kasta om,3,hålla om,kasta om,gripa om,Leg,leg,0,6,6,29,0,0,0,0,,,,,,,,,,,,,2,9.348,,,,2018_Jun_19_1257,59.6199809192,verb_norming,001,911,
GRIP,gripa om,hålla om,kasta om,3,hålla om,kasta om,gripa om,Arm,arm,0,6,6,29,0,1,1,1,,,,,,,,,,,,,7,1.773,,,,2018_Jun_19_1257,59.6199809192,verb_norming,001,911,
GRIP,gripa om,hålla om,kasta om,3,hålla om,kasta om,gripa om,,,0,6,6,29,,,,,,,,,,,,,,,,,,,3,1,2.80111604656,2018_Jun_19_1257,59.6199809192,verb_norming,001,911,
STIR,röra,sleva,vispa,3,sleva,vispa,röra,Leg,leg,0,7,7,85,0,0,0,0,,,,,,,,,,,,,1,4.689,,,,2018_Jun_19_1257,59.6199809192,verb_norming,001,911,
STIR,röra,sleva,vispa,3,sleva,vispa,röra,Arm,arm,0,7,7,85,0,1,1,1,,,,,,,,,,,,,7,2.545,,,,2018_Jun_19_1257,59.6199809192,verb_norming,001,911,
STIR,röra,sleva,vispa,3,sleva,vispa,röra,,,0,7,7,85,,,,,,,,,,,,,,,,,,,3,1,3.00238887541,2018_Jun_19_1257,59.6199809192,verb_norming,001,911,
SEIZE,fånga,klämma,fästa,3,fästa,klämma,fånga,Leg,leg,0,8,8,68,0,0,0,0,,,,,,,,,,,,,1,8.526,,,,2018_Jun_19_1257,59.6199809192,verb_norming,001,911,
SEIZE,fånga,klämma,fästa,3,fästa,klämma,fånga,Arm,arm,0,8,8,68,0,1,1,1,,,,,,,,,,,,,6,5.143,,,,2018_Jun_19_1257,59.6199809192,verb_norming,001,911,
SEIZE,fånga,klämma,fästa,3,fästa,klämma,fånga,,,0,8,8,68,,,,,,,,,,,,,,,,,,,3,1,4.00879885321,2018_Jun_19_1257,59.6199809192,verb_norming,001,911,
CATCH,fånga,krama,omfamna,2,omfamna,fånga,krama,Leg,leg,0,9,9,6,0,0,0,0,,,,,,,,,,,,,1,6.818,,,,2018_Jun_19_1257,59.6199809192,verb_norming,001,911,
CATCH,fånga,krama,omfamna,2,omfamna,fånga,krama,Arm,arm,0,9,9,6,0,1,1,1,,,,,,,,,,,,,7,2.394,,,,2018_Jun_19_1257,59.6199809192,verb_norming,001,911,
CATCH,fånga,krama,omfamna,2,omfamna,fånga,krama,,,0,9,9,6,,,,,,,,,,,,,,,,,,,2,1,1.62642745776,2018_Jun_19_1257,59.6199809192,verb_norming,001,911,
RAMBLE,ströva,strutta,spurta,3,strutta,spurta,ströva,Leg,leg,0,10,10,57,0,0,0,0,,,,,,,,,,,,,4,9.581,,,,2018_Jun_19_1257,59.6199809192,verb_norming,001,911,
RAMBLE,ströva,strutta,spurta,3,strutta,spurta,ströva,Arm,arm,0,10,10,57,0,1,1,1,,,,,,,,,,,,,4,2.292,,,,2018_Jun_19_1257,59.6199809192,verb_norming,001,911,
RAMBLE,ströva,strutta,spurta,3,strutta,spurta,ströva,,,0,10,10,57,,,,,,,,,,,,,,,,,,,3,1,9.10726390396,2018_Jun_19_1257,59.6199809192,verb_norming,001,911,
WANDER,vandra,marschera,spatsera,1,vandra,spatsera,marschera,Leg,leg,0,11,11,106,0,0,0,0,,,,,,,,,,,,,7,4.0,,,,2018_Jun_19_1257,59.6199809192,verb_norming,001,911,
WANDER,vandra,marschera,spatsera,1,vandra,spatsera,marschera,Arm,arm,0,11,11,106,0,1,1,1,,,,,,,,,,,,,1,3.115,,,,2018_Jun_19_1257,59.6199809192,verb_norming,001,911,
WANDER,vandra,marschera,spatsera,1,vandra,spatsera,marschera,,,0,11,11,106,,,,,,,,,,,,,,,,,,,2,0,5.93632299682,2018_Jun_19_1257,59.6199809192,verb_norming,001,911,
BOUNCE,studsa,dunka,kasta,2,dunka,studsa,kasta,Leg,leg,0,12,12,2,0,0,0,0,,,,,,,,,,,,,7,8.075,,,,2018_Jun_19_1257,59.6199809192,verb_norming,001,911,
BOUNCE,studsa,dunka,kasta,2,dunka,studsa,kasta,Arm,arm,0,12,12,2,0,1,1,1,,,,,,,,,,,,,1,2.476,,,,2018_Jun_19_1257,59.6199809192,verb_norming,001,911,
BOUNCE,studsa,dunka,kasta,2,dunka,studsa,kasta,,,0,12,12,2,,,,,,,,,,,,,,,,,,,2,1,2.58330007768,2018_Jun_19_1257,59.6199809192,verb_norming,001,911,
TIPTOE,gå på tå,snava,sparka,2,sparka,gå på tå,snava,Leg,leg,0,13,13,95,0,0,0,0,,,,,,,,,,,,,7,5.575,,,,2018_Jun_19_1257,59.6199809192,verb_norming,001,911,
TIPTOE,gå på tå,snava,sparka,2,sparka,gå på tå,snava,Arm,arm,0,13,13,95,0,1,1,1,,,,,,,,,,,,,1,2.425,,,,2018_Jun_19_1257,59.6199809192,verb_norming,001,911,
TIPTOE,gå på tå,snava,sparka,2,sparka,gå på tå,snava,,,0,13,13,95,,,,,,,,,,,,,,,,,,,2,1,2.41541105173,2018_Jun_19_1257,59.6199809192,verb_norming,001,911,
HIKE,vandra,flanera,lunka,2,lunka,vandra,flanera,Leg,leg,0,14,14,31,0,0,0,0,,,,,,,,,,,,,7,6.684,,,,2018_Jun_19_1257,59.6199809192,verb_norming,001,911,
HIKE,vandra,flanera,lunka,2,lunka,vandra,flanera,Arm,arm,0,14,14,31,0,1,1,1,,,,,,,,,,,,,1,1.841,,,,2018_Jun_19_1257,59.6199809192,verb_norming,001,911,
HIKE,vandra,flanera,lunka,2,lunka,vandra,flanera,,,0,14,14,31,,,,,,,,,,,,,,,,,,,2,1,1.79486213984,2018_Jun_19_1257,59.6199809192,verb_norming,001,911,
GRAB,gripa tag i,fästa ihop,smälla till,2,smälla till,gripa tag i,fästa ihop,Leg,leg,0,15,15,26,0,0,0,0,,,,,,,,,,,,,1,4.72,,,,2018_Jun_19_1257,59.6199809192,verb_norming,001,911,
GRAB,gripa tag i,fästa ihop,smälla till,2,smälla till,gripa tag i,fästa ihop,Arm,arm,0,15,15,26,0,1,1,1,,,,,,,,,,,,,7,2.292,,,,2018_Jun_19_1257,59.6199809192,verb_norming,001,911,
GRAB,gripa tag i,fästa ihop,smälla till,2,smälla till,gripa tag i,fästa ihop,,,0,15,15,26,,,,,,,,,,,,,,,,,,,2,1,2.80103109647,2018_Jun_19_1257,59.6199809192,verb_norming,001,911,
PINCH,nypa,plocka,pensla,2,pensla,nypa,plocka,Leg,leg,0,16,16,48,0,0,0,0,,,,,,,,,,,,,2,9.485,,,,2018_Jun_19_1257,59.6199809192,verb_norming,001,911,
PINCH,nypa,plocka,pensla,2,pensla,nypa,plocka,Arm,arm,0,16,16,48,0,1,1,1,,,,,,,,,,,,,7,4.708,,,,2018_Jun_19_1257,59.6199809192,verb_norming,001,911,
PINCH,nypa,plocka,pensla,2,pensla,nypa,plocka,,,0,16,16,48,,,,,,,,,,,,,,,,,,,2,1,2.78435480213,2018_Jun_19_1257,59.6199809192,verb_norming,001,911,
DELVE,gräva,plöja,rensa,3,plöja,rensa,gräva,Leg,leg,0,17,17,18,0,0,0,0,,,,,,,,,,,,,1,12.316,,,,2018_Jun_19_1257,59.6199809192,verb_norming,001,911,
DELVE,gräva,plöja,rensa,3,plöja,rensa,gräva,Arm,arm,0,17,17,18,0,1,1,1,,,,,,,,,,,,,5,2.845,,,,2018_Jun_19_1257,59.6199809192,verb_norming,001,911,
DELVE,gräva,plöja,rensa,3,plöja,rensa,gräva,,,0,17,17,18,,,,,,,,,,,,,,,,,,,2,0,9.45821325079,2018_Jun_19_1257,59.6199809192,verb_norming,001,911,
DUNK,dunka,dumpa,dunsa,3,dunsa,dumpa,dunka,Leg,leg,0,18,18,20,0,0,0,0,,,,,,,,,,,,,1,6.768,,,,2018_Jun_19_1257,59.6199809192,verb_norming,001,911,
DUNK,dunka,dumpa,dunsa,3,dunsa,dumpa,dunka,Arm,arm,0,18,18,20,0,1,1,1,,,,,,,,,,,,,7,1.388,,,,2018_Jun_19_1257,59.6199809192,verb_norming,001,911,
DUNK,dunka,dumpa,dunsa,3,dunsa,dumpa,dunka,,,0,18,18,20,,,,,,,,,,,,,,,,,,,3,1,2.06321076551,2018_Jun_19_1257,59.6199809192,verb_norming,001,911,
SHAKE,skaka,röra,vispa,1,skaka,röra,vispa,Leg,leg,0,19,19,69,0,0,0,0,,,,,,,,,,,,,1,13.208,,,,2018_Jun_19_1257,59.6199809192,verb_norming,001,911,
SHAKE,skaka,röra,vispa,1,skaka,röra,vispa,Arm,arm,0,19,19,69,0,1,1,1,,,,,,,,,,,,,7,1.337,,,,2018_Jun_19_1257,59.6199809192,verb_norming,001,911,
SHAKE,skaka,röra,vispa,1,skaka,röra,vispa,,,0,19,19,69,,,,,,,,,,,,,,,,,,,1,1,4.86393604167,2018_Jun_19_1257,59.6199809192,verb_norming,001,911,
LEAP,hoppa,stega,kliva,2,stega,hoppa,kliva,Leg,leg,0,20,20,39,0,0,0,0,,,,,,,,,,,,,7,8.781,,,,2018_Jun_19_1257,59.6199809192,verb_norming,001,911,
LEAP,hoppa,stega,kliva,2,stega,hoppa,kliva,Arm,arm,0,20,20,39,0,1,1,1,,,,,,,,,,,,,1,1.405,,,,2018_Jun_19_1257,59.6199809192,verb_norming,001,911,
LEAP,hoppa,stega,kliva,2,stega,hoppa,kliva,,,0,20,20,39,,,,,,,,,,,,,,,,,,,2,1,9.44261957614,2018_Jun_19_1257,59.6199809192,verb_norming,001,911,
FOLD,vika ihop,knyta ihop,bunta ihop,3,bunta ihop,knyta ihop,vika ihop,Leg,leg,0,21,21,24,0,0,0,0,,,,,,,,,,,,,3,9.449,,,,2018_Jun_19_1257,59.6199809192,verb_norming,001,911,
FOLD,vika ihop,knyta ihop,bunta ihop,3,bunta ihop,knyta ihop,vika ihop,Arm,arm,0,21,21,24,0,1,1,1,,,,,,,,,,,,,7,0.984,,,,2018_Jun_19_1257,59.6199809192,verb_norming,001,911,
FOLD,vika ihop,knyta ihop,bunta ihop,3,bunta ihop,knyta ihop,vika ihop,,,0,21,21,24,,,,,,,,,,,,,,,,,,,3,1,2.85144679873,2018_Jun_19_1257,59.6199809192,verb_norming,001,911,
TRUDGE,släpa sig fram,kasta sig fram,ta sig fram,3,ta sig fram,kasta sig fram,släpa sig fram,Leg,leg,0,22,22,101,0,0,0,0,,,,,,,,,,,,,7,7.839,,,,2018_Jun_19_1257,59.6199809192,verb_norming,001,911,
TRUDGE,släpa sig fram,kasta sig fram,ta sig fram,3,ta sig fram,kasta sig fram,släpa sig fram,Arm,arm,0,22,22,101,0,1,1,1,,,,,,,,,,,,,1,2.09,,,,2018_Jun_19_1257,59.6199809192,verb_norming,001,911,
TRUDGE,släpa sig fram,kasta sig fram,ta sig fram,3,ta sig fram,kasta sig fram,släpa sig fram,,,0,22,22,101,,,,,,,,,,,,,,,,,,,1,0,5.85338800694,2018_Jun_19_1257,59.6199809192,verb_norming,001,911,
TROT,trava,promenera,flanera,2,promenera,trava,flanera,Leg,leg,0,23,23,100,0,0,0,0,,,,,,,,,,,,,7,11.144,,,,2018_Jun_19_1257,59.6199809192,verb_norming,001,911,
TROT,trava,promenera,flanera,2,promenera,trava,flanera,Arm,arm,0,23,23,100,0,1,1,1,,,,,,,,,,,,,1,1.302,,,,2018_Jun_19_1257,59.6199809192,verb_norming,001,911,
TROT,trava,promenera,flanera,2,promenera,trava,flanera,,,0,23,23,100,,,,,,,,,,,,,,,,,,,1,0,5.81998681891,2018_Jun_19_1257,59.6199809192,verb_norming,001,911,
PRANCE,kråma sig,promenera,traska,1,kråma sig,traska,promenera,Leg,leg,0,24,24,53,0,0,0,0,,,,,,,,,,,,,7,6.801,,,,2018_Jun_19_1257,59.6199809192,verb_norming,001,911,
PRANCE,kråma sig,promenera,traska,1,kråma sig,traska,promenera,Arm,arm,0,24,24,53,0,1,1,1,,,,,,,,,,,,,1,1.957,,,,2018_Jun_19_1257,59.6199809192,verb_norming,001,911,
PRANCE,kråma sig,promenera,traska,1,kråma sig,traska,promenera,,,0,24,24,53,,,,,,,,,,,,,,,,,,,2,0,2.86833882677,2018_Jun_19_1257,59.6199809192,verb_norming,001,911,
SPRINT,spurta,springa,löpa,2,löpa,spurta,springa,Leg,leg,0,25,25,79,0,0,0,0,,,,,,,,,,,,,7,5.593,,,,2018_Jun_19_1257,59.6199809192,verb_norming,001,911,
SPRINT,spurta,springa,löpa,2,löpa,spurta,springa,Arm,arm,0,25,25,79,0,1,1,1,,,,,,,,,,,,,1,3.232,,,,2018_Jun_19_1257,59.6199809192,verb_norming,001,911,
SPRINT,spurta,springa,löpa,2,löpa,spurta,springa,,,0,25,25,79,,,,,,,,,,,,,,,,,,,2,1,4.6460750295,2018_Jun_19_1257,59.6199809192,verb_norming,001,911,
FILE,fila,putsa,riva,2,riva,fila,putsa,Leg,leg,0,26,26,21,0,0,0,0,,,,,,,,,,,,,1,25.887,,,,2018_Jun_19_1257,59.6199809192,verb_norming,001,911,
FILE,fila,putsa,riva,2,riva,fila,putsa,Arm,arm,0,26,26,21,0,1,1,1,,,,,,,,,,,,,4,3.585,,,,2018_Jun_19_1257,59.6199809192,verb_norming,001,911,
FILE,fila,putsa,riva,2,riva,fila,putsa,,,0,26,26,21,,,,,,,,,,,,,,,,,,,2,1,6.59156789408,2018_Jun_19_1257,59.6199809192,verb_norming,001,911,
WRAP,slå in,slå ihop,slå till,2,slå ihop,slå in,slå till,Leg,leg,0,27,27,111,0,0,0,0,,,,,,,,,,,,,3,15.758,,,,2018_Jun_19_1257,59.6199809192,verb_norming,001,911,
WRAP,slå in,slå ihop,slå till,2,slå ihop,slå in,slå till,Arm,arm,0,27,27,111,0,1,1,1,,,,,,,,,,,,,7,1.992,,,,2018_Jun_19_1257,59.6199809192,verb_norming,001,911,
WRAP,slå in,slå ihop,slå till,2,slå ihop,slå in,slå till,,,0,27,27,111,,,,,,,,,,,,,,,,,,,2,1,9.02306730655,2018_Jun_19_1257,59.6199809192,verb_norming,001,911,
POKE,peta,trycka,knuffa,2,trycka,peta,knuffa,Leg,leg,0,28,28,51,0,0,0,0,,,,,,,,,,,,,3,35.848,,,,2018_Jun_19_1257,59.6199809192,verb_norming,001,911,
POKE,peta,trycka,knuffa,2,trycka,peta,knuffa,Arm,arm,0,28,28,51,0,1,1,1,,,,,,,,,,,,,7,1.503,,,,2018_Jun_19_1257,59.6199809192,verb_norming,001,911,
POKE,peta,trycka,knuffa,2,trycka,peta,knuffa,,,0,28,28,51,,,,,,,,,,,,,,,,,,,2,1,1.64402713977,2018_Jun_19_1257,59.6199809192,verb_norming,001,911,
RUN,springa,rusa,jogga,2,rusa,springa,jogga,Leg,leg,0,29,29,61,0,0,0,0,,,,,,,,,,,,,7,8.161,,,,2018_Jun_19_1257,59.6199809192,verb_norming,001,911,
RUN,springa,rusa,jogga,2,rusa,springa,jogga,Arm,arm,0,29,29,61,0,1,1,1,,,,,,,,,,,,,2,9.288,,,,2018_Jun_19_1257,59.6199809192,verb_norming,001,911,
RUN,springa,rusa,jogga,2,rusa,springa,jogga,,,0,29,29,61,,,,,,,,,,,,,,,,,,,2,1,6.77597832864,2018_Jun_19_1257,59.6199809192,verb_norming,001,911,
CARVE,tälja,hacka,riva,3,riva,hacka,tälja,Leg,leg,0,30,30,5,0,0,0,0,,,,,,,,,,,,,1,5.558,,,,2018_Jun_19_1257,59.6199809192,verb_norming,001,911,
CARVE,tälja,hacka,riva,3,riva,hacka,tälja,Arm,arm,0,30,30,5,0,1,1,1,,,,,,,,,,,,,7,2.158,,,,2018_Jun_19_1257,59.6199809192,verb_norming,001,911,
CARVE,tälja,hacka,riva,3,riva,hacka,tälja,,,0,30,30,5,,,,,,,,,,,,,,,,,,,3,1,4.72997133824,2018_Jun_19_1257,59.6199809192,verb_norming,001,911,
JOG,jogga,spurta,rusa,1,jogga,rusa,spurta,Leg,leg,0,31,31,34,0,0,0,0,,,,,,,,,,,,,7,6.799,,,,2018_Jun_19_1257,59.6199809192,verb_norming,001,911,
JOG,jogga,spurta,rusa,1,jogga,rusa,spurta,Arm,arm,0,31,31,34,0,1,1,1,,,,,,,,,,,,,1,1.521,,,,2018_Jun_19_1257,59.6199809192,verb_norming,001,911,
JOG,jogga,spurta,rusa,1,jogga,rusa,spurta,,,0,31,31,34,,,,,,,,,,,,,,,,,,,1,1,1.6607528237,2018_Jun_19_1257,59.6199809192,verb_norming,001,911,
TRIP,snubbla,stampa,stappla,1,snubbla,stappla,stampa,Leg,leg,0,32,32,99,0,0,0,0,,,,,,,,,,,,,7,4.974,,,,2018_Jun_19_1257,59.6199809192,verb_norming,001,911,
TRIP,snubbla,stampa,stappla,1,snubbla,stappla,stampa,Arm,arm,0,32,32,99,0,1,1,1,,,,,,,,,,,,,1,2.897,,,,2018_Jun_19_1257,59.6199809192,verb_norming,001,911,
TRIP,snubbla,stampa,stappla,1,snubbla,stappla,stampa,,,0,32,32,99,,,,,,,,,,,,,,,,,,,1,1,3.94156935601,2018_Jun_19_1257,59.6199809192,verb_norming,001,911,
CLICK,klicka,klappa,klämma,1,klicka,klappa,klämma,Leg,leg,0,33,33,11,0,0,0,0,,,,,,,,,,,,,1,11.129,,,,2018_Jun_19_1257,59.6199809192,verb_norming,001,911,
CLICK,klicka,klappa,klämma,1,klicka,klappa,klämma,Arm,arm,0,33,33,11,0,1,1,1,,,,,,,,,,,,,7,2.679,,,,2018_Jun_19_1257,59.6199809192,verb_norming,001,911,
CLICK,klicka,klappa,klämma,1,klicka,klappa,klämma,,,0,33,33,11,,,,,,,,,,,,,,,,,,,1,1,1.56064882899,2018_Jun_19_1257,59.6199809192,verb_norming,001,911,
SLIDE,glida,ramla,hasa,2,hasa,glida,ramla,Leg,leg,0,34,34,74,0,0,0,0,,,,,,,,,,,,,5,14.416,,,,2018_Jun_19_1257,59.6199809192,verb_norming,001,911,
SLIDE,glida,ramla,hasa,2,hasa,glida,ramla,Arm,arm,0,34,34,74,0,1,1,1,,,,,,,,,,,,,2,1.435,,,,2018_Jun_19_1257,59.6199809192,verb_norming,001,911,
SLIDE,glida,ramla,hasa,2,hasa,glida,ramla,,,0,34,34,74,,,,,,,,,,,,,,,,,,,2,1,2.70060034027,2018_Jun_19_1257,59.6199809192,verb_norming,001,911,
SKATE,åka skridskor,åka skidor,åka kälke,1,åka skridskor,åka kälke,åka skidor,Leg,leg,0,35,35,70,0,0,0,0,,,,,,,,,,,,,7,7.003,,,,2018_Jun_19_1257,59.6199809192,verb_norming,001,911,
SKATE,åka skridskor,åka skidor,åka kälke,1,åka skridskor,åka kälke,åka skidor,Arm,arm,0,35,35,70,0,1,1,1,,,,,,,,,,,,,1,1.807,,,,2018_Jun_19_1257,59.6199809192,verb_norming,001,911,
SKATE,åka skridskor,åka skidor,åka kälke,1,åka skridskor,åka kälke,åka skidor,,,0,35,35,70,,,,,,,,,,,,,,,,,,,1,1,16.4529704476,2018_Jun_19_1257,59.6199809192,verb_norming,001,911,
STROLL,strosa,trava,marschera,3,trava,marschera,strosa,Leg,leg,0,36,36,89,0,0,0,0,,,,,,,,,,,,,7,2.774,,,,2018_Jun_19_1257,59.6199809192,verb_norming,001,911,
STROLL,strosa,trava,marschera,3,trava,marschera,strosa,Arm,arm,0,36,36,89,0,1,1,1,,,,,,,,,,,,,1,3.835,,,,2018_Jun_19_1257,59.6199809192,verb_norming,001,911,
STROLL,strosa,trava,marschera,3,trava,marschera,strosa,,,0,36,36,89,,,,,,,,,,,,,,,,,,,3,1,2.91859411166,2018_Jun_19_1257,59.6199809192,verb_norming,001,911,
WOBBLE,vingla,ramla,glida,2,ramla,vingla,glida,Leg,leg,0,37,37,110,0,0,0,0,,,,,,,,,,,,,7,6.648,,,,2018_Jun_19_1257,59.6199809192,verb_norming,001,911,
WOBBLE,vingla,ramla,glida,2,ramla,vingla,glida,Arm,arm,0,37,37,110,0,1,1,1,,,,,,,,,,,,,1,2.76,,,,2018_Jun_19_1257,59.6199809192,verb_norming,001,911,
WOBBLE,vingla,ramla,glida,2,ramla,vingla,glida,,,0,37,37,110,,,,,,,,,,,,,,,,,,,2,1,3.63967453449,2018_Jun_19_1257,59.6199809192,verb_norming,001,911,
CLEAN,rengöra,rensa,plocka,1,rengöra,rensa,plocka,Leg,leg,0,38,38,10,0,0,0,0,,,,,,,,,,,,,1,6.265,,,,2018_Jun_19_1257,59.6199809192,verb_norming,001,911,
CLEAN,rengöra,rensa,plocka,1,rengöra,rensa,plocka,Arm,arm,0,38,38,10,0,1,1,1,,,,,,,,,,,,,7,0.683,,,,2018_Jun_19_1257,59.6199809192,verb_norming,001,911,
CLEAN,rengöra,rensa,plocka,1,rengöra,rensa,plocka,,,0,38,38,10,,,,,,,,,,,,,,,,,,,1,1,2.31476653741,2018_Jun_19_1257,59.6199809192,verb_norming,001,911,
PLUCK,plocka,rensa,picka,1,plocka,rensa,picka,Leg,leg,0,39,39,50,0,0,0,0,,,,,,,,,,,,,1,2.726,,,,2018_Jun_19_1257,59.6199809192,verb_norming,001,911,
PLUCK,plocka,rensa,picka,1,plocka,rensa,picka,Arm,arm,0,39,39,50,0,1,1,1,,,,,,,,,,,,,7,1.002,,,,2018_Jun_19_1257,59.6199809192,verb_norming,001,911,
PLUCK,plocka,rensa,picka,1,plocka,rensa,picka,,,0,39,39,50,,,,,,,,,,,,,,,,,,,3,0,9.09042363619,2018_Jun_19_1257,59.6199809192,verb_norming,001,911,
ROAM,ströva omkring,ta sig fram,luffa runt,2,ta sig fram,ströva omkring,luffa runt,Leg,leg,0,40,40,58,0,0,0,0,,,,,,,,,,,,,7,2.875,,,,2018_Jun_19_1257,59.6199809192,verb_norming,001,911,
ROAM,ströva omkring,ta sig fram,luffa runt,2,ta sig fram,ströva omkring,luffa runt,Arm,arm,0,40,40,58,0,1,1,1,,,,,,,,,,,,,1,1.939,,,,2018_Jun_19_1257,59.6199809192,verb_norming,001,911,
ROAM,ströva omkring,ta sig fram,luffa runt,2,ta sig fram,ströva omkring,luffa runt,,,0,40,40,58,,,,,,,,,,,,,,,,,,,1,0,3.77383916697,2018_Jun_19_1257,59.6199809192,verb_norming,001,911,
STRAY,ströva,vandra,promenera,3,vandra,promenera,ströva,Leg,leg,0,41,41,87,0,0,0,0,,,,,,,,,,,,,7,30.832,,,,2018_Jun_19_1257,59.6199809192,verb_norming,001,911,
STRAY,ströva,vandra,promenera,3,vandra,promenera,ströva,Arm,arm,0,41,41,87,0,1,1,1,,,,,,,,,,,,,1,1.337,,,,2018_Jun_19_1257,59.6199809192,verb_norming,001,911,
STRAY,ströva,vandra,promenera,3,vandra,promenera,ströva,,,0,41,41,87,,,,,,,,,,,,,,,,,,,3,1,3.17015067379,2018_Jun_19_1257,59.6199809192,verb_norming,001,911,
TOSS,slänga,fånga,gripa,1,slänga,gripa,fånga,Leg,leg,0,42,42,96,0,0,0,0,,,,,,,,,,,,,1,3.128,,,,2018_Jun_19_1257,59.6199809192,verb_norming,001,911,
TOSS,slänga,fånga,gripa,1,slänga,gripa,fånga,Arm,arm,0,42,42,96,0,1,1,1,,,,,,,,,,,,,7,1.805,,,,2018_Jun_19_1257,59.6199809192,verb_norming,001,911,
TOSS,slänga,fånga,gripa,1,slänga,gripa,fånga,,,0,42,42,96,,,,,,,,,,,,,,,,,,,1,1,7.09456011266,2018_Jun_19_1257,59.6199809192,verb_norming,001,911,
CLUTCH,gripa tag i,sätta ihop,dra ut,3,sätta ihop,dra ut,gripa tag i,Leg,leg,0,43,43,13,0,0,0,0,,,,,,,,,,,,,1,4.772,,,,2018_Jun_19_1257,59.6199809192,verb_norming,001,911,
CLUTCH,gripa tag i,sätta ihop,dra ut,3,sätta ihop,dra ut,gripa tag i,Arm,arm,0,43,43,13,0,1,1,1,,,,,,,,,,,,,7,1.706,,,,2018_Jun_19_1257,59.6199809192,verb_norming,001,911,
CLUTCH,gripa tag i,sätta ihop,dra ut,3,sätta ihop,dra ut,gripa tag i,,,0,43,43,13,,,,,,,,,,,,,,,,,,,3,1,4.54531790692,2018_Jun_19_1257,59.6199809192,verb_norming,001,911,
PUNCH,slå,knuffa,kasta,2,knuffa,slå,kasta,Leg,leg,0,44,44,55,0,0,0,0,,,,,,,,,,,,,1,7.12,,,,2018_Jun_19_1257,59.6199809192,verb_norming,001,911,
PUNCH,slå,knuffa,kasta,2,knuffa,slå,kasta,Arm,arm,0,44,44,55,0,1,1,1,,,,,,,,,,,,,7,8.784,,,,2018_Jun_19_1257,59.6199809192,verb_norming,001,911,
PUNCH,slå,knuffa,kasta,2,knuffa,slå,kasta,,,0,44,44,55,,,,,,,,,,,,,,,,,,,2,1,2.29799343948,2018_Jun_19_1257,59.6199809192,verb_norming,001,911,
CLAW,klösa,nypa,rispa,3,nypa,rispa,klösa,Leg,leg,0,45,45,9,0,0,0,0,,,,,,,,,,,,,1,6.097,,,,2018_Jun_19_1257,59.6199809192,verb_norming,001,911,
CLAW,klösa,nypa,rispa,3,nypa,rispa,klösa,Arm,arm,0,45,45,9,0,1,1,1,,,,,,,,,,,,,7,1.239,,,,2018_Jun_19_1257,59.6199809192,verb_norming,001,911,
CLAW,klösa,nypa,rispa,3,nypa,rispa,klösa,,,0,45,45,9,,,,,,,,,,,,,,,,,,,3,1,2.34832221607,2018_Jun_19_1257,59.6199809192,verb_norming,001,911,
THROW,kasta,greppa,träffa,1,kasta,träffa,greppa,Leg,leg,0,46,46,94,0,0,0,0,,,,,,,,,,,,,1,2.892,,,,2018_Jun_19_1257,59.6199809192,verb_norming,001,911,
THROW,kasta,greppa,träffa,1,kasta,träffa,greppa,Arm,arm,0,46,46,94,0,1,1,1,,,,,,,,,,,,,7,0.866,,,,2018_Jun_19_1257,59.6199809192,verb_norming,001,911,
THROW,kasta,greppa,träffa,1,kasta,träffa,greppa,,,0,46,46,94,,,,,,,,,,,,,,,,,,,1,1,2.8346902957,2018_Jun_19_1257,59.6199809192,verb_norming,001,911,
HACK,hacka,skära,kåpa,2,kåpa,hacka,skära,Leg,leg,0,47,47,30,0,0,0,0,,,,,,,,,,,,,1,2.727,,,,2018_Jun_19_1257,59.6199809192,verb_norming,001,911,
HACK,hacka,skära,kåpa,2,kåpa,hacka,skära,Arm,arm,0,47,47,30,0,1,1,1,,,,,,,,,,,,,7,0.851,,,,2018_Jun_19_1257,59.6199809192,verb_norming,001,911,
HACK,hacka,skära,kåpa,2,kåpa,hacka,skära,,,0,47,47,30,,,,,,,,,,,,,,,,,,,2,1,8.20155533727,2018_Jun_19_1257,59.6199809192,verb_norming,001,911,
DANCE,dansa,snurra,svänga,1,dansa,snurra,svänga,Leg,leg,0,48,48,17,0,0,0,0,,,,,,,,,,,,,7,8.895,,,,2018_Jun_19_1257,59.6199809192,verb_norming,001,911,
DANCE,dansa,snurra,svänga,1,dansa,snurra,svänga,Arm,arm,0,48,48,17,0,1,1,1,,,,,,,,,,,,,2,2.059,,,,2018_Jun_19_1257,59.6199809192,verb_norming,001,911,
DANCE,dansa,snurra,svänga,1,dansa,snurra,svänga,,,0,48,48,17,,,,,,,,,,,,,,,,,,,1,1,0.956198155753,2018_Jun_19_1257,59.6199809192,verb_norming,001,911,
STAB,sticka,hacka,skära,3,skära,hacka,sticka,Leg,leg,0,49,49,81,0,0,0,0,,,,,,,,,,,,,1,2.742,,,,2018_Jun_19_1257,59.6199809192,verb_norming,001,911,
STAB,sticka,hacka,skära,3,skära,hacka,sticka,Arm,arm,0,49,49,81,0,1,1,1,,,,,,,,,,,,,7,1.202,,,,2018_Jun_19_1257,59.6199809192,verb_norming,001,911,
STAB,sticka,hacka,skära,3,skära,hacka,sticka,,,0,49,49,81,,,,,,,,,,,,,,,,,,,3,1,10.8178263209,2018_Jun_19_1257,59.6199809192,verb_norming,001,911,
DIG,gräva,dränera,dika,1,gräva,dika,dränera,Leg,leg,0,50,50,19,0,0,0,0,,,,,,,,,,,,,1,3.128,,,,2018_Jun_19_1257,59.6199809192,verb_norming,001,911,
DIG,gräva,dränera,dika,1,gräva,dika,dränera,Arm,arm,0,50,50,19,0,1,1,1,,,,,,,,,,,,,7,1.118,,,,2018_Jun_19_1257,59.6199809192,verb_norming,001,911,
DIG,gräva,dränera,dika,1,gräva,dika,dränera,,,0,50,50,19,,,,,,,,,,,,,,,,,,,1,1,1.19126057234,2018_Jun_19_1257,59.6199809192,verb_norming,001,911,
WADE,vada,pulsa,plöja,3,plöja,pulsa,vada,Leg,leg,0,51,51,104,0,0,0,0,,,,,,,,,,,,,7,3.112,,,,2018_Jun_19_1257,59.6199809192,verb_norming,001,911,
WADE,vada,pulsa,plöja,3,plöja,pulsa,vada,Arm,arm,0,51,51,104,0,1,1,1,,,,,,,,,,,,,3,6.939,,,,2018_Jun_19_1257,59.6199809192,verb_norming,001,911,
WADE,vada,pulsa,plöja,3,plöja,pulsa,vada,,,0,51,51,104,,,,,,,,,,,,,,,,,,,3,1,2.66676847506,2018_Jun_19_1257,59.6199809192,verb_norming,001,911,
SLITHER,hasa,glida,trilla,2,glida,hasa,trilla,Leg,leg,0,52,52,76,0,0,0,0,,,,,,,,,,,,,7,4.285,,,,2018_Jun_19_1257,59.6199809192,verb_norming,001,911,
SLITHER,hasa,glida,trilla,2,glida,hasa,trilla,Arm,arm,0,52,52,76,0,1,1,1,,,,,,,,,,,,,1,1.051,,,,2018_Jun_19_1257,59.6199809192,verb_norming,001,911,
SLITHER,hasa,glida,trilla,2,glida,hasa,trilla,,,0,52,52,76,,,,,,,,,,,,,,,,,,,2,1,6.99414081484,2018_Jun_19_1257,59.6199809192,verb_norming,001,911,
LIMP,halta,hasa,halka,3,hasa,halka,halta,Leg,leg,0,53,53,41,0,0,0,0,,,,,,,,,,,,,7,9.769,,,,2018_Jun_19_1257,59.6199809192,verb_norming,001,911,
LIMP,halta,hasa,halka,3,hasa,halka,halta,Arm,arm,0,53,53,41,0,1,1,1,,,,,,,,,,,,,1,1.202,,,,2018_Jun_19_1257,59.6199809192,verb_norming,001,911,
LIMP,halta,hasa,halka,3,hasa,halka,halta,,,0,53,53,41,,,,,,,,,,,,,,,,,,,3,1,1.82841663315,2018_Jun_19_1257,59.6199809192,verb_norming,001,911,
SCOOP,skyffla,dika,skrapa,2,skrapa,skyffla,dika,Leg,leg,0,54,54,63,0,0,0,0,,,,,,,,,,,,,1,2.993,,,,2018_Jun_19_1257,59.6199809192,verb_norming,001,911,
SCOOP,skyffla,dika,skrapa,2,skrapa,skyffla,dika,Arm,arm,0,54,54,63,0,1,1,1,,,,,,,,,,,,,7,1.302,,,,2018_Jun_19_1257,59.6199809192,verb_norming,001,911,
SCOOP,skyffla,dika,skrapa,2,skrapa,skyffla,dika,,,0,54,54,63,,,,,,,,,,,,,,,,,,,2,1,6.13874482496,2018_Jun_19_1257,59.6199809192,verb_norming,001,911,
JUMP,hoppa,kliva,lyfta,3,kliva,lyfta,hoppa,Leg,leg,0,55,55,35,0,0,0,0,,,,,,,,,,,,,7,5.794,,,,2018_Jun_19_1257,59.6199809192,verb_norming,001,911,
JUMP,hoppa,kliva,lyfta,3,kliva,lyfta,hoppa,Arm,arm,0,55,55,35,0,1,1,1,,,,,,,,,,,,,1,1.938,,,,2018_Jun_19_1257,59.6199809192,verb_norming,001,911,
JUMP,hoppa,kliva,lyfta,3,kliva,lyfta,hoppa,,,0,55,55,35,,,,,,,,,,,,,,,,,,,3,1,1.44407044456,2018_Jun_19_1257,59.6199809192,verb_norming,001,911,
SWITCH,slå på/av,knäppa,nypa,2,nypa,slå på/av,knäppa,Leg,leg,0,56,56,93,0,0,0,0,,,,,,,,,,,,,1,6.734,,,,2018_Jun_19_1257,59.6199809192,verb_norming,001,911,
SWITCH,slå på/av,knäppa,nypa,2,nypa,slå på/av,knäppa,Arm,arm,0,56,56,93,0,1,1,1,,,,,,,,,,,,,3,6.736,,,,2018_Jun_19_1257,59.6199809192,verb_norming,001,911,
SWITCH,slå på/av,knäppa,nypa,2,nypa,slå på/av,knäppa,,,0,56,56,93,,,,,,,,,,,,,,,,,,,2,1,19.3712381929,2018_Jun_19_1257,59.6199809192,verb_norming,001,911,
SWAY,vingla,tassa,ramla,2,ramla,vingla,tassa,Leg,leg,0,57,57,92,0,0,0,0,,,,,,,,,,,,,6,13.544,,,,2018_Jun_19_1257,59.6199809192,verb_norming,001,911,
SWAY,vingla,tassa,ramla,2,ramla,vingla,tassa,Arm,arm,0,57,57,92,0,1,1,1,,,,,,,,,,,,,1,1.136,,,,2018_Jun_19_1257,59.6199809192,verb_norming,001,911,
SWAY,vingla,tassa,ramla,2,ramla,vingla,tassa,,,0,57,57,92,,,,,,,,,,,,,,,,,,,2,1,3.53903555181,2018_Jun_19_1257,59.6199809192,verb_norming,001,911,
SLAP,smälla till,knäppa fast,klämma åt,2,klämma åt,smälla till,knäppa fast,Leg,leg,0,58,58,73,0,0,0,0,,,,,,,,,,,,,1,2.106,,,,2018_Jun_19_1257,59.6199809192,verb_norming,001,911,
SLAP,smälla till,knäppa fast,klämma åt,2,klämma åt,smälla till,knäppa fast,Arm,arm,0,58,58,73,0,1,1,1,,,,,,,,,,,,,7,7.811,,,,2018_Jun_19_1257,59.6199809192,verb_norming,001,911,
SLAP,smälla till,knäppa fast,klämma åt,2,klämma åt,smälla till,knäppa fast,,,0,58,58,73,,,,,,,,,,,,,,,,,,,2,1,6.12174690564,2018_Jun_19_1257,59.6199809192,verb_norming,001,911,
SNEAK,smyga,hasa,glida,1,smyga,hasa,glida,Leg,leg,0,59,59,78,0,0,0,0,,,,,,,,,,,,,7,25.921,,,,2018_Jun_19_1257,59.6199809192,verb_norming,001,911,
SNEAK,smyga,hasa,glida,1,smyga,hasa,glida,Arm,arm,0,59,59,78,0,1,1,1,,,,,,,,,,,,,1,1.79,,,,2018_Jun_19_1257,59.6199809192,verb_norming,001,911,
SNEAK,smyga,hasa,glida,1,smyga,hasa,glida,,,0,59,59,78,,,,,,,,,,,,,,,,,,,1,1,1.86197270692,2018_Jun_19_1257,59.6199809192,verb_norming,001,911,
RUSH,rusa,springa,löpa,2,springa,rusa,löpa,Leg,leg,0,60,60,62,0,0,0,0,,,,,,,,,,,,,7,5.88,,,,2018_Jun_19_1257,59.6199809192,verb_norming,001,911,
RUSH,rusa,springa,löpa,2,springa,rusa,löpa,Arm,arm,0,60,60,62,0,1,1,1,,,,,,,,,,,,,1,1.086,,,,2018_Jun_19_1257,59.6199809192,verb_norming,001,911,
RUSH,rusa,springa,löpa,2,springa,rusa,löpa,,,0,60,60,62,,,,,,,,,,,,,,,,,,,2,1,3.15337243935,2018_Jun_19_1257,59.6199809192,verb_norming,001,911,
MARCH,marschera,trava,traska,2,traska,marschera,trava,Leg,leg,0,61,61,42,0,0,0,0,,,,,,,,,,,,,7,3.614,,,,2018_Jun_19_1257,59.6199809192,verb_norming,001,911,
MARCH,marschera,trava,traska,2,traska,marschera,trava,Arm,arm,0,61,61,42,0,1,1,1,,,,,,,,,,,,,1,1.484,,,,2018_Jun_19_1257,59.6199809192,verb_norming,001,911,
MARCH,marschera,trava,traska,2,traska,marschera,trava,,,0,61,61,42,,,,,,,,,,,,,,,,,,,2,1,1.15769383041,2018_Jun_19_1257,59.6199809192,verb_norming,001,911,
PAT,klappa,slå,borsta,3,borsta,slå,klappa,Leg,leg,0,62,62,46,0,0,0,0,,,,,,,,,,,,,1,3.348,,,,2018_Jun_19_1257,59.6199809192,verb_norming,001,911,
PAT,klappa,slå,borsta,3,borsta,slå,klappa,Arm,arm,0,62,62,46,0,1,1,1,,,,,,,,,,,,,7,2.227,,,,2018_Jun_19_1257,59.6199809192,verb_norming,001,911,
PAT,klappa,slå,borsta,3,borsta,slå,klappa,,,0,62,62,46,,,,,,,,,,,,,,,,,,,3,1,2.49925401972,2018_Jun_19_1257,59.6199809192,verb_norming,001,911,
PEEL,skala,rensa,plocka,1,skala,rensa,plocka,Leg,leg,0,63,63,47,0,0,0,0,,,,,,,,,,,,,1,3.783,,,,2018_Jun_19_1257,59.6199809192,verb_norming,001,911,
PEEL,skala,rensa,plocka,1,skala,rensa,plocka,Arm,arm,0,63,63,47,0,1,1,1,,,,,,,,,,,,,7,0.684,,,,2018_Jun_19_1257,59.6199809192,verb_norming,001,911,
PEEL,skala,rensa,plocka,1,skala,rensa,plocka,,,0,63,63,47,,,,,,,,,,,,,,,,,,,1,1,7.46356905731,2018_Jun_19_1257,59.6199809192,verb_norming,001,911,
STEP,gå,klampa,traska,1,gå,traska,klampa,Leg,leg,0,64,64,84,0,0,0,0,,,,,,,,,,,,,7,24.563,,,,2018_Jun_19_1257,59.6199809192,verb_norming,001,911,
STEP,gå,klampa,traska,1,gå,traska,klampa,Arm,arm,0,64,64,84,0,1,1,1,,,,,,,,,,,,,1,0.851,,,,2018_Jun_19_1257,59.6199809192,verb_norming,001,911,
STEP,gå,klampa,traska,1,gå,traska,klampa,,,0,64,64,84,,,,,,,,,,,,,,,,,,,1,1,4.37784730953,2018_Jun_19_1257,59.6199809192,verb_norming,001,911,
KNOCK,knacka,krocka,klicka,3,krocka,klicka,knacka,Leg,leg,0,65,65,38,0,0,0,0,,,,,,,,,,,,,1,3.714,,,,2018_Jun_19_1257,59.6199809192,verb_norming,001,911,
KNOCK,knacka,krocka,klicka,3,krocka,klicka,knacka,Arm,arm,0,65,65,38,0,1,1,1,,,,,,,,,,,,,7,0.698,,,,2018_Jun_19_1257,59.6199809192,verb_norming,001,911,
KNOCK,knacka,krocka,klicka,3,krocka,klicka,knacka,,,0,65,65,38,,,,,,,,,,,,,,,,,,,3,1,1.77941939975,2018_Jun_19_1257,59.6199809192,verb_norming,001,911,
SNATCH,rycka till sig,knuffa ifrån sig,plocka åt sig,1,rycka till sig,knuffa ifrån sig,plocka åt sig,Leg,leg,0,66,66,77,0,0,0,0,,,,,,,,,,,,,1,1.97,,,,2018_Jun_19_1257,59.6199809192,verb_norming,001,911,
SNATCH,rycka till sig,knuffa ifrån sig,plocka åt sig,1,rycka till sig,knuffa ifrån sig,plocka åt sig,Arm,arm,0,66,66,77,0,1,1,1,,,,,,,,,,,,,7,0.582,,,,2018_Jun_19_1257,59.6199809192,verb_norming,001,911,
SNATCH,rycka till sig,knuffa ifrån sig,plocka åt sig,1,rycka till sig,knuffa ifrån sig,plocka åt sig,,,0,66,66,77,,,,,,,,,,,,,,,,,,,1,1,6.65857454548,2018_Jun_19_1257,59.6199809192,verb_norming,001,911,
SCRATCH,repa,riva,klösa,3,klösa,riva,repa,Leg,leg,0,67,67,65,0,0,0,0,,,,,,,,,,,,,1,23.404,,,,2018_Jun_19_1257,59.6199809192,verb_norming,001,911,
SCRATCH,repa,riva,klösa,3,klösa,riva,repa,Arm,arm,0,67,67,65,0,1,1,1,,,,,,,,,,,,,7,0.766,,,,2018_Jun_19_1257,59.6199809192,verb_norming,001,911,
SCRATCH,repa,riva,klösa,3,klösa,riva,repa,,,0,67,67,65,,,,,,,,,,,,,,,,,,,2,0,7.24566221159,2018_Jun_19_1257,59.6199809192,verb_norming,001,911,
TWINE,tvinna,binda,knyta,3,binda,knyta,tvinna,Leg,leg,0,68,68,103,0,0,0,0,,,,,,,,,,,,,1,9.13,,,,2018_Jun_19_1257,59.6199809192,verb_norming,001,911,
TWINE,tvinna,binda,knyta,3,binda,knyta,tvinna,Arm,arm,0,68,68,103,0,1,1,1,,,,,,,,,,,,,5,1.572,,,,2018_Jun_19_1257,59.6199809192,verb_norming,001,911,
TWINE,tvinna,binda,knyta,3,binda,knyta,tvinna,,,0,68,68,103,,,,,,,,,,,,,,,,,,,3,1,6.22263481183,2018_Jun_19_1257,59.6199809192,verb_norming,001,911,
SCRUB,skrubba,sopa,skrapa,3,sopa,skrapa,skrubba,Leg,leg,0,69,69,66,0,0,0,0,,,,,,,,,,,,,1,6.649,,,,2018_Jun_19_1257,59.6199809192,verb_norming,001,911,
SCRUB,skrubba,sopa,skrapa,3,sopa,skrapa,skrubba,Arm,arm,0,69,69,66,0,1,1,1,,,,,,,,,,,,,7,1.906,,,,2018_Jun_19_1257,59.6199809192,verb_norming,001,911,
SCRUB,skrubba,sopa,skrapa,3,sopa,skrapa,skrubba,,,0,69,69,66,,,,,,,,,,,,,,,,,,,3,1,5.3168586802,2018_Jun_19_1257,59.6199809192,verb_norming,001,911,
GLIDE,glida,hasa,snava,1,glida,hasa,snava,Leg,leg,0,70,70,25,0,0,0,0,,,,,,,,,,,,,5,7.035,,,,2018_Jun_19_1257,59.6199809192,verb_norming,001,911,
GLIDE,glida,hasa,snava,1,glida,hasa,snava,Arm,arm,0,70,70,25,0,1,1,1,,,,,,,,,,,,,3,0.598,,,,2018_Jun_19_1257,59.6199809192,verb_norming,001,911,
GLIDE,glida,hasa,snava,1,glida,hasa,snava,,,0,70,70,25,,,,,,,,,,,,,,,,,,,1,1,6.05481769712,2018_Jun_19_1257,59.6199809192,verb_norming,001,911,
BRUSH,borsta,skrubba,putsa,3,putsa,skrubba,borsta,Leg,leg,0,71,71,4,0,0,0,0,,,,,,,,,,,,,1,6.733,,,,2018_Jun_19_1257,59.6199809192,verb_norming,001,911,
BRUSH,borsta,skrubba,putsa,3,putsa,skrubba,borsta,Arm,arm,0,71,71,4,0,1,1,1,,,,,,,,,,,,,7,1.437,,,,2018_Jun_19_1257,59.6199809192,verb_norming,001,911,
BRUSH,borsta,skrubba,putsa,3,putsa,skrubba,borsta,,,0,71,71,4,,,,,,,,,,,,,,,,,,,3,1,1.45938082056,2018_Jun_19_1257,59.6199809192,verb_norming,001,911,
STRUT,svassa,lunka,strosa,2,lunka,svassa,strosa,Leg,leg,0,72,72,90,0,0,0,0,,,,,,,,,,,,,7,3.682,,,,2018_Jun_19_1257,59.6199809192,verb_norming,001,911,
STRUT,svassa,lunka,strosa,2,lunka,svassa,strosa,Arm,arm,0,72,72,90,0,1,1,1,,,,,,,,,,,,,1,0.583,,,,2018_Jun_19_1257,59.6199809192,verb_norming,001,911,
STRUT,svassa,lunka,strosa,2,lunka,svassa,strosa,,,0,72,72,90,,,,,,,,,,,,,,,,,,,1,0,4.2938210074,2018_Jun_19_1257,59.6199809192,verb_norming,001,911,
CHOP,hacka,tälja,riva,2,riva,hacka,tälja,Leg,leg,0,73,73,7,0,0,0,0,,,,,,,,,,,,,1,2.205,,,,2018_Jun_19_1257,59.6199809192,verb_norming,001,911,
CHOP,hacka,tälja,riva,2,riva,hacka,tälja,Arm,arm,0,73,73,7,0,1,1,1,,,,,,,,,,,,,7,1.068,,,,2018_Jun_19_1257,59.6199809192,verb_norming,001,911,
CHOP,hacka,tälja,riva,2,riva,hacka,tälja,,,0,73,73,7,,,,,,,,,,,,,,,,,,,2,1,8.41969214089,2018_Jun_19_1257,59.6199809192,verb_norming,001,911,
CRAWL,kravla,huka,klättra,3,huka,klättra,kravla,Leg,leg,0,74,74,14,0,0,0,0,,,,,,,,,,,,,4,8.697,,,,2018_Jun_19_1257,59.6199809192,verb_norming,001,911,
CRAWL,kravla,huka,klättra,3,huka,klättra,kravla,Arm,arm,0,74,74,14,0,1,1,1,,,,,,,,,,,,,7,2.763,,,,2018_Jun_19_1257,59.6199809192,verb_norming,001,911,
CRAWL,kravla,huka,klättra,3,huka,klättra,kravla,,,0,74,74,14,,,,,,,,,,,,,,,,,,,3,1,6.89347693981,2018_Jun_19_1257,59.6199809192,verb_norming,001,911,
WASH,tvätta,skura,sopa,2,skura,tvätta,sopa,Leg,leg,0,75,75,107,0,0,0,0,,,,,,,,,,,,,1,2.894,,,,2018_Jun_19_1257,59.6199809192,verb_norming,001,911,
WASH,tvätta,skura,sopa,2,skura,tvätta,sopa,Arm,arm,0,75,75,107,0,1,1,1,,,,,,,,,,,,,7,0.683,,,,2018_Jun_19_1257,59.6199809192,verb_norming,001,911,
WASH,tvätta,skura,sopa,2,skura,tvätta,sopa,,,0,75,75,107,,,,,,,,,,,,,,,,,,,2,1,1.50974120648,2018_Jun_19_1257,59.6199809192,verb_norming,001,911,
KNEEL,knäböja,krypa,kräla,2,kräla,knäböja,krypa,Leg,leg,0,76,76,37,0,0,0,0,,,,,,,,,,,,,7,6.315,,,,2018_Jun_19_1257,59.6199809192,verb_norming,001,911,
KNEEL,knäböja,krypa,kräla,2,kräla,knäböja,krypa,Arm,arm,0,76,76,37,0,1,1,1,,,,,,,,,,,,,1,0.633,,,,2018_Jun_19_1257,59.6199809192,verb_norming,001,911,
KNEEL,knäböja,krypa,kräla,2,kräla,knäböja,krypa,,,0,76,76,37,,,,,,,,,,,,,,,,,,,2,1,1.87874540973,2018_Jun_19_1257,59.6199809192,verb_norming,001,911,
LIFT,lyfta,pressa,öka,1,lyfta,öka,pressa,Leg,leg,0,77,77,40,0,0,0,0,,,,,,,,,,,,,3,10.374,,,,2018_Jun_19_1257,59.6199809192,verb_norming,001,911,
LIFT,lyfta,pressa,öka,1,lyfta,öka,pressa,Arm,arm,0,77,77,40,0,1,1,1,,,,,,,,,,,,,7,1.304,,,,2018_Jun_19_1257,59.6199809192,verb_norming,001,911,
LIFT,lyfta,pressa,öka,1,lyfta,öka,pressa,,,0,77,77,40,,,,,,,,,,,,,,,,,,,1,1,0.906005694422,2018_Jun_19_1257,59.6199809192,verb_norming,001,911,
BIND,binda,linda,vinda,3,vinda,linda,binda,Leg,leg,0,78,78,1,0,0,0,0,,,,,,,,,,,,,1,3.43,,,,2018_Jun_19_1257,59.6199809192,verb_norming,001,911,
BIND,binda,linda,vinda,3,vinda,linda,binda,Arm,arm,0,78,78,1,0,1,1,1,,,,,,,,,,,,,7,2.41,,,,2018_Jun_19_1257,59.6199809192,verb_norming,001,911,
BIND,binda,linda,vinda,3,vinda,linda,binda,,,0,78,78,1,,,,,,,,,,,,,,,,,,,3,1,2.9856351382,2018_Jun_19_1257,59.6199809192,verb_norming,001,911,
CREEP,krypa,knäböja,klättra,1,krypa,klättra,knäböja,Leg,leg,0,79,79,15,0,0,0,0,,,,,,,,,,,,,5,15.774,,,,2018_Jun_19_1257,59.6199809192,verb_norming,001,911,
CREEP,krypa,knäböja,klättra,1,krypa,klättra,knäböja,Arm,arm,0,79,79,15,0,1,1,1,,,,,,,,,,,,,1,0.717,,,,2018_Jun_19_1257,59.6199809192,verb_norming,001,911,
CREEP,krypa,knäböja,klättra,1,krypa,klättra,knäböja,,,0,79,79,15,,,,,,,,,,,,,,,,,,,1,1,7.98347661581,2018_Jun_19_1257,59.6199809192,verb_norming,001,911,
HOP,skutta,kliva,studsa,1,skutta,kliva,studsa,Leg,leg,0,80,80,32,0,0,0,0,,,,,,,,,,,,,7,7.371,,,,2018_Jun_19_1257,59.6199809192,verb_norming,001,911,
HOP,skutta,kliva,studsa,1,skutta,kliva,studsa,Arm,arm,0,80,80,32,0,1,1,1,,,,,,,,,,,,,1,0.448,,,,2018_Jun_19_1257,59.6199809192,verb_norming,001,911,
HOP,skutta,kliva,studsa,1,skutta,kliva,studsa,,,0,80,80,32,,,,,,,,,,,,,,,,,,,1,1,3.79043209169,2018_Jun_19_1257,59.6199809192,verb_norming,001,911,
GRASP,gripa,klämma,omfamna,3,omfamna,klämma,gripa,Leg,leg,0,81,81,27,0,0,0,0,,,,,,,,,,,,,1,4.436,,,,2018_Jun_19_1257,59.6199809192,verb_norming,001,911,
GRASP,gripa,klämma,omfamna,3,omfamna,klämma,gripa,Arm,arm,0,81,81,27,0,1,1,1,,,,,,,,,,,,,7,1.786,,,,2018_Jun_19_1257,59.6199809192,verb_norming,001,911,
GRASP,gripa,klämma,omfamna,3,omfamna,klämma,gripa,,,0,81,81,27,,,,,,,,,,,,,,,,,,,3,1,8.75485144008,2018_Jun_19_1257,59.6199809192,verb_norming,001,911,
STOMP,stampa,stiga,kliva,3,kliva,stiga,stampa,Leg,leg,0,82,82,86,0,0,0,0,,,,,,,,,,,,,7,8.225,,,,2018_Jun_19_1257,59.6199809192,verb_norming,001,911,
STOMP,stampa,stiga,kliva,3,kliva,stiga,stampa,Arm,arm,0,82,82,86,0,1,1,1,,,,,,,,,,,,,1,0.48,,,,2018_Jun_19_1257,59.6199809192,verb_norming,001,911,
STOMP,stampa,stiga,kliva,3,kliva,stiga,stampa,,,0,82,82,86,,,,,,,,,,,,,,,,,,,3,1,1.52646451971,2018_Jun_19_1257,59.6199809192,verb_norming,001,911,
BRAID,fläta,knyta,binda,3,knyta,binda,fläta,Leg,leg,0,83,83,3,0,0,0,0,,,,,,,,,,,,,1,6.012,,,,2018_Jun_19_1257,59.6199809192,verb_norming,001,911,
BRAID,fläta,knyta,binda,3,knyta,binda,fläta,Arm,arm,0,83,83,3,0,1,1,1,,,,,,,,,,,,,7,0.967,,,,2018_Jun_19_1257,59.6199809192,verb_norming,001,911,
BRAID,fläta,knyta,binda,3,knyta,binda,fläta,,,0,83,83,3,,,,,,,,,,,,,,,,,,,3,1,3.79070432708,2018_Jun_19_1257,59.6199809192,verb_norming,001,911,
TREAD,trampa,stampa,klampa,3,klampa,stampa,trampa,Leg,leg,0,84,84,98,0,0,0,0,,,,,,,,,,,,,7,6.869,,,,2018_Jun_19_1257,59.6199809192,verb_norming,001,911,
TREAD,trampa,stampa,klampa,3,klampa,stampa,trampa,Arm,arm,0,84,84,98,0,1,1,1,,,,,,,,,,,,,1,1.555,,,,2018_Jun_19_1257,59.6199809192,verb_norming,001,911,
TREAD,trampa,stampa,klampa,3,klampa,stampa,trampa,,,0,84,84,98,,,,,,,,,,,,,,,,,,,3,1,7.93320829208,2018_Jun_19_1257,59.6199809192,verb_norming,001,911,
CUT,skära,sticka,spetsa,3,sticka,spetsa,skära,Leg,leg,0,85,85,16,0,0,0,0,,,,,,,,,,,,,1,2.66,,,,2018_Jun_19_1257,59.6199809192,verb_norming,001,911,
CUT,skära,sticka,spetsa,3,sticka,spetsa,skära,Arm,arm,0,85,85,16,0,1,1,1,,,,,,,,,,,,,7,1.07,,,,2018_Jun_19_1257,59.6199809192,verb_norming,001,911,
CUT,skära,sticka,spetsa,3,sticka,spetsa,skära,,,0,85,85,16,,,,,,,,,,,,,,,,,,,3,1,2.11360394611,2018_Jun_19_1257,59.6199809192,verb_norming,001,911,
SQUEEZE,klämma,knuffa,knäppa,1,klämma,knuffa,knäppa,Leg,leg,0,86,86,80,0,0,0,0,,,,,,,,,,,,,1,2.217,,,,2018_Jun_19_1257,59.6199809192,verb_norming,001,911,
SQUEEZE,klämma,knuffa,knäppa,1,klämma,knuffa,knäppa,Arm,arm,0,86,86,80,0,1,1,1,,,,,,,,,,,,,7,0.864,,,,2018_Jun_19_1257,59.6199809192,verb_norming,001,911,
SQUEEZE,klämma,knuffa,knäppa,1,klämma,knuffa,knäppa,,,0,86,86,80,,,,,,,,,,,,,,,,,,,1,1,0.956164175721,2018_Jun_19_1257,59.6199809192,verb_norming,001,911,
WALK,gå,promenera,marschera,1,gå,promenera,marschera,Leg,leg,0,87,87,105,0,0,0,0,,,,,,,,,,,,,7,5.812,,,,2018_Jun_19_1257,59.6199809192,verb_norming,001,911,
WALK,gå,promenera,marschera,1,gå,promenera,marschera,Arm,arm,0,87,87,105,0,1,1,1,,,,,,,,,,,,,1,1.438,,,,2018_Jun_19_1257,59.6199809192,verb_norming,001,911,
WALK,gå,promenera,marschera,1,gå,promenera,marschera,,,0,87,87,105,,,,,,,,,,,,,,,,,,,1,1,1.84516641919,2018_Jun_19_1257,59.6199809192,verb_norming,001,911,
STAMP,stampa,kliva,skutta,1,stampa,skutta,kliva,Leg,leg,0,88,88,83,0,0,0,0,,,,,,,,,,,,,1,17.045,,,,2018_Jun_19_1257,59.6199809192,verb_norming,001,911,
STAMP,stampa,kliva,skutta,1,stampa,skutta,kliva,Arm,arm,0,88,88,83,0,1,1,1,,,,,,,,,,,,,7,2.258,,,,2018_Jun_19_1257,59.6199809192,verb_norming,001,911,
STAMP,stampa,kliva,skutta,1,stampa,skutta,kliva,,,0,88,88,83,,,,,,,,,,,,,,,,,,,1,1,12.7799184321,2018_Jun_19_1257,59.6199809192,verb_norming,001,911,
WHIP,piska,klappa,slå,3,klappa,slå,piska,Leg,leg,0,89,89,108,0,0,0,0,,,,,,,,,,,,,1,5.393,,,,2018_Jun_19_1257,59.6199809192,verb_norming,001,911,
WHIP,piska,klappa,slå,3,klappa,slå,piska,Arm,arm,0,89,89,108,0,1,1,1,,,,,,,,,,,,,7,1.891,,,,2018_Jun_19_1257,59.6199809192,verb_norming,001,911,
WHIP,piska,klappa,slå,3,klappa,slå,piska,,,0,89,89,108,,,,,,,,,,,,,,,,,,,3,1,3.55587147329,2018_Jun_19_1257,59.6199809192,verb_norming,001,911,
STAGGER,ragla,lunka,halka,3,halka,lunka,ragla,Leg,leg,0,90,90,82,0,0,0,0,,,,,,,,,,,,,7,46.262,,,,2018_Jun_19_1257,59.6199809192,verb_norming,001,911,
STAGGER,ragla,lunka,halka,3,halka,lunka,ragla,Arm,arm,0,90,90,82,0,1,1,1,,,,,,,,,,,,,1,0.479,,,,2018_Jun_19_1257,59.6199809192,verb_norming,001,911,
STAGGER,ragla,lunka,halka,3,halka,lunka,ragla,,,0,90,90,82,,,,,,,,,,,,,,,,,,,3,1,4.0253957291,2018_Jun_19_1257,59.6199809192,verb_norming,001,911,
SKIM,skumma,vispa,sleva,2,sleva,skumma,vispa,Leg,leg,0,91,91,71,0,0,0,0,,,,,,,,,,,,,3,5.894,,,,2018_Jun_19_1257,59.6199809192,verb_norming,001,911,
SKIM,skumma,vispa,sleva,2,sleva,skumma,vispa,Arm,arm,0,91,91,71,0,1,1,1,,,,,,,,,,,,,7,2.661,,,,2018_Jun_19_1257,59.6199809192,verb_norming,001,911,
SKIM,skumma,vispa,sleva,2,sleva,skumma,vispa,,,0,91,91,71,,,,,,,,,,,,,,,,,,,2,1,15.5641337581,2018_Jun_19_1257,59.6199809192,verb_norming,001,911,
TUG,rycka,pressa,slå,3,pressa,slå,rycka,Leg,leg,0,92,92,102,0,0,0,0,,,,,,,,,,,,,1,5.61,,,,2018_Jun_19_1257,59.6199809192,verb_norming,001,911,
TUG,rycka,pressa,slå,3,pressa,slå,rycka,Arm,arm,0,92,92,102,0,1,1,1,,,,,,,,,,,,,7,1.186,,,,2018_Jun_19_1257,59.6199809192,verb_norming,001,911,
TUG,rycka,pressa,slå,3,pressa,slå,rycka,,,0,92,92,102,,,,,,,,,,,,,,,,,,,3,1,1.91201778973,2018_Jun_19_1257,59.6199809192,verb_norming,001,911,
SCUFF,hasa sig fram,dra sig fram,kasta sig fram,1,hasa sig fram,kasta sig fram,dra sig fram,Leg,leg,0,93,93,67,0,0,0,0,,,,,,,,,,,,,1,13.56,,,,2018_Jun_19_1257,59.6199809192,verb_norming,001,911,
SCUFF,hasa sig fram,dra sig fram,kasta sig fram,1,hasa sig fram,kasta sig fram,dra sig fram,Arm,arm,0,93,93,67,0,1,1,1,,,,,,,,,,,,,7,0.6,,,,2018_Jun_19_1257,59.6199809192,verb_norming,001,911,
SCUFF,hasa sig fram,dra sig fram,kasta sig fram,1,hasa sig fram,kasta sig fram,dra sig fram,,,0,93,93,67,,,,,,,,,,,,,,,,,,,3,0,5.7027098682,2018_Jun_19_1257,59.6199809192,verb_norming,001,911,
CLIMB,klättra,kliva,krypa,3,krypa,kliva,klättra,Leg,leg,0,94,94,12,0,0,0,0,,,,,,,,,,,,,7,3.58,,,,2018_Jun_19_1257,59.6199809192,verb_norming,001,911,
CLIMB,klättra,kliva,krypa,3,krypa,kliva,klättra,Arm,arm,0,94,94,12,0,1,1,1,,,,,,,,,,,,,1,2.996,,,,2018_Jun_19_1257,59.6199809192,verb_norming,001,911,
CLIMB,klättra,kliva,krypa,3,krypa,kliva,klättra,,,0,94,94,12,,,,,,,,,,,,,,,,,,,3,1,1.47616695734,2018_Jun_19_1257,59.6199809192,verb_norming,001,911,
PULL,dra,slänga,släpa,1,dra,släpa,slänga,Leg,leg,0,95,95,54,0,0,0,0,,,,,,,,,,,,,1,3.917,,,,2018_Jun_19_1257,59.6199809192,verb_norming,001,911,
PULL,dra,slänga,släpa,1,dra,släpa,slänga,Arm,arm,0,95,95,54,0,1,1,1,,,,,,,,,,,,,7,1.22,,,,2018_Jun_19_1257,59.6199809192,verb_norming,001,911,
PULL,dra,slänga,släpa,1,dra,släpa,slänga,,,0,95,95,54,,,,,,,,,,,,,,,,,,,1,1,1.39232477958,2018_Jun_19_1257,59.6199809192,verb_norming,001,911,
SCRAPE,skrapa,rispa,klösa,1,skrapa,rispa,klösa,Leg,leg,0,96,96,64,0,0,0,0,,,,,,,,,,,,,1,4.956,,,,2018_Jun_19_1257,59.6199809192,verb_norming,001,911,
SCRAPE,skrapa,rispa,klösa,1,skrapa,rispa,klösa,Arm,arm,0,96,96,64,0,1,1,1,,,,,,,,,,,,,7,0.8,,,,2018_Jun_19_1257,59.6199809192,verb_norming,001,911,
SCRAPE,skrapa,rispa,klösa,1,skrapa,rispa,klösa,,,0,96,96,64,,,,,,,,,,,,,,,,,,,1,1,1.94584175261,2018_Jun_19_1257,59.6199809192,verb_norming,001,911,
BASH,slå,knuffa,trycka,1,slå,trycka,knuffa,Leg,leg,0,97,97,0,0,0,0,0,,,,,,,,,,,,,1,2.254,,,,2018_Jun_19_1257,59.6199809192,verb_norming,001,911,
BASH,slå,knuffa,trycka,1,slå,trycka,knuffa,Arm,arm,0,97,97,0,0,1,1,1,,,,,,,,,,,,,7,0.414,,,,2018_Jun_19_1257,59.6199809192,verb_norming,001,911,
BASH,slå,knuffa,trycka,1,slå,trycka,knuffa,,,0,97,97,0,,,,,,,,,,,,,,,,,,,1,1,6.91011293225,2018_Jun_19_1257,59.6199809192,verb_norming,001,911,
INCH,röra sig långsamt framåt,dra sig snabbt tillbaka,hasa sig bakåt,2,dra sig snabbt tillbaka,röra sig långsamt framåt,hasa sig bakåt,Leg,leg,0,98,98,33,0,0,0,0,,,,,,,,,,,,,7,8.529,,,,2018_Jun_19_1257,59.6199809192,verb_norming,001,911,
INCH,röra sig långsamt framåt,dra sig snabbt tillbaka,hasa sig bakåt,2,dra sig snabbt tillbaka,röra sig långsamt framåt,hasa sig bakåt,Arm,arm,0,98,98,33,0,1,1,1,,,,,,,,,,,,,1,0.818,,,,2018_Jun_19_1257,59.6199809192,verb_norming,001,911,
INCH,röra sig långsamt framåt,dra sig snabbt tillbaka,hasa sig bakåt,2,dra sig snabbt tillbaka,röra sig långsamt framåt,hasa sig bakåt,,,0,98,98,33,,,,,,,,,,,,,,,,,,,2,1,10.9354102773,2018_Jun_19_1257,59.6199809192,verb_norming,001,911,
GRATE,riva,hugga,rispa,1,riva,rispa,hugga,Leg,leg,0,99,99,28,0,0,0,0,,,,,,,,,,,,,5,8.242,,,,2018_Jun_19_1257,59.6199809192,verb_norming,001,911,
GRATE,riva,hugga,rispa,1,riva,rispa,hugga,Arm,arm,0,99,99,28,0,1,1,1,,,,,,,,,,,,,1,1.42,,,,2018_Jun_19_1257,59.6199809192,verb_norming,001,911,
GRATE,riva,hugga,rispa,1,riva,rispa,hugga,,,0,99,99,28,,,,,,,,,,,,,,,,,,,2,0,6.7928328206,2018_Jun_19_1257,59.6199809192,verb_norming,001,911,
ROLL,vingla,snubbla,svassa,2,svassa,vingla,snubbla,Leg,leg,0,100,100,59,0,0,0,0,,,,,,,,,,,,,1,18.474,,,,2018_Jun_19_1257,59.6199809192,verb_norming,001,911,
ROLL,vingla,snubbla,svassa,2,svassa,vingla,snubbla,Arm,arm,0,100,100,59,0,1,1,1,,,,,,,,,,,,,7,0.414,,,,2018_Jun_19_1257,59.6199809192,verb_norming,001,911,
ROLL,vingla,snubbla,svassa,2,svassa,vingla,snubbla,,,0,100,100,59,,,,,,,,,,,,,,,,,,,1,0,11.9919412003,2018_Jun_19_1257,59.6199809192,verb_norming,001,911,
RUB,gnugga,riva,klappa,3,klappa,riva,gnugga,Leg,leg,0,101,101,60,0,0,0,0,,,,,,,,,,,,,1,7.908,,,,2018_Jun_19_1257,59.6199809192,verb_norming,001,911,
RUB,gnugga,riva,klappa,3,klappa,riva,gnugga,Arm,arm,0,101,101,60,0,1,1,1,,,,,,,,,,,,,7,1.605,,,,2018_Jun_19_1257,59.6199809192,verb_norming,001,911,
RUB,gnugga,riva,klappa,3,klappa,riva,gnugga,,,0,101,101,60,,,,,,,,,,,,,,,,,,,3,1,6.02117272209,2018_Jun_19_1257,59.6199809192,verb_norming,001,911,
SLIP,halka,snava,ramla,3,ramla,snava,halka,Leg,leg,0,102,102,75,0,0,0,0,,,,,,,,,,,,,7,15.758,,,,2018_Jun_19_1257,59.6199809192,verb_norming,001,911,
SLIP,halka,snava,ramla,3,ramla,snava,halka,Arm,arm,0,102,102,75,0,1,1,1,,,,,,,,,,,,,1,1.136,,,,2018_Jun_19_1257,59.6199809192,verb_norming,001,911,
SLIP,halka,snava,ramla,3,ramla,snava,halka,,,0,102,102,75,,,,,,,,,,,,,,,,,,,3,1,1.56004509071,2018_Jun_19_1257,59.6199809192,verb_norming,001,911,
WIPE,torka,putsa,gnugga,3,gnugga,putsa,torka,Leg,leg,0,103,103,109,0,0,0,0,,,,,,,,,,,,,1,3.481,,,,2018_Jun_19_1257,59.6199809192,verb_norming,001,911,
WIPE,torka,putsa,gnugga,3,gnugga,putsa,torka,Arm,arm,0,103,103,109,0,1,1,1,,,,,,,,,,,,,7,0.6,,,,2018_Jun_19_1257,59.6199809192,verb_norming,001,911,
WIPE,torka,putsa,gnugga,3,gnugga,putsa,torka,,,0,103,103,109,,,,,,,,,,,,,,,,,,,3,1,2.8512780839,2018_Jun_19_1257,59.6199809192,verb_norming,001,911,
CLAP,klappa,knäppa,klämma,2,klämma,klappa,knäppa,Leg,leg,0,104,104,8,0,0,0,0,,,,,,,,,,,,,1,6.567,,,,2018_Jun_19_1257,59.6199809192,verb_norming,001,911,
CLAP,klappa,knäppa,klämma,2,klämma,klappa,knäppa,Arm,arm,0,104,104,8,0,1,1,1,,,,,,,,,,,,,7,2.629,,,,2018_Jun_19_1257,59.6199809192,verb_norming,001,911,
CLAP,klappa,knäppa,klämma,2,klämma,klappa,knäppa,,,0,104,104,8,,,,,,,,,,,,,,,,,,,2,1,1.32519169085,2018_Jun_19_1257,59.6199809192,verb_norming,001,911,
POLISH,polera,sopa,tvätta,3,tvätta,sopa,polera,Leg,leg,0,105,105,52,0,0,0,0,,,,,,,,,,,,,1,16.292,,,,2018_Jun_19_1257,59.6199809192,verb_norming,001,911,
POLISH,polera,sopa,tvätta,3,tvätta,sopa,polera,Arm,arm,0,105,105,52,0,1,1,1,,,,,,,,,,,,,7,0.53,,,,2018_Jun_19_1257,59.6199809192,verb_norming,001,911,
POLISH,polera,sopa,tvätta,3,tvätta,sopa,polera,,,0,105,105,52,,,,,,,,,,,,,,,,,,,3,1,3.13658077094,2018_Jun_19_1257,59.6199809192,verb_norming,001,911,
SKIP,hoppa,kliva,strutta,3,kliva,strutta,hoppa,Leg,leg,0,106,106,72,0,0,0,0,,,,,,,,,,,,,7,7.557,,,,2018_Jun_19_1257,59.6199809192,verb_norming,001,911,
SKIP,hoppa,kliva,strutta,3,kliva,strutta,hoppa,Arm,arm,0,106,106,72,0,1,1,1,,,,,,,,,,,,,1,0.818,,,,2018_Jun_19_1257,59.6199809192,verb_norming,001,911,
SKIP,hoppa,kliva,strutta,3,kliva,strutta,hoppa,,,0,106,106,72,,,,,,,,,,,,,,,,,,,2,0,6.0547319568,2018_Jun_19_1257,59.6199809192,verb_norming,001,911,
PACE,gå fram och tillbaka,luffa runt,rusa fram,2,luffa runt,gå fram och tillbaka,rusa fram,Leg,leg,0,107,107,45,0,0,0,0,,,,,,,,,,,,,7,2.358,,,,2018_Jun_19_1257,59.6199809192,verb_norming,001,911,
PACE,gå fram och tillbaka,luffa runt,rusa fram,2,luffa runt,gå fram och tillbaka,rusa fram,Arm,arm,0,107,107,45,0,1,1,1,,,,,,,,,,,,,1,0.733,,,,2018_Jun_19_1257,59.6199809192,verb_norming,001,911,
PACE,gå fram och tillbaka,luffa runt,rusa fram,2,luffa runt,gå fram och tillbaka,rusa fram,,,0,107,107,45,,,,,,,,,,,,,,,,,,,2,1,3.45533482582,2018_Jun_19_1257,59.6199809192,verb_norming,001,911,
FLIT,rusa,hasa,svassa,1,rusa,hasa,svassa,Leg,leg,0,108,108,23,0,0,0,0,,,,,,,,,,,,,1,4.753,,,,2018_Jun_19_1257,59.6199809192,verb_norming,001,911,
FLIT,rusa,hasa,svassa,1,rusa,hasa,svassa,Arm,arm,0,108,108,23,0,1,1,1,,,,,,,,,,,,,7,1.036,,,,2018_Jun_19_1257,59.6199809192,verb_norming,001,911,
FLIT,rusa,hasa,svassa,1,rusa,hasa,svassa,,,0,108,108,23,,,,,,,,,,,,,,,,,,,3,0,5.68584707878,2018_Jun_19_1257,59.6199809192,verb_norming,001,911,
PUSH,knuffa,kasta,klämma,2,klämma,knuffa,kasta,Leg,leg,0,109,109,56,0,0,0,0,,,,,,,,,,,,,1,23.607,,,,2018_Jun_19_1257,59.6199809192,verb_norming,001,911,
PUSH,knuffa,kasta,klämma,2,klämma,knuffa,kasta,Arm,arm,0,109,109,56,0,1,1,1,,,,,,,,,,,,,7,0.516,,,,2018_Jun_19_1257,59.6199809192,verb_norming,001,911,
PUSH,knuffa,kasta,klämma,2,klämma,knuffa,kasta,,,0,109,109,56,,,,,,,,,,,,,,,,,,,2,1,1.56024106858,2018_Jun_19_1257,59.6199809192,verb_norming,001,911,
STUMBLE,snubbla,glida,svaja,2,glida,snubbla,svaja,Leg,leg,0,110,110,91,0,0,0,0,,,,,,,,,,,,,7,17.214,,,,2018_Jun_19_1257,59.6199809192,verb_norming,001,911,
STUMBLE,snubbla,glida,svaja,2,glida,snubbla,svaja,Arm,arm,0,110,110,91,0,1,1,1,,,,,,,,,,,,,1,0.647,,,,2018_Jun_19_1257,59.6199809192,verb_norming,001,911,
STUMBLE,snubbla,glida,svaja,2,glida,snubbla,svaja,,,0,110,110,91,,,,,,,,,,,,,,,,,,,2,1,2.19737184193,2018_Jun_19_1257,59.6199809192,verb_norming,001,911,
TRAIPSE,traska,stappla,vandra,3,vandra,stappla,traska,Leg,leg,0,111,111,97,0,0,0,0,,,,,,,,,,,,,3,6.917,,,,2018_Jun_19_1257,59.6199809192,verb_norming,001,911,
TRAIPSE,traska,stappla,vandra,3,vandra,stappla,traska,Arm,arm,0,111,111,97,0,1,1,1,,,,,,,,,,,,,3,0.615,,,,2018_Jun_19_1257,59.6199809192,verb_norming,001,911,
TRAIPSE,traska,stappla,vandra,3,vandra,stappla,traska,,,0,111,111,97,,,,,,,,,,,,,,,,,,,2,0,5.19929092362,2018_Jun_19_1257,59.6199809192,verb_norming,001,911,
