word,target,distrOne,distrTwo,corrAns,w1,w2,w3,category,category_lowercase,trials.thisRepN,trials.thisTrialN,trials.thisN,trials.thisIndex,ArmLeg_loop.thisRepN,ArmLeg_loop.thisTrialN,ArmLeg_loop.thisN,ArmLeg_loop.thisIndex,key_resp_9.keys,key_resp_9.rt,key_resp_3.keys,key_resp_3.rt,key_resp_6.keys,key_resp_6.rt,key_resp_5.keys,key_resp_5.rt,key_resp_4.keys,key_resp_4.rt,key_resp_8.keys,key_resp_8.rt,rating.response,rating.rt,answer.keys,answer.corr,answer.rt,date,frameRate,expName,session,participant,
,,,,,,,,,,,,,,,,,,space,166.721081955,,,,,,,,,,,,,,,,2018_Jun_20_1058,59.6401472308,verb_norming,001,912,
,,,,,,,,,,,,,,,,,,,,space,5.29995689344,,,,,,,,,,,,,,2018_Jun_20_1058,59.6401472308,verb_norming,001,912,
,,,,,,,,,,,,,,,,,,,,,,space,14.8426440484,,,,,,,,,,,,2018_Jun_20_1058,59.6401472308,verb_norming,001,912,
,,,,,,,,,,,,,,,,,,,,,,,,space,12.4111256029,,,,,,,,,,2018_Jun_20_1058,59.6401472308,verb_norming,001,912,
,,,,,,,,,,,,,,,,,,,,,,,,,,space,5.93723075683,,,,,,,,2018_Jun_20_1058,59.6401472308,verb_norming,001,912,
,,,,,,,,,,,,,,,,,,,,,,,,,,,,space,2.31474943865,,,,,,2018_Jun_20_1058,59.6401472308,verb_norming,001,912,
GRATE,riva,hugga,rispa,1,riva,rispa,hugga,Arm,arm,0,0,0,28,0,0,0,0,,,,,,,,,,,,,7,13.266,,,,2018_Jun_20_1058,59.6401472308,verb_norming,001,912,
GRATE,riva,hugga,rispa,1,riva,rispa,hugga,Leg,leg,0,0,0,28,0,1,1,1,,,,,,,,,,,,,1,5.563,,,,2018_Jun_20_1058,59.6401472308,verb_norming,001,912,
GRATE,riva,hugga,rispa,1,riva,rispa,hugga,,,0,0,0,28,,,,,,,,,,,,,,,,,,,1,1,3.67330676346,2018_Jun_20_1058,59.6401472308,verb_norming,001,912,
TWINE,tvinna,binda,knyta,3,binda,knyta,tvinna,Arm,arm,0,1,1,103,0,0,0,0,,,,,,,,,,,,,6,13.576,,,,2018_Jun_20_1058,59.6401472308,verb_norming,001,912,
TWINE,tvinna,binda,knyta,3,binda,knyta,tvinna,Leg,leg,0,1,1,103,0,1,1,1,,,,,,,,,,,,,2,5.211,,,,2018_Jun_20_1058,59.6401472308,verb_norming,001,912,
TWINE,tvinna,binda,knyta,3,binda,knyta,tvinna,,,0,1,1,103,,,,,,,,,,,,,,,,,,,2,0,25.2911735851,2018_Jun_20_1058,59.6401472308,verb_norming,001,912,
CLIMB,klättra,kliva,krypa,1,klättra,krypa,kliva,Arm,arm,0,2,2,12,0,0,0,0,,,,,,,,,,,,,7,8.928,,,,2018_Jun_20_1058,59.6401472308,verb_norming,001,912,
CLIMB,klättra,kliva,krypa,1,klättra,krypa,kliva,Leg,leg,0,2,2,12,0,1,1,1,,,,,,,,,,,,,7,2.56,,,,2018_Jun_20_1058,59.6401472308,verb_norming,001,912,
CLIMB,klättra,kliva,krypa,1,klättra,krypa,kliva,,,0,2,2,12,,,,,,,,,,,,,,,,,,,1,1,6.52558913952,2018_Jun_20_1058,59.6401472308,verb_norming,001,912,
JUMP,hoppa,kliva,lyfta,1,hoppa,lyfta,kliva,Arm,arm,0,3,3,35,0,0,0,0,,,,,,,,,,,,,2,6.38,,,,2018_Jun_20_1058,59.6401472308,verb_norming,001,912,
JUMP,hoppa,kliva,lyfta,1,hoppa,lyfta,kliva,Leg,leg,0,3,3,35,0,1,1,1,,,,,,,,,,,,,7,2.427,,,,2018_Jun_20_1058,59.6401472308,verb_norming,001,912,
JUMP,hoppa,kliva,lyfta,1,hoppa,lyfta,kliva,,,0,3,3,35,,,,,,,,,,,,,,,,,,,1,1,2.33151556123,2018_Jun_20_1058,59.6401472308,verb_norming,001,912,
STAMP,stampa,kliva,skutta,1,stampa,kliva,skutta,Arm,arm,0,4,4,83,0,0,0,0,,,,,,,,,,,,,1,7.187,,,,2018_Jun_20_1058,59.6401472308,verb_norming,001,912,
STAMP,stampa,kliva,skutta,1,stampa,kliva,skutta,Leg,leg,0,4,4,83,0,1,1,1,,,,,,,,,,,,,7,1.974,,,,2018_Jun_20_1058,59.6401472308,verb_norming,001,912,
STAMP,stampa,kliva,skutta,1,stampa,kliva,skutta,,,0,4,4,83,,,,,,,,,,,,,,,,,,,1,1,3.43854943841,2018_Jun_20_1058,59.6401472308,verb_norming,001,912,
BIND,binda,linda,vinda,1,binda,vinda,linda,Arm,arm,0,5,5,1,0,0,0,0,,,,,,,,,,,,,6,8.207,,,,2018_Jun_20_1058,59.6401472308,verb_norming,001,912,
BIND,binda,linda,vinda,1,binda,vinda,linda,Leg,leg,0,5,5,1,0,1,1,1,,,,,,,,,,,,,1,3.198,,,,2018_Jun_20_1058,59.6401472308,verb_norming,001,912,
BIND,binda,linda,vinda,1,binda,vinda,linda,,,0,5,5,1,,,,,,,,,,,,,,,,,,,1,1,2.56632741155,2018_Jun_20_1058,59.6401472308,verb_norming,001,912,
RUN,springa,rusa,jogga,2,rusa,springa,jogga,Arm,arm,0,6,6,61,0,0,0,0,,,,,,,,,,,,,2,4.89,,,,2018_Jun_20_1058,59.6401472308,verb_norming,001,912,
RUN,springa,rusa,jogga,2,rusa,springa,jogga,Leg,leg,0,6,6,61,0,1,1,1,,,,,,,,,,,,,7,2.998,,,,2018_Jun_20_1058,59.6401472308,verb_norming,001,912,
RUN,springa,rusa,jogga,2,rusa,springa,jogga,,,0,6,6,61,,,,,,,,,,,,,,,,,,,2,1,11.337556407,2018_Jun_20_1058,59.6401472308,verb_norming,001,912,
WIPE,torka,putsa,gnugga,1,torka,putsa,gnugga,Arm,arm,0,7,7,109,0,0,0,0,,,,,,,,,,,,,7,5.645,,,,2018_Jun_20_1058,59.6401472308,verb_norming,001,912,
WIPE,torka,putsa,gnugga,1,torka,putsa,gnugga,Leg,leg,0,7,7,109,0,1,1,1,,,,,,,,,,,,,1,1.606,,,,2018_Jun_20_1058,59.6401472308,verb_norming,001,912,
WIPE,torka,putsa,gnugga,1,torka,putsa,gnugga,,,0,7,7,109,,,,,,,,,,,,,,,,,,,1,1,6.18881821238,2018_Jun_20_1058,59.6401472308,verb_norming,001,912,
BRUSH,borsta,skrubba,putsa,2,skrubba,borsta,putsa,Arm,arm,0,8,8,4,0,0,0,0,,,,,,,,,,,,,7,9.568,,,,2018_Jun_20_1058,59.6401472308,verb_norming,001,912,
BRUSH,borsta,skrubba,putsa,2,skrubba,borsta,putsa,Leg,leg,0,8,8,4,0,1,1,1,,,,,,,,,,,,,1,1.823,,,,2018_Jun_20_1058,59.6401472308,verb_norming,001,912,
BRUSH,borsta,skrubba,putsa,2,skrubba,borsta,putsa,,,0,8,8,4,,,,,,,,,,,,,,,,,,,2,1,6.39033646432,2018_Jun_20_1058,59.6401472308,verb_norming,001,912,
SEIZE,fånga,klämma,fästa,3,klämma,fästa,fånga,Arm,arm,0,9,9,68,0,0,0,0,,,,,,,,,,,,,5,12.417,,,,2018_Jun_20_1058,59.6401472308,verb_norming,001,912,
SEIZE,fånga,klämma,fästa,3,klämma,fästa,fånga,Leg,leg,0,9,9,68,0,1,1,1,,,,,,,,,,,,,1,2.443,,,,2018_Jun_20_1058,59.6401472308,verb_norming,001,912,
SEIZE,fånga,klämma,fästa,3,klämma,fästa,fånga,,,0,9,9,68,,,,,,,,,,,,,,,,,,,3,1,19.8907250556,2018_Jun_20_1058,59.6401472308,verb_norming,001,912,
FLIT,rusa,hasa,svassa,2,hasa,rusa,svassa,Arm,arm,0,10,10,23,0,0,0,0,,,,,,,,,,,,,2,10.643,,,,2018_Jun_20_1058,59.6401472308,verb_norming,001,912,
FLIT,rusa,hasa,svassa,2,hasa,rusa,svassa,Leg,leg,0,10,10,23,0,1,1,1,,,,,,,,,,,,,6,1.706,,,,2018_Jun_20_1058,59.6401472308,verb_norming,001,912,
FLIT,rusa,hasa,svassa,2,hasa,rusa,svassa,,,0,10,10,23,,,,,,,,,,,,,,,,,,,2,1,15.9327999867,2018_Jun_20_1058,59.6401472308,verb_norming,001,912,
SNEAK,smyga,hasa,glida,3,hasa,glida,smyga,Arm,arm,0,11,11,78,0,0,0,0,,,,,,,,,,,,,1,3.682,,,,2018_Jun_20_1058,59.6401472308,verb_norming,001,912,
SNEAK,smyga,hasa,glida,3,hasa,glida,smyga,Leg,leg,0,11,11,78,0,1,1,1,,,,,,,,,,,,,7,1.538,,,,2018_Jun_20_1058,59.6401472308,verb_norming,001,912,
SNEAK,smyga,hasa,glida,3,hasa,glida,smyga,,,0,11,11,78,,,,,,,,,,,,,,,,,,,3,1,3.63961765939,2018_Jun_20_1058,59.6401472308,verb_norming,001,912,
CLEAN,rengöra,rensa,plocka,3,plocka,rensa,rengöra,Arm,arm,0,12,12,10,0,0,0,0,,,,,,,,,,,,,5,5.443,,,,2018_Jun_20_1058,59.6401472308,verb_norming,001,912,
CLEAN,rengöra,rensa,plocka,3,plocka,rensa,rengöra,Leg,leg,0,12,12,10,0,1,1,1,,,,,,,,,,,,,1,1.974,,,,2018_Jun_20_1058,59.6401472308,verb_norming,001,912,
CLEAN,rengöra,rensa,plocka,3,plocka,rensa,rengöra,,,0,12,12,10,,,,,,,,,,,,,,,,,,,3,1,8.45283308119,2018_Jun_20_1058,59.6401472308,verb_norming,001,912,
FILE,fila,putsa,riva,3,riva,putsa,fila,Arm,arm,0,13,13,21,0,0,0,0,,,,,,,,,,,,,5,7.305,,,,2018_Jun_20_1058,59.6401472308,verb_norming,001,912,
FILE,fila,putsa,riva,3,riva,putsa,fila,Leg,leg,0,13,13,21,0,1,1,1,,,,,,,,,,,,,1,1.153,,,,2018_Jun_20_1058,59.6401472308,verb_norming,001,912,
FILE,fila,putsa,riva,3,riva,putsa,fila,,,0,13,13,21,,,,,,,,,,,,,,,,,,,3,1,12.2263086754,2018_Jun_20_1058,59.6401472308,verb_norming,001,912,
STIR,röra,sleva,vispa,3,vispa,sleva,röra,Arm,arm,0,14,14,85,0,0,0,0,,,,,,,,,,,,,6,4.001,,,,2018_Jun_20_1058,59.6401472308,verb_norming,001,912,
STIR,röra,sleva,vispa,3,vispa,sleva,röra,Leg,leg,0,14,14,85,0,1,1,1,,,,,,,,,,,,,1,1.287,,,,2018_Jun_20_1058,59.6401472308,verb_norming,001,912,
STIR,röra,sleva,vispa,3,vispa,sleva,röra,,,0,14,14,85,,,,,,,,,,,,,,,,,,,3,1,2.58313462563,2018_Jun_20_1058,59.6401472308,verb_norming,001,912,
SKIM,skumma,vispa,sleva,1,skumma,vispa,sleva,Arm,arm,0,15,15,71,0,0,0,0,,,,,,,,,,,,,6,4.319,,,,2018_Jun_20_1058,59.6401472308,verb_norming,001,912,
SKIM,skumma,vispa,sleva,1,skumma,vispa,sleva,Leg,leg,0,15,15,71,0,1,1,1,,,,,,,,,,,,,3,5.295,,,,2018_Jun_20_1058,59.6401472308,verb_norming,001,912,
SKIM,skumma,vispa,sleva,1,skumma,vispa,sleva,,,0,15,15,71,,,,,,,,,,,,,,,,,,,1,1,19.3542431123,2018_Jun_20_1058,59.6401472308,verb_norming,001,912,
GRIP,gripa om,hålla om,kasta om,3,kasta om,hålla om,gripa om,Arm,arm,0,16,16,29,0,0,0,0,,,,,,,,,,,,,7,5.208,,,,2018_Jun_20_1058,59.6401472308,verb_norming,001,912,
GRIP,gripa om,hålla om,kasta om,3,kasta om,hålla om,gripa om,Leg,leg,0,16,16,29,0,1,1,1,,,,,,,,,,,,,1,1.89,,,,2018_Jun_20_1058,59.6401472308,verb_norming,001,912,
GRIP,gripa om,hålla om,kasta om,3,kasta om,hålla om,gripa om,,,0,16,16,29,,,,,,,,,,,,,,,,,,,3,1,8.08402382201,2018_Jun_20_1058,59.6401472308,verb_norming,001,912,
CARVE,tälja,hacka,riva,1,tälja,riva,hacka,Arm,arm,0,17,17,5,0,0,0,0,,,,,,,,,,,,,7,3.78,,,,2018_Jun_20_1058,59.6401472308,verb_norming,001,912,
CARVE,tälja,hacka,riva,1,tälja,riva,hacka,Leg,leg,0,17,17,5,0,1,1,1,,,,,,,,,,,,,1,1.302,,,,2018_Jun_20_1058,59.6401472308,verb_norming,001,912,
CARVE,tälja,hacka,riva,1,tälja,riva,hacka,,,0,17,17,5,,,,,,,,,,,,,,,,,,,1,1,7.5474051705,2018_Jun_20_1058,59.6401472308,verb_norming,001,912,
STRUT,svassa,lunka,strosa,1,svassa,strosa,lunka,Arm,arm,0,18,18,90,0,0,0,0,,,,,,,,,,,,,1,3.179,,,,2018_Jun_20_1058,59.6401472308,verb_norming,001,912,
STRUT,svassa,lunka,strosa,1,svassa,strosa,lunka,Leg,leg,0,18,18,90,0,1,1,1,,,,,,,,,,,,,7,1.388,,,,2018_Jun_20_1058,59.6401472308,verb_norming,001,912,
STRUT,svassa,lunka,strosa,1,svassa,strosa,lunka,,,0,18,18,90,,,,,,,,,,,,,,,,,,,1,1,9.71074744255,2018_Jun_20_1058,59.6401472308,verb_norming,001,912,
FOLD,vika ihop,knyta ihop,bunta ihop,2,bunta ihop,vika ihop,knyta ihop,Arm,arm,0,19,19,24,0,0,0,0,,,,,,,,,,,,,6,3.662,,,,2018_Jun_20_1058,59.6401472308,verb_norming,001,912,
FOLD,vika ihop,knyta ihop,bunta ihop,2,bunta ihop,vika ihop,knyta ihop,Leg,leg,0,19,19,24,0,1,1,1,,,,,,,,,,,,,1,1.218,,,,2018_Jun_20_1058,59.6401472308,verb_norming,001,912,
FOLD,vika ihop,knyta ihop,bunta ihop,2,bunta ihop,vika ihop,knyta ihop,,,0,19,19,24,,,,,,,,,,,,,,,,,,,2,1,5.81985248941,2018_Jun_20_1058,59.6401472308,verb_norming,001,912,
SLITHER,hasa,glida,trilla,1,hasa,trilla,glida,Arm,arm,0,20,20,76,0,0,0,0,,,,,,,,,,,,,5,5.895,,,,2018_Jun_20_1058,59.6401472308,verb_norming,001,912,
SLITHER,hasa,glida,trilla,1,hasa,trilla,glida,Leg,leg,0,20,20,76,0,1,1,1,,,,,,,,,,,,,5,1.152,,,,2018_Jun_20_1058,59.6401472308,verb_norming,001,912,
SLITHER,hasa,glida,trilla,1,hasa,trilla,glida,,,0,20,20,76,,,,,,,,,,,,,,,,,,,3,0,19.1695636833,2018_Jun_20_1058,59.6401472308,verb_norming,001,912,
KNEEL,knäböja,krypa,kräla,1,knäböja,kräla,krypa,Arm,arm,0,21,21,37,0,0,0,0,,,,,,,,,,,,,1,3.061,,,,2018_Jun_20_1058,59.6401472308,verb_norming,001,912,
KNEEL,knäböja,krypa,kräla,1,knäböja,kräla,krypa,Leg,leg,0,21,21,37,0,1,1,1,,,,,,,,,,,,,7,1.371,,,,2018_Jun_20_1058,59.6401472308,verb_norming,001,912,
KNEEL,knäböja,krypa,kräla,1,knäböja,kräla,krypa,,,0,21,21,37,,,,,,,,,,,,,,,,,,,1,1,4.14284788598,2018_Jun_20_1058,59.6401472308,verb_norming,001,912,
TREAD,trampa,stampa,klampa,3,stampa,klampa,trampa,Arm,arm,0,22,22,98,0,0,0,0,,,,,,,,,,,,,2,7.773,,,,2018_Jun_20_1058,59.6401472308,verb_norming,001,912,
TREAD,trampa,stampa,klampa,3,stampa,klampa,trampa,Leg,leg,0,22,22,98,0,1,1,1,,,,,,,,,,,,,6,1.419,,,,2018_Jun_20_1058,59.6401472308,verb_norming,001,912,
TREAD,trampa,stampa,klampa,3,stampa,klampa,trampa,,,0,22,22,98,,,,,,,,,,,,,,,,,,,3,1,6.57467609822,2018_Jun_20_1058,59.6401472308,verb_norming,001,912,
DUNK,dunka,dumpa,dunsa,1,dunka,dumpa,dunsa,Arm,arm,0,23,23,20,0,0,0,0,,,,,,,,,,,,,6,12.352,,,,2018_Jun_20_1058,59.6401472308,verb_norming,001,912,
DUNK,dunka,dumpa,dunsa,1,dunka,dumpa,dunsa,Leg,leg,0,23,23,20,0,1,1,1,,,,,,,,,,,,,2,1.202,,,,2018_Jun_20_1058,59.6401472308,verb_norming,001,912,
DUNK,dunka,dumpa,dunsa,1,dunka,dumpa,dunsa,,,0,23,23,20,,,,,,,,,,,,,,,,,,,1,1,14.373138881,2018_Jun_20_1058,59.6401472308,verb_norming,001,912,
WALK,gå,promenera,marschera,1,gå,marschera,promenera,Arm,arm,0,24,24,105,0,0,0,0,,,,,,,,,,,,,1,2.676,,,,2018_Jun_20_1058,59.6401472308,verb_norming,001,912,
WALK,gå,promenera,marschera,1,gå,marschera,promenera,Leg,leg,0,24,24,105,0,1,1,1,,,,,,,,,,,,,7,1.136,,,,2018_Jun_20_1058,59.6401472308,verb_norming,001,912,
WALK,gå,promenera,marschera,1,gå,marschera,promenera,,,0,24,24,105,,,,,,,,,,,,,,,,,,,1,1,3.92480215825,2018_Jun_20_1058,59.6401472308,verb_norming,001,912,
CLAP,klappa,knäppa,klämma,2,klämma,klappa,knäppa,Arm,arm,0,25,25,8,0,0,0,0,,,,,,,,,,,,,7,2.894,,,,2018_Jun_20_1058,59.6401472308,verb_norming,001,912,
CLAP,klappa,knäppa,klämma,2,klämma,klappa,knäppa,Leg,leg,0,25,25,8,0,1,1,1,,,,,,,,,,,,,1,0.818,,,,2018_Jun_20_1058,59.6401472308,verb_norming,001,912,
CLAP,klappa,knäppa,klämma,2,klämma,klappa,knäppa,,,0,25,25,8,,,,,,,,,,,,,,,,,,,2,1,2.93533936246,2018_Jun_20_1058,59.6401472308,verb_norming,001,912,
GRAB,gripa tag i,fästa ihop,smälla till,3,smälla till,fästa ihop,gripa tag i,Arm,arm,0,26,26,26,0,0,0,0,,,,,,,,,,,,,7,3.163,,,,2018_Jun_20_1058,59.6401472308,verb_norming,001,912,
GRAB,gripa tag i,fästa ihop,smälla till,3,smälla till,fästa ihop,gripa tag i,Leg,leg,0,26,26,26,0,1,1,1,,,,,,,,,,,,,1,1.287,,,,2018_Jun_20_1058,59.6401472308,verb_norming,001,912,
GRAB,gripa tag i,fästa ihop,smälla till,3,smälla till,fästa ihop,gripa tag i,,,0,26,26,26,,,,,,,,,,,,,,,,,,,3,1,3.94157618305,2018_Jun_20_1058,59.6401472308,verb_norming,001,912,
SPRINT,spurta,springa,löpa,2,löpa,spurta,springa,Arm,arm,0,27,27,79,0,0,0,0,,,,,,,,,,,,,1,2.155,,,,2018_Jun_20_1058,59.6401472308,verb_norming,001,912,
SPRINT,spurta,springa,löpa,2,löpa,spurta,springa,Leg,leg,0,27,27,79,0,1,1,1,,,,,,,,,,,,,7,1.152,,,,2018_Jun_20_1058,59.6401472308,verb_norming,001,912,
SPRINT,spurta,springa,löpa,2,löpa,spurta,springa,,,0,27,27,79,,,,,,,,,,,,,,,,,,,2,1,7.94986876402,2018_Jun_20_1058,59.6401472308,verb_norming,001,912,
RAMBLE,ströva,strutta,spurta,1,ströva,spurta,strutta,Arm,arm,0,28,28,57,0,0,0,0,,,,,,,,,,,,,6,6.248,,,,2018_Jun_20_1058,59.6401472308,verb_norming,001,912,
RAMBLE,ströva,strutta,spurta,1,ströva,spurta,strutta,Leg,leg,0,28,28,57,0,1,1,1,,,,,,,,,,,,,2,1.284,,,,2018_Jun_20_1058,59.6401472308,verb_norming,001,912,
RAMBLE,ströva,strutta,spurta,1,ströva,spurta,strutta,,,0,28,28,57,,,,,,,,,,,,,,,,,,,1,1,8.90570211744,2018_Jun_20_1058,59.6401472308,verb_norming,001,912,
PLUCK,plocka,rensa,picka,1,plocka,rensa,picka,Arm,arm,0,29,29,50,0,0,0,0,,,,,,,,,,,,,7,6.298,,,,2018_Jun_20_1058,59.6401472308,verb_norming,001,912,
PLUCK,plocka,rensa,picka,1,plocka,rensa,picka,Leg,leg,0,29,29,50,0,1,1,1,,,,,,,,,,,,,1,1.421,,,,2018_Jun_20_1058,59.6401472308,verb_norming,001,912,
PLUCK,plocka,rensa,picka,1,plocka,rensa,picka,,,0,29,29,50,,,,,,,,,,,,,,,,,,,1,1,3.58934932003,2018_Jun_20_1058,59.6401472308,verb_norming,001,912,
KNOCK,knacka,krocka,klicka,2,klicka,knacka,krocka,Arm,arm,0,30,30,38,0,0,0,0,,,,,,,,,,,,,7,2.389,,,,2018_Jun_20_1058,59.6401472308,verb_norming,001,912,
KNOCK,knacka,krocka,klicka,2,klicka,knacka,krocka,Leg,leg,0,30,30,38,0,1,1,1,,,,,,,,,,,,,1,1.0,,,,2018_Jun_20_1058,59.6401472308,verb_norming,001,912,
KNOCK,knacka,krocka,klicka,2,klicka,knacka,krocka,,,0,30,30,38,,,,,,,,,,,,,,,,,,,2,1,2.26437599988,2018_Jun_20_1058,59.6401472308,verb_norming,001,912,
STOMP,stampa,stiga,kliva,2,stiga,stampa,kliva,Arm,arm,0,31,31,86,0,0,0,0,,,,,,,,,,,,,1,2.423,,,,2018_Jun_20_1058,59.6401472308,verb_norming,001,912,
STOMP,stampa,stiga,kliva,2,stiga,stampa,kliva,Leg,leg,0,31,31,86,0,1,1,1,,,,,,,,,,,,,7,0.983,,,,2018_Jun_20_1058,59.6401472308,verb_norming,001,912,
STOMP,stampa,stiga,kliva,2,stiga,stampa,kliva,,,0,31,31,86,,,,,,,,,,,,,,,,,,,2,1,2.14691554946,2018_Jun_20_1058,59.6401472308,verb_norming,001,912,
WOBBLE,vingla,ramla,glida,3,ramla,glida,vingla,Arm,arm,0,32,32,110,0,0,0,0,,,,,,,,,,,,,1,3.679,,,,2018_Jun_20_1058,59.6401472308,verb_norming,001,912,
WOBBLE,vingla,ramla,glida,3,ramla,glida,vingla,Leg,leg,0,32,32,110,0,1,1,1,,,,,,,,,,,,,7,0.894,,,,2018_Jun_20_1058,59.6401472308,verb_norming,001,912,
WOBBLE,vingla,ramla,glida,3,ramla,glida,vingla,,,0,32,32,110,,,,,,,,,,,,,,,,,,,3,1,5.04844608933,2018_Jun_20_1058,59.6401472308,verb_norming,001,912,
CLAW,klösa,nypa,rispa,3,rispa,nypa,klösa,Arm,arm,0,33,33,9,0,0,0,0,,,,,,,,,,,,,6,6.752,,,,2018_Jun_20_1058,59.6401472308,verb_norming,001,912,
CLAW,klösa,nypa,rispa,3,rispa,nypa,klösa,Leg,leg,0,33,33,9,0,1,1,1,,,,,,,,,,,,,1,0.851,,,,2018_Jun_20_1058,59.6401472308,verb_norming,001,912,
CLAW,klösa,nypa,rispa,3,rispa,nypa,klösa,,,0,33,33,9,,,,,,,,,,,,,,,,,,,3,1,6.27260496804,2018_Jun_20_1058,59.6401472308,verb_norming,001,912,
SCRAPE,skrapa,rispa,klösa,3,rispa,klösa,skrapa,Arm,arm,0,34,34,64,0,0,0,0,,,,,,,,,,,,,7,3.262,,,,2018_Jun_20_1058,59.6401472308,verb_norming,001,912,
SCRAPE,skrapa,rispa,klösa,3,rispa,klösa,skrapa,Leg,leg,0,34,34,64,0,1,1,1,,,,,,,,,,,,,1,0.649,,,,2018_Jun_20_1058,59.6401472308,verb_norming,001,912,
SCRAPE,skrapa,rispa,klösa,3,rispa,klösa,skrapa,,,0,34,34,64,,,,,,,,,,,,,,,,,,,3,1,2.93516156269,2018_Jun_20_1058,59.6401472308,verb_norming,001,912,
STRAY,ströva,vandra,promenera,3,promenera,vandra,ströva,Arm,arm,0,35,35,87,0,0,0,0,,,,,,,,,,,,,1,4.787,,,,2018_Jun_20_1058,59.6401472308,verb_norming,001,912,
STRAY,ströva,vandra,promenera,3,promenera,vandra,ströva,Leg,leg,0,35,35,87,0,1,1,1,,,,,,,,,,,,,7,0.784,,,,2018_Jun_20_1058,59.6401472308,verb_norming,001,912,
STRAY,ströva,vandra,promenera,3,promenera,vandra,ströva,,,0,35,35,87,,,,,,,,,,,,,,,,,,,3,1,6.92665483179,2018_Jun_20_1058,59.6401472308,verb_norming,001,912,
SCRATCH,repa,riva,klösa,3,klösa,riva,repa,Arm,arm,0,36,36,65,0,0,0,0,,,,,,,,,,,,,7,5.039,,,,2018_Jun_20_1058,59.6401472308,verb_norming,001,912,
SCRATCH,repa,riva,klösa,3,klösa,riva,repa,Leg,leg,0,36,36,65,0,1,1,1,,,,,,,,,,,,,1,1.235,,,,2018_Jun_20_1058,59.6401472308,verb_norming,001,912,
SCRATCH,repa,riva,klösa,3,klösa,riva,repa,,,0,36,36,65,,,,,,,,,,,,,,,,,,,2,0,24.4358117172,2018_Jun_20_1058,59.6401472308,verb_norming,001,912,
TROT,trava,promenera,flanera,3,promenera,flanera,trava,Arm,arm,0,37,37,100,0,0,0,0,,,,,,,,,,,,,1,3.228,,,,2018_Jun_20_1058,59.6401472308,verb_norming,001,912,
TROT,trava,promenera,flanera,3,promenera,flanera,trava,Leg,leg,0,37,37,100,0,1,1,1,,,,,,,,,,,,,7,1.486,,,,2018_Jun_20_1058,59.6401472308,verb_norming,001,912,
TROT,trava,promenera,flanera,3,promenera,flanera,trava,,,0,37,37,100,,,,,,,,,,,,,,,,,,,3,1,4.14279099006,2018_Jun_20_1058,59.6401472308,verb_norming,001,912,
SLIDE,glida,ramla,hasa,2,hasa,glida,ramla,Arm,arm,0,38,38,74,0,0,0,0,,,,,,,,,,,,,1,4.837,,,,2018_Jun_20_1058,59.6401472308,verb_norming,001,912,
SLIDE,glida,ramla,hasa,2,hasa,glida,ramla,Leg,leg,0,38,38,74,0,1,1,1,,,,,,,,,,,,,7,0.614,,,,2018_Jun_20_1058,59.6401472308,verb_norming,001,912,
SLIDE,glida,ramla,hasa,2,hasa,glida,ramla,,,0,38,38,74,,,,,,,,,,,,,,,,,,,2,1,7.39649623835,2018_Jun_20_1058,59.6401472308,verb_norming,001,912,
RUSH,rusa,springa,löpa,1,rusa,springa,löpa,Arm,arm,0,39,39,62,0,0,0,0,,,,,,,,,,,,,1,4.068,,,,2018_Jun_20_1058,59.6401472308,verb_norming,001,912,
RUSH,rusa,springa,löpa,1,rusa,springa,löpa,Leg,leg,0,39,39,62,0,1,1,1,,,,,,,,,,,,,7,0.683,,,,2018_Jun_20_1058,59.6401472308,verb_norming,001,912,
RUSH,rusa,springa,löpa,1,rusa,springa,löpa,,,0,39,39,62,,,,,,,,,,,,,,,,,,,1,1,3.82417578944,2018_Jun_20_1058,59.6401472308,verb_norming,001,912,
CREEP,krypa,knäböja,klättra,3,klättra,knäböja,krypa,Arm,arm,0,40,40,15,0,0,0,0,,,,,,,,,,,,,3,4.755,,,,2018_Jun_20_1058,59.6401472308,verb_norming,001,912,
CREEP,krypa,knäböja,klättra,3,klättra,knäböja,krypa,Leg,leg,0,40,40,15,0,1,1,1,,,,,,,,,,,,,6,2.008,,,,2018_Jun_20_1058,59.6401472308,verb_norming,001,912,
CREEP,krypa,knäböja,klättra,3,klättra,knäböja,krypa,,,0,40,40,15,,,,,,,,,,,,,,,,,,,3,1,5.09857851065,2018_Jun_20_1058,59.6401472308,verb_norming,001,912,
SKIP,hoppa,kliva,strutta,2,kliva,hoppa,strutta,Arm,arm,0,41,41,72,0,0,0,0,,,,,,,,,,,,,2,4.857,,,,2018_Jun_20_1058,59.6401472308,verb_norming,001,912,
SKIP,hoppa,kliva,strutta,2,kliva,hoppa,strutta,Leg,leg,0,41,41,72,0,1,1,1,,,,,,,,,,,,,6,1.421,,,,2018_Jun_20_1058,59.6401472308,verb_norming,001,912,
SKIP,hoppa,kliva,strutta,2,kliva,hoppa,strutta,,,0,41,41,72,,,,,,,,,,,,,,,,,,,2,1,6.96035381363,2018_Jun_20_1058,59.6401472308,verb_norming,001,912,
TOSS,slänga,fånga,gripa,2,gripa,slänga,fånga,Arm,arm,0,42,42,96,0,0,0,0,,,,,,,,,,,,,7,3.211,,,,2018_Jun_20_1058,59.6401472308,verb_norming,001,912,
TOSS,slänga,fånga,gripa,2,gripa,slänga,fånga,Leg,leg,0,42,42,96,0,1,1,1,,,,,,,,,,,,,1,0.866,,,,2018_Jun_20_1058,59.6401472308,verb_norming,001,912,
TOSS,slänga,fånga,gripa,2,gripa,slänga,fånga,,,0,42,42,96,,,,,,,,,,,,,,,,,,,2,1,2.98553302591,2018_Jun_20_1058,59.6401472308,verb_norming,001,912,
STROLL,strosa,trava,marschera,2,marschera,strosa,trava,Arm,arm,0,43,43,89,0,0,0,0,,,,,,,,,,,,,1,3.143,,,,2018_Jun_20_1058,59.6401472308,verb_norming,001,912,
STROLL,strosa,trava,marschera,2,marschera,strosa,trava,Leg,leg,0,43,43,89,0,1,1,1,,,,,,,,,,,,,7,1.569,,,,2018_Jun_20_1058,59.6401472308,verb_norming,001,912,
STROLL,strosa,trava,marschera,2,marschera,strosa,trava,,,0,43,43,89,,,,,,,,,,,,,,,,,,,2,1,2.58297302541,2018_Jun_20_1058,59.6401472308,verb_norming,001,912,
POLISH,polera,sopa,tvätta,1,polera,tvätta,sopa,Arm,arm,0,44,44,52,0,0,0,0,,,,,,,,,,,,,7,3.21,,,,2018_Jun_20_1058,59.6401472308,verb_norming,001,912,
POLISH,polera,sopa,tvätta,1,polera,tvätta,sopa,Leg,leg,0,44,44,52,0,1,1,1,,,,,,,,,,,,,1,0.966,,,,2018_Jun_20_1058,59.6401472308,verb_norming,001,912,
POLISH,polera,sopa,tvätta,1,polera,tvätta,sopa,,,0,44,44,52,,,,,,,,,,,,,,,,,,,1,1,3.28739514259,2018_Jun_20_1058,59.6401472308,verb_norming,001,912,
TRAIPSE,traska,stappla,vandra,1,traska,stappla,vandra,Arm,arm,0,45,45,97,0,0,0,0,,,,,,,,,,,,,1,3.546,,,,2018_Jun_20_1058,59.6401472308,verb_norming,001,912,
TRAIPSE,traska,stappla,vandra,1,traska,stappla,vandra,Leg,leg,0,45,45,97,0,1,1,1,,,,,,,,,,,,,7,1.57,,,,2018_Jun_20_1058,59.6401472308,verb_norming,001,912,
TRAIPSE,traska,stappla,vandra,1,traska,stappla,vandra,,,0,45,45,97,,,,,,,,,,,,,,,,,,,1,1,12.3104016418,2018_Jun_20_1058,59.6401472308,verb_norming,001,912,
DANCE,dansa,snurra,svänga,2,snurra,dansa,svänga,Arm,arm,0,46,46,17,0,0,0,0,,,,,,,,,,,,,3,3.999,,,,2018_Jun_20_1058,59.6401472308,verb_norming,001,912,
DANCE,dansa,snurra,svänga,2,snurra,dansa,svänga,Leg,leg,0,46,46,17,0,1,1,1,,,,,,,,,,,,,7,1.303,,,,2018_Jun_20_1058,59.6401472308,verb_norming,001,912,
DANCE,dansa,snurra,svänga,2,snurra,dansa,svänga,,,0,46,46,17,,,,,,,,,,,,,,,,,,,2,1,2.46564928325,2018_Jun_20_1058,59.6401472308,verb_norming,001,912,
STEP,gå,klampa,traska,3,traska,klampa,gå,Arm,arm,0,47,47,84,0,0,0,0,,,,,,,,,,,,,1,2.894,,,,2018_Jun_20_1058,59.6401472308,verb_norming,001,912,
STEP,gå,klampa,traska,3,traska,klampa,gå,Leg,leg,0,47,47,84,0,1,1,1,,,,,,,,,,,,,7,0.516,,,,2018_Jun_20_1058,59.6401472308,verb_norming,001,912,
STEP,gå,klampa,traska,3,traska,klampa,gå,,,0,47,47,84,,,,,,,,,,,,,,,,,,,2,0,31.8151202499,2018_Jun_20_1058,59.6401472308,verb_norming,001,912,
LIFT,lyfta,pressa,öka,2,öka,lyfta,pressa,Arm,arm,0,48,48,40,0,0,0,0,,,,,,,,,,,,,7,2.726,,,,2018_Jun_20_1058,59.6401472308,verb_norming,001,912,
LIFT,lyfta,pressa,öka,2,öka,lyfta,pressa,Leg,leg,0,48,48,40,0,1,1,1,,,,,,,,,,,,,1,0.885,,,,2018_Jun_20_1058,59.6401472308,verb_norming,001,912,
LIFT,lyfta,pressa,öka,2,öka,lyfta,pressa,,,0,48,48,40,,,,,,,,,,,,,,,,,,,2,1,7.02735390095,2018_Jun_20_1058,59.6401472308,verb_norming,001,912,
CHOP,hacka,tälja,riva,3,tälja,riva,hacka,Arm,arm,0,49,49,7,0,0,0,0,,,,,,,,,,,,,7,3.027,,,,2018_Jun_20_1058,59.6401472308,verb_norming,001,912,
CHOP,hacka,tälja,riva,3,tälja,riva,hacka,Leg,leg,0,49,49,7,0,1,1,1,,,,,,,,,,,,,1,0.932,,,,2018_Jun_20_1058,59.6401472308,verb_norming,001,912,
CHOP,hacka,tälja,riva,3,tälja,riva,hacka,,,0,49,49,7,,,,,,,,,,,,,,,,,,,3,1,2.96880878505,2018_Jun_20_1058,59.6401472308,verb_norming,001,912,
TRUDGE,släpa sig fram,kasta sig fram,ta sig fram,1,släpa sig fram,kasta sig fram,ta sig fram,Arm,arm,0,50,50,101,0,0,0,0,,,,,,,,,,,,,1,3.126,,,,2018_Jun_20_1058,59.6401472308,verb_norming,001,912,
TRUDGE,släpa sig fram,kasta sig fram,ta sig fram,1,släpa sig fram,kasta sig fram,ta sig fram,Leg,leg,0,50,50,101,0,1,1,1,,,,,,,,,,,,,7,0.798,,,,2018_Jun_20_1058,59.6401472308,verb_norming,001,912,
TRUDGE,släpa sig fram,kasta sig fram,ta sig fram,1,släpa sig fram,kasta sig fram,ta sig fram,,,0,50,50,101,,,,,,,,,,,,,,,,,,,1,1,3.99184926373,2018_Jun_20_1058,59.6401472308,verb_norming,001,912,
PULL,dra,slänga,släpa,3,slänga,släpa,dra,Arm,arm,0,51,51,54,0,0,0,0,,,,,,,,,,,,,7,2.827,,,,2018_Jun_20_1058,59.6401472308,verb_norming,001,912,
PULL,dra,slänga,släpa,3,slänga,släpa,dra,Leg,leg,0,51,51,54,0,1,1,1,,,,,,,,,,,,,1,1.052,,,,2018_Jun_20_1058,59.6401472308,verb_norming,001,912,
PULL,dra,slänga,släpa,3,slänga,släpa,dra,,,0,51,51,54,,,,,,,,,,,,,,,,,,,3,1,8.33557334695,2018_Jun_20_1058,59.6401472308,verb_norming,001,912,
MARCH,marschera,trava,traska,3,traska,trava,marschera,Arm,arm,0,52,52,42,0,0,0,0,,,,,,,,,,,,,1,2.39,,,,2018_Jun_20_1058,59.6401472308,verb_norming,001,912,
MARCH,marschera,trava,traska,3,traska,trava,marschera,Leg,leg,0,52,52,42,0,1,1,1,,,,,,,,,,,,,7,0.884,,,,2018_Jun_20_1058,59.6401472308,verb_norming,001,912,
MARCH,marschera,trava,traska,3,traska,trava,marschera,,,0,52,52,42,,,,,,,,,,,,,,,,,,,3,1,1.8451063776,2018_Jun_20_1058,59.6401472308,verb_norming,001,912,
SWAY,vingla,tassa,ramla,2,ramla,vingla,tassa,Arm,arm,0,53,53,92,0,0,0,0,,,,,,,,,,,,,2,4.437,,,,2018_Jun_20_1058,59.6401472308,verb_norming,001,912,
SWAY,vingla,tassa,ramla,2,ramla,vingla,tassa,Leg,leg,0,53,53,92,0,1,1,1,,,,,,,,,,,,,7,0.533,,,,2018_Jun_20_1058,59.6401472308,verb_norming,001,912,
SWAY,vingla,tassa,ramla,2,ramla,vingla,tassa,,,0,53,53,92,,,,,,,,,,,,,,,,,,,2,1,9.77784986351,2018_Jun_20_1058,59.6401472308,verb_norming,001,912,
HACK,hacka,skära,kåpa,2,kåpa,hacka,skära,Arm,arm,0,54,54,30,0,0,0,0,,,,,,,,,,,,,6,4.538,,,,2018_Jun_20_1058,59.6401472308,verb_norming,001,912,
HACK,hacka,skära,kåpa,2,kåpa,hacka,skära,Leg,leg,0,54,54,30,0,1,1,1,,,,,,,,,,,,,2,1.74,,,,2018_Jun_20_1058,59.6401472308,verb_norming,001,912,
HACK,hacka,skära,kåpa,2,kåpa,hacka,skära,,,0,54,54,30,,,,,,,,,,,,,,,,,,,2,1,15.865862722,2018_Jun_20_1058,59.6401472308,verb_norming,001,912,
DIG,gräva,dränera,dika,3,dika,dränera,gräva,Arm,arm,0,55,55,19,0,0,0,0,,,,,,,,,,,,,7,2.575,,,,2018_Jun_20_1058,59.6401472308,verb_norming,001,912,
DIG,gräva,dränera,dika,3,dika,dränera,gräva,Leg,leg,0,55,55,19,0,1,1,1,,,,,,,,,,,,,2,1.051,,,,2018_Jun_20_1058,59.6401472308,verb_norming,001,912,
DIG,gräva,dränera,dika,3,dika,dränera,gräva,,,0,55,55,19,,,,,,,,,,,,,,,,,,,3,1,4.12600945816,2018_Jun_20_1058,59.6401472308,verb_norming,001,912,
SLAP,smälla till,knäppa fast,klämma åt,2,knäppa fast,smälla till,klämma åt,Arm,arm,0,56,56,73,0,0,0,0,,,,,,,,,,,,,7,2.408,,,,2018_Jun_20_1058,59.6401472308,verb_norming,001,912,
SLAP,smälla till,knäppa fast,klämma åt,2,knäppa fast,smälla till,klämma åt,Leg,leg,0,56,56,73,0,1,1,1,,,,,,,,,,,,,1,0.767,,,,2018_Jun_20_1058,59.6401472308,verb_norming,001,912,
SLAP,smälla till,knäppa fast,klämma åt,2,knäppa fast,smälla till,klämma åt,,,0,56,56,73,,,,,,,,,,,,,,,,,,,2,1,3.00238962882,2018_Jun_20_1058,59.6401472308,verb_norming,001,912,
SKATE,åka skridskor,åka skidor,åka kälke,3,åka kälke,åka skidor,åka skridskor,Arm,arm,0,57,57,70,0,0,0,0,,,,,,,,,,,,,1,3.53,,,,2018_Jun_20_1058,59.6401472308,verb_norming,001,912,
SKATE,åka skridskor,åka skidor,åka kälke,3,åka kälke,åka skidor,åka skridskor,Leg,leg,0,57,57,70,0,1,1,1,,,,,,,,,,,,,7,0.951,,,,2018_Jun_20_1058,59.6401472308,verb_norming,001,912,
SKATE,åka skridskor,åka skidor,åka kälke,3,åka kälke,åka skidor,åka skridskor,,,0,57,57,70,,,,,,,,,,,,,,,,,,,3,1,11.7903732886,2018_Jun_20_1058,59.6401472308,verb_norming,001,912,
HIKE,vandra,flanera,lunka,2,lunka,vandra,flanera,Arm,arm,0,58,58,31,0,0,0,0,,,,,,,,,,,,,2,4.151,,,,2018_Jun_20_1058,59.6401472308,verb_norming,001,912,
HIKE,vandra,flanera,lunka,2,lunka,vandra,flanera,Leg,leg,0,58,58,31,0,1,1,1,,,,,,,,,,,,,7,0.952,,,,2018_Jun_20_1058,59.6401472308,verb_norming,001,912,
HIKE,vandra,flanera,lunka,2,lunka,vandra,flanera,,,0,58,58,31,,,,,,,,,,,,,,,,,,,2,1,3.48879644179,2018_Jun_20_1058,59.6401472308,verb_norming,001,912,
PACE,gå fram och tillbaka,luffa runt,rusa fram,2,luffa runt,gå fram och tillbaka,rusa fram,Arm,arm,0,59,59,45,0,0,0,0,,,,,,,,,,,,,1,4.939,,,,2018_Jun_20_1058,59.6401472308,verb_norming,001,912,
PACE,gå fram och tillbaka,luffa runt,rusa fram,2,luffa runt,gå fram och tillbaka,rusa fram,Leg,leg,0,59,59,45,0,1,1,1,,,,,,,,,,,,,7,0.482,,,,2018_Jun_20_1058,59.6401472308,verb_norming,001,912,
PACE,gå fram och tillbaka,luffa runt,rusa fram,2,luffa runt,gå fram och tillbaka,rusa fram,,,0,59,59,45,,,,,,,,,,,,,,,,,,,2,1,3.3712549937,2018_Jun_20_1058,59.6401472308,verb_norming,001,912,
DELVE,gräva,plöja,rensa,1,gräva,rensa,plöja,Arm,arm,0,60,60,18,0,0,0,0,,,,,,,,,,,,,7,4.032,,,,2018_Jun_20_1058,59.6401472308,verb_norming,001,912,
DELVE,gräva,plöja,rensa,1,gräva,rensa,plöja,Leg,leg,0,60,60,18,0,1,1,1,,,,,,,,,,,,,2,1.469,,,,2018_Jun_20_1058,59.6401472308,verb_norming,001,912,
DELVE,gräva,plöja,rensa,1,gräva,rensa,plöja,,,0,60,60,18,,,,,,,,,,,,,,,,,,,3,0,6.94330163098,2018_Jun_20_1058,59.6401472308,verb_norming,001,912,
BRAID,fläta,knyta,binda,2,binda,fläta,knyta,Arm,arm,0,61,61,3,0,0,0,0,,,,,,,,,,,,,6,6.613,,,,2018_Jun_20_1058,59.6401472308,verb_norming,001,912,
BRAID,fläta,knyta,binda,2,binda,fläta,knyta,Leg,leg,0,61,61,3,0,1,1,1,,,,,,,,,,,,,2,1.0,,,,2018_Jun_20_1058,59.6401472308,verb_norming,001,912,
BRAID,fläta,knyta,binda,2,binda,fläta,knyta,,,0,61,61,3,,,,,,,,,,,,,,,,,,,2,1,3.67342332109,2018_Jun_20_1058,59.6401472308,verb_norming,001,912,
MOUNT,gå uppför,ströva runt,kliva över,1,gå uppför,ströva runt,kliva över,Arm,arm,0,62,62,43,0,0,0,0,,,,,,,,,,,,,1,4.183,,,,2018_Jun_20_1058,59.6401472308,verb_norming,001,912,
MOUNT,gå uppför,ströva runt,kliva över,1,gå uppför,ströva runt,kliva över,Leg,leg,0,62,62,43,0,1,1,1,,,,,,,,,,,,,6,0.883,,,,2018_Jun_20_1058,59.6401472308,verb_norming,001,912,
MOUNT,gå uppför,ströva runt,kliva över,1,gå uppför,ströva runt,kliva över,,,0,62,62,43,,,,,,,,,,,,,,,,,,,3,0,5.92059818162,2018_Jun_20_1058,59.6401472308,verb_norming,001,912,
INCH,röra sig långsamt framåt,dra sig snabbt tillbaka,hasa sig bakåt,2,hasa sig bakåt,röra sig långsamt framåt,dra sig snabbt tillbaka,Arm,arm,0,63,63,33,0,0,0,0,,,,,,,,,,,,,1,7.087,,,,2018_Jun_20_1058,59.6401472308,verb_norming,001,912,
INCH,röra sig långsamt framåt,dra sig snabbt tillbaka,hasa sig bakåt,2,hasa sig bakåt,röra sig långsamt framåt,dra sig snabbt tillbaka,Leg,leg,0,63,63,33,0,1,1,1,,,,,,,,,,,,,7,0.549,,,,2018_Jun_20_1058,59.6401472308,verb_norming,001,912,
INCH,röra sig långsamt framåt,dra sig snabbt tillbaka,hasa sig bakåt,2,hasa sig bakåt,röra sig långsamt framåt,dra sig snabbt tillbaka,,,0,63,63,33,,,,,,,,,,,,,,,,,,,2,1,17.6434881627,2018_Jun_20_1058,59.6401472308,verb_norming,001,912,
GLIDE,glida,hasa,snava,2,hasa,glida,snava,Arm,arm,0,64,64,25,0,0,0,0,,,,,,,,,,,,,1,4.872,,,,2018_Jun_20_1058,59.6401472308,verb_norming,001,912,
GLIDE,glida,hasa,snava,2,hasa,glida,snava,Leg,leg,0,64,64,25,0,1,1,1,,,,,,,,,,,,,7,0.547,,,,2018_Jun_20_1058,59.6401472308,verb_norming,001,912,
GLIDE,glida,hasa,snava,2,hasa,glida,snava,,,0,64,64,25,,,,,,,,,,,,,,,,,,,2,1,5.90388263319,2018_Jun_20_1058,59.6401472308,verb_norming,001,912,
HOP,skutta,kliva,studsa,2,kliva,skutta,studsa,Arm,arm,0,65,65,32,0,0,0,0,,,,,,,,,,,,,1,2.742,,,,2018_Jun_20_1058,59.6401472308,verb_norming,001,912,
HOP,skutta,kliva,studsa,2,kliva,skutta,studsa,Leg,leg,0,65,65,32,0,1,1,1,,,,,,,,,,,,,7,0.547,,,,2018_Jun_20_1058,59.6401472308,verb_norming,001,912,
HOP,skutta,kliva,studsa,2,kliva,skutta,studsa,,,0,65,65,32,,,,,,,,,,,,,,,,,,,2,1,9.17416909232,2018_Jun_20_1058,59.6401472308,verb_norming,001,912,
SNATCH,rycka till sig,knuffa ifrån sig,plocka åt sig,2,knuffa ifrån sig,rycka till sig,plocka åt sig,Arm,arm,0,66,66,77,0,0,0,0,,,,,,,,,,,,,6,4.537,,,,2018_Jun_20_1058,59.6401472308,verb_norming,001,912,
SNATCH,rycka till sig,knuffa ifrån sig,plocka åt sig,2,knuffa ifrån sig,rycka till sig,plocka åt sig,Leg,leg,0,66,66,77,0,1,1,1,,,,,,,,,,,,,1,0.866,,,,2018_Jun_20_1058,59.6401472308,verb_norming,001,912,
SNATCH,rycka till sig,knuffa ifrån sig,plocka åt sig,2,knuffa ifrån sig,rycka till sig,plocka åt sig,,,0,66,66,77,,,,,,,,,,,,,,,,,,,2,1,5.18270071519,2018_Jun_20_1058,59.6401472308,verb_norming,001,912,
THROW,kasta,greppa,träffa,2,träffa,kasta,greppa,Arm,arm,0,67,67,94,0,0,0,0,,,,,,,,,,,,,7,2.121,,,,2018_Jun_20_1058,59.6401472308,verb_norming,001,912,
THROW,kasta,greppa,träffa,2,träffa,kasta,greppa,Leg,leg,0,67,67,94,0,1,1,1,,,,,,,,,,,,,1,0.864,,,,2018_Jun_20_1058,59.6401472308,verb_norming,001,912,
THROW,kasta,greppa,träffa,2,träffa,kasta,greppa,,,0,67,67,94,,,,,,,,,,,,,,,,,,,2,1,1.99604928926,2018_Jun_20_1058,59.6401472308,verb_norming,001,912,
BOUNCE,studsa,dunka,kasta,1,studsa,dunka,kasta,Arm,arm,0,68,68,2,0,0,0,0,,,,,,,,,,,,,6,3.177,,,,2018_Jun_20_1058,59.6401472308,verb_norming,001,912,
BOUNCE,studsa,dunka,kasta,1,studsa,dunka,kasta,Leg,leg,0,68,68,2,0,1,1,1,,,,,,,,,,,,,1,1.301,,,,2018_Jun_20_1058,59.6401472308,verb_norming,001,912,
BOUNCE,studsa,dunka,kasta,1,studsa,dunka,kasta,,,0,68,68,2,,,,,,,,,,,,,,,,,,,1,1,7.42993168143,2018_Jun_20_1058,59.6401472308,verb_norming,001,912,
SLIP,halka,snava,ramla,2,snava,halka,ramla,Arm,arm,0,69,69,75,0,0,0,0,,,,,,,,,,,,,6,5.611,,,,2018_Jun_20_1058,59.6401472308,verb_norming,001,912,
SLIP,halka,snava,ramla,2,snava,halka,ramla,Leg,leg,0,69,69,75,0,1,1,1,,,,,,,,,,,,,4,1.186,,,,2018_Jun_20_1058,59.6401472308,verb_norming,001,912,
SLIP,halka,snava,ramla,2,snava,halka,ramla,,,0,69,69,75,,,,,,,,,,,,,,,,,,,2,1,19.7566261033,2018_Jun_20_1058,59.6401472308,verb_norming,001,912,
JOG,jogga,spurta,rusa,2,spurta,jogga,rusa,Arm,arm,0,70,70,34,0,0,0,0,,,,,,,,,,,,,1,1.987,,,,2018_Jun_20_1058,59.6401472308,verb_norming,001,912,
JOG,jogga,spurta,rusa,2,spurta,jogga,rusa,Leg,leg,0,70,70,34,0,1,1,1,,,,,,,,,,,,,7,0.649,,,,2018_Jun_20_1058,59.6401472308,verb_norming,001,912,
JOG,jogga,spurta,rusa,2,spurta,jogga,rusa,,,0,70,70,34,,,,,,,,,,,,,,,,,,,2,1,2.38186173737,2018_Jun_20_1058,59.6401472308,verb_norming,001,912,
ROAM,ströva omkring,ta sig fram,luffa runt,3,luffa runt,ta sig fram,ströva omkring,Arm,arm,0,71,71,58,0,0,0,0,,,,,,,,,,,,,1,3.362,,,,2018_Jun_20_1058,59.6401472308,verb_norming,001,912,
ROAM,ströva omkring,ta sig fram,luffa runt,3,luffa runt,ta sig fram,ströva omkring,Leg,leg,0,71,71,58,0,1,1,1,,,,,,,,,,,,,7,0.514,,,,2018_Jun_20_1058,59.6401472308,verb_norming,001,912,
ROAM,ströva omkring,ta sig fram,luffa runt,3,luffa runt,ta sig fram,ströva omkring,,,0,71,71,58,,,,,,,,,,,,,,,,,,,3,1,7.39659541111,2018_Jun_20_1058,59.6401472308,verb_norming,001,912,
PAT,klappa,slå,borsta,1,klappa,slå,borsta,Arm,arm,0,72,72,46,0,0,0,0,,,,,,,,,,,,,6,3.062,,,,2018_Jun_20_1058,59.6401472308,verb_norming,001,912,
PAT,klappa,slå,borsta,1,klappa,slå,borsta,Leg,leg,0,72,72,46,0,1,1,1,,,,,,,,,,,,,1,0.75,,,,2018_Jun_20_1058,59.6401472308,verb_norming,001,912,
PAT,klappa,slå,borsta,1,klappa,slå,borsta,,,0,72,72,46,,,,,,,,,,,,,,,,,,,1,1,2.44892780816,2018_Jun_20_1058,59.6401472308,verb_norming,001,912,
WHIP,piska,klappa,slå,3,klappa,slå,piska,Arm,arm,0,73,73,108,0,0,0,0,,,,,,,,,,,,,6,4.991,,,,2018_Jun_20_1058,59.6401472308,verb_norming,001,912,
WHIP,piska,klappa,slå,3,klappa,slå,piska,Leg,leg,0,73,73,108,0,1,1,1,,,,,,,,,,,,,1,0.918,,,,2018_Jun_20_1058,59.6401472308,verb_norming,001,912,
WHIP,piska,klappa,slå,3,klappa,slå,piska,,,0,73,73,108,,,,,,,,,,,,,,,,,,,3,1,1.92876274676,2018_Jun_20_1058,59.6401472308,verb_norming,001,912,
SHAKE,skaka,röra,vispa,2,röra,skaka,vispa,Arm,arm,0,74,74,69,0,0,0,0,,,,,,,,,,,,,7,2.29,,,,2018_Jun_20_1058,59.6401472308,verb_norming,001,912,
SHAKE,skaka,röra,vispa,2,röra,skaka,vispa,Leg,leg,0,74,74,69,0,1,1,1,,,,,,,,,,,,,1,0.616,,,,2018_Jun_20_1058,59.6401472308,verb_norming,001,912,
SHAKE,skaka,röra,vispa,2,röra,skaka,vispa,,,0,74,74,69,,,,,,,,,,,,,,,,,,,2,1,1.62713493066,2018_Jun_20_1058,59.6401472308,verb_norming,001,912,
STRIDE,kliva,tassa,lunka,2,lunka,kliva,tassa,Arm,arm,0,75,75,88,0,0,0,0,,,,,,,,,,,,,1,2.137,,,,2018_Jun_20_1058,59.6401472308,verb_norming,001,912,
STRIDE,kliva,tassa,lunka,2,lunka,kliva,tassa,Leg,leg,0,75,75,88,0,1,1,1,,,,,,,,,,,,,7,0.496,,,,2018_Jun_20_1058,59.6401472308,verb_norming,001,912,
STRIDE,kliva,tassa,lunka,2,lunka,kliva,tassa,,,0,75,75,88,,,,,,,,,,,,,,,,,,,2,1,6.05478800934,2018_Jun_20_1058,59.6401472308,verb_norming,001,912,
PUSH,knuffa,kasta,klämma,3,kasta,klämma,knuffa,Arm,arm,0,76,76,56,0,0,0,0,,,,,,,,,,,,,7,2.391,,,,2018_Jun_20_1058,59.6401472308,verb_norming,001,912,
PUSH,knuffa,kasta,klämma,3,kasta,klämma,knuffa,Leg,leg,0,76,76,56,0,1,1,1,,,,,,,,,,,,,1,0.667,,,,2018_Jun_20_1058,59.6401472308,verb_norming,001,912,
PUSH,knuffa,kasta,klämma,3,kasta,klämma,knuffa,,,0,76,76,56,,,,,,,,,,,,,,,,,,,3,1,2.48262995088,2018_Jun_20_1058,59.6401472308,verb_norming,001,912,
SCOOP,skyffla,dika,skrapa,1,skyffla,dika,skrapa,Arm,arm,0,77,77,63,0,0,0,0,,,,,,,,,,,,,6,3.731,,,,2018_Jun_20_1058,59.6401472308,verb_norming,001,912,
SCOOP,skyffla,dika,skrapa,1,skyffla,dika,skrapa,Leg,leg,0,77,77,63,0,1,1,1,,,,,,,,,,,,,1,2.693,,,,2018_Jun_20_1058,59.6401472308,verb_norming,001,912,
SCOOP,skyffla,dika,skrapa,1,skyffla,dika,skrapa,,,0,77,77,63,,,,,,,,,,,,,,,,,,,1,1,5.23300382428,2018_Jun_20_1058,59.6401472308,verb_norming,001,912,
STUMBLE,snubbla,glida,svaja,1,snubbla,glida,svaja,Arm,arm,0,78,78,91,0,0,0,0,,,,,,,,,,,,,1,2.993,,,,2018_Jun_20_1058,59.6401472308,verb_norming,001,912,
STUMBLE,snubbla,glida,svaja,1,snubbla,glida,svaja,Leg,leg,0,78,78,91,0,1,1,1,,,,,,,,,,,,,7,1.403,,,,2018_Jun_20_1058,59.6401472308,verb_norming,001,912,
STUMBLE,snubbla,glida,svaja,1,snubbla,glida,svaja,,,0,78,78,91,,,,,,,,,,,,,,,,,,,1,1,1.9961705882,2018_Jun_20_1058,59.6401472308,verb_norming,001,912,
FLEE,fly,lyfta,flyga,1,fly,flyga,lyfta,Arm,arm,0,79,79,22,0,0,0,0,,,,,,,,,,,,,2,3.414,,,,2018_Jun_20_1058,59.6401472308,verb_norming,001,912,
FLEE,fly,lyfta,flyga,1,fly,flyga,lyfta,Leg,leg,0,79,79,22,0,1,1,1,,,,,,,,,,,,,7,1.354,,,,2018_Jun_20_1058,59.6401472308,verb_norming,001,912,
FLEE,fly,lyfta,flyga,1,fly,flyga,lyfta,,,0,79,79,22,,,,,,,,,,,,,,,,,,,1,1,3.06947664047,2018_Jun_20_1058,59.6401472308,verb_norming,001,912,
PRANCE,kråma sig,promenera,traska,2,traska,kråma sig,promenera,Arm,arm,0,80,80,53,0,0,0,0,,,,,,,,,,,,,1,3.228,,,,2018_Jun_20_1058,59.6401472308,verb_norming,001,912,
PRANCE,kråma sig,promenera,traska,2,traska,kråma sig,promenera,Leg,leg,0,80,80,53,0,1,1,1,,,,,,,,,,,,,7,0.884,,,,2018_Jun_20_1058,59.6401472308,verb_norming,001,912,
PRANCE,kråma sig,promenera,traska,2,traska,kråma sig,promenera,,,0,80,80,53,,,,,,,,,,,,,,,,,,,2,1,2.54917605614,2018_Jun_20_1058,59.6401472308,verb_norming,001,912,
TUG,rycka,pressa,slå,1,rycka,pressa,slå,Arm,arm,0,81,81,102,0,0,0,0,,,,,,,,,,,,,6,4.622,,,,2018_Jun_20_1058,59.6401472308,verb_norming,001,912,
TUG,rycka,pressa,slå,1,rycka,pressa,slå,Leg,leg,0,81,81,102,0,1,1,1,,,,,,,,,,,,,4,1.053,,,,2018_Jun_20_1058,59.6401472308,verb_norming,001,912,
TUG,rycka,pressa,slå,1,rycka,pressa,slå,,,0,81,81,102,,,,,,,,,,,,,,,,,,,1,1,3.05236361079,2018_Jun_20_1058,59.6401472308,verb_norming,001,912,
WASH,tvätta,skura,sopa,1,tvätta,skura,sopa,Arm,arm,0,82,82,107,0,0,0,0,,,,,,,,,,,,,6,2.643,,,,2018_Jun_20_1058,59.6401472308,verb_norming,001,912,
WASH,tvätta,skura,sopa,1,tvätta,skura,sopa,Leg,leg,0,82,82,107,0,1,1,1,,,,,,,,,,,,,1,0.935,,,,2018_Jun_20_1058,59.6401472308,verb_norming,001,912,
WASH,tvätta,skura,sopa,1,tvätta,skura,sopa,,,0,82,82,107,,,,,,,,,,,,,,,,,,,1,1,2.06303001616,2018_Jun_20_1058,59.6401472308,verb_norming,001,912,
PLOD,lunka,pulsa,vingla,3,pulsa,vingla,lunka,Arm,arm,0,83,83,49,0,0,0,0,,,,,,,,,,,,,1,3.11,,,,2018_Jun_20_1058,59.6401472308,verb_norming,001,912,
PLOD,lunka,pulsa,vingla,3,pulsa,vingla,lunka,Leg,leg,0,83,83,49,0,1,1,1,,,,,,,,,,,,,7,0.597,,,,2018_Jun_20_1058,59.6401472308,verb_norming,001,912,
PLOD,lunka,pulsa,vingla,3,pulsa,vingla,lunka,,,0,83,83,49,,,,,,,,,,,,,,,,,,,3,1,3.30428453968,2018_Jun_20_1058,59.6401472308,verb_norming,001,912,
PUNCH,slå,knuffa,kasta,1,slå,kasta,knuffa,Arm,arm,0,84,84,55,0,0,0,0,,,,,,,,,,,,,7,2.172,,,,2018_Jun_20_1058,59.6401472308,verb_norming,001,912,
PUNCH,slå,knuffa,kasta,1,slå,kasta,knuffa,Leg,leg,0,84,84,55,0,1,1,1,,,,,,,,,,,,,1,0.8,,,,2018_Jun_20_1058,59.6401472308,verb_norming,001,912,
PUNCH,slå,knuffa,kasta,1,slå,kasta,knuffa,,,0,84,84,55,,,,,,,,,,,,,,,,,,,1,1,2.38179851968,2018_Jun_20_1058,59.6401472308,verb_norming,001,912,
ROLL,vingla,snubbla,svassa,1,vingla,svassa,snubbla,Arm,arm,0,85,85,59,0,0,0,0,,,,,,,,,,,,,1,3.161,,,,2018_Jun_20_1058,59.6401472308,verb_norming,001,912,
ROLL,vingla,snubbla,svassa,1,vingla,svassa,snubbla,Leg,leg,0,85,85,59,0,1,1,1,,,,,,,,,,,,,7,0.8,,,,2018_Jun_20_1058,59.6401472308,verb_norming,001,912,
ROLL,vingla,snubbla,svassa,1,vingla,svassa,snubbla,,,0,85,85,59,,,,,,,,,,,,,,,,,,,1,1,7.83247943351,2018_Jun_20_1058,59.6401472308,verb_norming,001,912,
STAB,sticka,hacka,skära,3,skära,hacka,sticka,Arm,arm,0,86,86,81,0,0,0,0,,,,,,,,,,,,,6,2.106,,,,2018_Jun_20_1058,59.6401472308,verb_norming,001,912,
STAB,sticka,hacka,skära,3,skära,hacka,sticka,Leg,leg,0,86,86,81,0,1,1,1,,,,,,,,,,,,,1,0.667,,,,2018_Jun_20_1058,59.6401472308,verb_norming,001,912,
STAB,sticka,hacka,skära,3,skära,hacka,sticka,,,0,86,86,81,,,,,,,,,,,,,,,,,,,3,1,5.9036028949,2018_Jun_20_1058,59.6401472308,verb_norming,001,912,
LIMP,halta,hasa,halka,3,halka,hasa,halta,Arm,arm,0,87,87,41,0,0,0,0,,,,,,,,,,,,,6,4.739,,,,2018_Jun_20_1058,59.6401472308,verb_norming,001,912,
LIMP,halta,hasa,halka,3,halka,hasa,halta,Leg,leg,0,87,87,41,0,1,1,1,,,,,,,,,,,,,5,1.908,,,,2018_Jun_20_1058,59.6401472308,verb_norming,001,912,
LIMP,halta,hasa,halka,3,halka,hasa,halta,,,0,87,87,41,,,,,,,,,,,,,,,,,,,3,1,11.4885151231,2018_Jun_20_1058,59.6401472308,verb_norming,001,912,
CLUTCH,gripa tag i,sätta ihop,dra ut,2,sätta ihop,gripa tag i,dra ut,Arm,arm,0,88,88,13,0,0,0,0,,,,,,,,,,,,,6,3.732,,,,2018_Jun_20_1058,59.6401472308,verb_norming,001,912,
CLUTCH,gripa tag i,sätta ihop,dra ut,2,sätta ihop,gripa tag i,dra ut,Leg,leg,0,88,88,13,0,1,1,1,,,,,,,,,,,,,1,0.615,,,,2018_Jun_20_1058,59.6401472308,verb_norming,001,912,
CLUTCH,gripa tag i,sätta ihop,dra ut,2,sätta ihop,gripa tag i,dra ut,,,0,88,88,13,,,,,,,,,,,,,,,,,,,2,1,5.2661721726,2018_Jun_20_1058,59.6401472308,verb_norming,001,912,
PEEL,skala,rensa,plocka,1,skala,plocka,rensa,Arm,arm,0,89,89,47,0,0,0,0,,,,,,,,,,,,,7,2.592,,,,2018_Jun_20_1058,59.6401472308,verb_norming,001,912,
PEEL,skala,rensa,plocka,1,skala,plocka,rensa,Leg,leg,0,89,89,47,0,1,1,1,,,,,,,,,,,,,1,0.566,,,,2018_Jun_20_1058,59.6401472308,verb_norming,001,912,
PEEL,skala,rensa,plocka,1,skala,plocka,rensa,,,0,89,89,47,,,,,,,,,,,,,,,,,,,1,1,2.24767586076,2018_Jun_20_1058,59.6401472308,verb_norming,001,912,
WADE,vada,pulsa,plöja,2,plöja,vada,pulsa,Arm,arm,0,90,90,104,0,0,0,0,,,,,,,,,,,,,1,2.474,,,,2018_Jun_20_1058,59.6401472308,verb_norming,001,912,
WADE,vada,pulsa,plöja,2,plöja,vada,pulsa,Leg,leg,0,90,90,104,0,1,1,1,,,,,,,,,,,,,7,1.151,,,,2018_Jun_20_1058,59.6401472308,verb_norming,001,912,
WADE,vada,pulsa,plöja,2,plöja,vada,pulsa,,,0,90,90,104,,,,,,,,,,,,,,,,,,,2,1,2.93531289005,2018_Jun_20_1058,59.6401472308,verb_norming,001,912,
PINCH,nypa,plocka,pensla,3,plocka,pensla,nypa,Arm,arm,0,91,91,48,0,0,0,0,,,,,,,,,,,,,7,2.173,,,,2018_Jun_20_1058,59.6401472308,verb_norming,001,912,
PINCH,nypa,plocka,pensla,3,plocka,pensla,nypa,Leg,leg,0,91,91,48,0,1,1,1,,,,,,,,,,,,,1,0.598,,,,2018_Jun_20_1058,59.6401472308,verb_norming,001,912,
PINCH,nypa,plocka,pensla,3,plocka,pensla,nypa,,,0,91,91,48,,,,,,,,,,,,,,,,,,,3,1,2.68354723962,2018_Jun_20_1058,59.6401472308,verb_norming,001,912,
CLICK,klicka,klappa,klämma,3,klämma,klappa,klicka,Arm,arm,0,92,92,11,0,0,0,0,,,,,,,,,,,,,6,2.659,,,,2018_Jun_20_1058,59.6401472308,verb_norming,001,912,
CLICK,klicka,klappa,klämma,3,klämma,klappa,klicka,Leg,leg,0,92,92,11,0,1,1,1,,,,,,,,,,,,,1,0.615,,,,2018_Jun_20_1058,59.6401472308,verb_norming,001,912,
CLICK,klicka,klappa,klämma,3,klämma,klappa,klicka,,,0,92,92,11,,,,,,,,,,,,,,,,,,,3,1,2.58325948058,2018_Jun_20_1058,59.6401472308,verb_norming,001,912,
RUB,gnugga,riva,klappa,1,gnugga,riva,klappa,Arm,arm,0,93,93,60,0,0,0,0,,,,,,,,,,,,,7,2.576,,,,2018_Jun_20_1058,59.6401472308,verb_norming,001,912,
RUB,gnugga,riva,klappa,1,gnugga,riva,klappa,Leg,leg,0,93,93,60,0,1,1,1,,,,,,,,,,,,,1,0.634,,,,2018_Jun_20_1058,59.6401472308,verb_norming,001,912,
RUB,gnugga,riva,klappa,1,gnugga,riva,klappa,,,0,93,93,60,,,,,,,,,,,,,,,,,,,1,1,3.2034689129,2018_Jun_20_1058,59.6401472308,verb_norming,001,912,
LEAP,hoppa,stega,kliva,1,hoppa,kliva,stega,Arm,arm,0,94,94,39,0,0,0,0,,,,,,,,,,,,,2,3.311,,,,2018_Jun_20_1058,59.6401472308,verb_norming,001,912,
LEAP,hoppa,stega,kliva,1,hoppa,kliva,stega,Leg,leg,0,94,94,39,0,1,1,1,,,,,,,,,,,,,7,0.717,,,,2018_Jun_20_1058,59.6401472308,verb_norming,001,912,
LEAP,hoppa,stega,kliva,1,hoppa,kliva,stega,,,0,94,94,39,,,,,,,,,,,,,,,,,,,1,1,28.9135296532,2018_Jun_20_1058,59.6401472308,verb_norming,001,912,
CATCH,fånga,krama,omfamna,3,omfamna,krama,fånga,Arm,arm,0,95,95,6,0,0,0,0,,,,,,,,,,,,,7,2.122,,,,2018_Jun_20_1058,59.6401472308,verb_norming,001,912,
CATCH,fånga,krama,omfamna,3,omfamna,krama,fånga,Leg,leg,0,95,95,6,0,1,1,1,,,,,,,,,,,,,1,0.615,,,,2018_Jun_20_1058,59.6401472308,verb_norming,001,912,
CATCH,fånga,krama,omfamna,3,omfamna,krama,fånga,,,0,95,95,6,,,,,,,,,,,,,,,,,,,3,1,1.67752614941,2018_Jun_20_1058,59.6401472308,verb_norming,001,912,
BASH,slå,knuffa,trycka,2,trycka,slå,knuffa,Arm,arm,0,96,96,0,0,0,0,0,,,,,,,,,,,,,7,2.357,,,,2018_Jun_20_1058,59.6401472308,verb_norming,001,912,
BASH,slå,knuffa,trycka,2,trycka,slå,knuffa,Leg,leg,0,96,96,0,0,1,1,1,,,,,,,,,,,,,1,1.119,,,,2018_Jun_20_1058,59.6401472308,verb_norming,001,912,
BASH,slå,knuffa,trycka,2,trycka,slå,knuffa,,,0,96,96,0,,,,,,,,,,,,,,,,,,,2,1,5.85358703121,2018_Jun_20_1058,59.6401472308,verb_norming,001,912,
KICK,sparka,knäa,tåa,2,tåa,sparka,knäa,Arm,arm,0,97,97,36,0,0,0,0,,,,,,,,,,,,,1,3.045,,,,2018_Jun_20_1058,59.6401472308,verb_norming,001,912,
KICK,sparka,knäa,tåa,2,tåa,sparka,knäa,Leg,leg,0,97,97,36,0,1,1,1,,,,,,,,,,,,,7,0.616,,,,2018_Jun_20_1058,59.6401472308,verb_norming,001,912,
KICK,sparka,knäa,tåa,2,tåa,sparka,knäa,,,0,97,97,36,,,,,,,,,,,,,,,,,,,2,1,1.92890854257,2018_Jun_20_1058,59.6401472308,verb_norming,001,912,
STAGGER,ragla,lunka,halka,3,lunka,halka,ragla,Arm,arm,0,98,98,82,0,0,0,0,,,,,,,,,,,,,2,4.805,,,,2018_Jun_20_1058,59.6401472308,verb_norming,001,912,
STAGGER,ragla,lunka,halka,3,lunka,halka,ragla,Leg,leg,0,98,98,82,0,1,1,1,,,,,,,,,,,,,7,1.168,,,,2018_Jun_20_1058,59.6401472308,verb_norming,001,912,
STAGGER,ragla,lunka,halka,3,lunka,halka,ragla,,,0,98,98,82,,,,,,,,,,,,,,,,,,,3,1,17.4422946916,2018_Jun_20_1058,59.6401472308,verb_norming,001,912,
POKE,peta,trycka,knuffa,3,trycka,knuffa,peta,Arm,arm,0,99,99,51,0,0,0,0,,,,,,,,,,,,,7,2.372,,,,2018_Jun_20_1058,59.6401472308,verb_norming,001,912,
POKE,peta,trycka,knuffa,3,trycka,knuffa,peta,Leg,leg,0,99,99,51,0,1,1,1,,,,,,,,,,,,,1,0.648,,,,2018_Jun_20_1058,59.6401472308,verb_norming,001,912,
POKE,peta,trycka,knuffa,3,trycka,knuffa,peta,,,0,99,99,51,,,,,,,,,,,,,,,,,,,3,1,1.56017672506,2018_Jun_20_1058,59.6401472308,verb_norming,001,912,
WANDER,vandra,marschera,spatsera,3,marschera,spatsera,vandra,Arm,arm,0,100,100,106,0,0,0,0,,,,,,,,,,,,,2,3.429,,,,2018_Jun_20_1058,59.6401472308,verb_norming,001,912,
WANDER,vandra,marschera,spatsera,3,marschera,spatsera,vandra,Leg,leg,0,100,100,106,0,1,1,1,,,,,,,,,,,,,7,0.697,,,,2018_Jun_20_1058,59.6401472308,verb_norming,001,912,
WANDER,vandra,marschera,spatsera,3,marschera,spatsera,vandra,,,0,100,100,106,,,,,,,,,,,,,,,,,,,3,1,2.07978310009,2018_Jun_20_1058,59.6401472308,verb_norming,001,912,
SCUFF,hasa sig fram,dra sig fram,kasta sig fram,1,hasa sig fram,dra sig fram,kasta sig fram,Arm,arm,0,101,101,67,0,0,0,0,,,,,,,,,,,,,3,6.6,,,,2018_Jun_20_1058,59.6401472308,verb_norming,001,912,
SCUFF,hasa sig fram,dra sig fram,kasta sig fram,1,hasa sig fram,dra sig fram,kasta sig fram,Leg,leg,0,101,101,67,0,1,1,1,,,,,,,,,,,,,6,0.481,,,,2018_Jun_20_1058,59.6401472308,verb_norming,001,912,
SCUFF,hasa sig fram,dra sig fram,kasta sig fram,1,hasa sig fram,dra sig fram,kasta sig fram,,,0,101,101,67,,,,,,,,,,,,,,,,,,,1,1,4.24350704897,2018_Jun_20_1058,59.6401472308,verb_norming,001,912,
GRASP,gripa,klämma,omfamna,3,omfamna,klämma,gripa,Arm,arm,0,102,102,27,0,0,0,0,,,,,,,,,,,,,7,2.139,,,,2018_Jun_20_1058,59.6401472308,verb_norming,001,912,
GRASP,gripa,klämma,omfamna,3,omfamna,klämma,gripa,Leg,leg,0,102,102,27,0,1,1,1,,,,,,,,,,,,,1,0.616,,,,2018_Jun_20_1058,59.6401472308,verb_norming,001,912,
GRASP,gripa,klämma,omfamna,3,omfamna,klämma,gripa,,,0,102,102,27,,,,,,,,,,,,,,,,,,,3,1,6.87654295623,2018_Jun_20_1058,59.6401472308,verb_norming,001,912,
WRAP,slå in,slå ihop,slå till,1,slå in,slå ihop,slå till,Arm,arm,0,103,103,111,0,0,0,0,,,,,,,,,,,,,6,3.129,,,,2018_Jun_20_1058,59.6401472308,verb_norming,001,912,
WRAP,slå in,slå ihop,slå till,1,slå in,slå ihop,slå till,Leg,leg,0,103,103,111,0,1,1,1,,,,,,,,,,,,,1,0.616,,,,2018_Jun_20_1058,59.6401472308,verb_norming,001,912,
WRAP,slå in,slå ihop,slå till,1,slå in,slå ihop,slå till,,,0,103,103,111,,,,,,,,,,,,,,,,,,,1,1,5.0820676295,2018_Jun_20_1058,59.6401472308,verb_norming,001,912,
SCRUB,skrubba,sopa,skrapa,1,skrubba,sopa,skrapa,Arm,arm,0,104,104,66,0,0,0,0,,,,,,,,,,,,,7,2.138,,,,2018_Jun_20_1058,59.6401472308,verb_norming,001,912,
SCRUB,skrubba,sopa,skrapa,1,skrubba,sopa,skrapa,Leg,leg,0,104,104,66,0,1,1,1,,,,,,,,,,,,,1,0.649,,,,2018_Jun_20_1058,59.6401472308,verb_norming,001,912,
SCRUB,skrubba,sopa,skrapa,1,skrubba,sopa,skrapa,,,0,104,104,66,,,,,,,,,,,,,,,,,,,1,1,1.34204407301,2018_Jun_20_1058,59.6401472308,verb_norming,001,912,
SWITCH,slå på/av,knäppa,nypa,2,nypa,slå på/av,knäppa,Arm,arm,0,105,105,93,0,0,0,0,,,,,,,,,,,,,6,2.96,,,,2018_Jun_20_1058,59.6401472308,verb_norming,001,912,
SWITCH,slå på/av,knäppa,nypa,2,nypa,slå på/av,knäppa,Leg,leg,0,105,105,93,0,1,1,1,,,,,,,,,,,,,1,0.716,,,,2018_Jun_20_1058,59.6401472308,verb_norming,001,912,
SWITCH,slå på/av,knäppa,nypa,2,nypa,slå på/av,knäppa,,,0,105,105,93,,,,,,,,,,,,,,,,,,,2,1,2.93534331356,2018_Jun_20_1058,59.6401472308,verb_norming,001,912,
SQUEEZE,klämma,knuffa,knäppa,3,knuffa,knäppa,klämma,Arm,arm,0,106,106,80,0,0,0,0,,,,,,,,,,,,,7,2.67,,,,2018_Jun_20_1058,59.6401472308,verb_norming,001,912,
SQUEEZE,klämma,knuffa,knäppa,3,knuffa,knäppa,klämma,Leg,leg,0,106,106,80,0,1,1,1,,,,,,,,,,,,,1,0.646,,,,2018_Jun_20_1058,59.6401472308,verb_norming,001,912,
SQUEEZE,klämma,knuffa,knäppa,3,knuffa,knäppa,klämma,,,0,106,106,80,,,,,,,,,,,,,,,,,,,3,1,3.57267407288,2018_Jun_20_1058,59.6401472308,verb_norming,001,912,
TIPTOE,gå på tå,snava,sparka,3,sparka,snava,gå på tå,Arm,arm,0,107,107,95,0,0,0,0,,,,,,,,,,,,,1,2.892,,,,2018_Jun_20_1058,59.6401472308,verb_norming,001,912,
TIPTOE,gå på tå,snava,sparka,3,sparka,snava,gå på tå,Leg,leg,0,107,107,95,0,1,1,1,,,,,,,,,,,,,7,0.595,,,,2018_Jun_20_1058,59.6401472308,verb_norming,001,912,
TIPTOE,gå på tå,snava,sparka,3,sparka,snava,gå på tå,,,0,107,107,95,,,,,,,,,,,,,,,,,,,3,1,2.8515411486,2018_Jun_20_1058,59.6401472308,verb_norming,001,912,
CUT,skära,sticka,spetsa,3,sticka,spetsa,skära,Arm,arm,0,108,108,16,0,0,0,0,,,,,,,,,,,,,7,2.459,,,,2018_Jun_20_1058,59.6401472308,verb_norming,001,912,
CUT,skära,sticka,spetsa,3,sticka,spetsa,skära,Leg,leg,0,108,108,16,0,1,1,1,,,,,,,,,,,,,1,0.566,,,,2018_Jun_20_1058,59.6401472308,verb_norming,001,912,
CUT,skära,sticka,spetsa,3,sticka,spetsa,skära,,,0,108,108,16,,,,,,,,,,,,,,,,,,,3,1,3.57261046008,2018_Jun_20_1058,59.6401472308,verb_norming,001,912,
NIP,nypa,peta,nudda,2,peta,nypa,nudda,Arm,arm,0,109,109,44,0,0,0,0,,,,,,,,,,,,,6,7.792,,,,2018_Jun_20_1058,59.6401472308,verb_norming,001,912,
NIP,nypa,peta,nudda,2,peta,nypa,nudda,Leg,leg,0,109,109,44,0,1,1,1,,,,,,,,,,,,,2,0.617,,,,2018_Jun_20_1058,59.6401472308,verb_norming,001,912,
NIP,nypa,peta,nudda,2,peta,nypa,nudda,,,0,109,109,44,,,,,,,,,,,,,,,,,,,2,1,11.7401895029,2018_Jun_20_1058,59.6401472308,verb_norming,001,912,
CRAWL,kravla,huka,klättra,1,kravla,klättra,huka,Arm,arm,0,110,110,14,0,0,0,0,,,,,,,,,,,,,6,4.839,,,,2018_Jun_20_1058,59.6401472308,verb_norming,001,912,
CRAWL,kravla,huka,klättra,1,kravla,klättra,huka,Leg,leg,0,110,110,14,0,1,1,1,,,,,,,,,,,,,6,0.582,,,,2018_Jun_20_1058,59.6401472308,verb_norming,001,912,
CRAWL,kravla,huka,klättra,1,kravla,klättra,huka,,,0,110,110,14,,,,,,,,,,,,,,,,,,,1,1,3.55586053703,2018_Jun_20_1058,59.6401472308,verb_norming,001,912,
TRIP,snubbla,stampa,stappla,1,snubbla,stappla,stampa,Arm,arm,0,111,111,99,0,0,0,0,,,,,,,,,,,,,1,4.353,,,,2018_Jun_20_1058,59.6401472308,verb_norming,001,912,
TRIP,snubbla,stampa,stappla,1,snubbla,stappla,stampa,Leg,leg,0,111,111,99,0,1,1,1,,,,,,,,,,,,,7,0.415,,,,2018_Jun_20_1058,59.6401472308,verb_norming,001,912,
TRIP,snubbla,stampa,stappla,1,snubbla,stappla,stampa,,,0,111,111,99,,,,,,,,,,,,,,,,,,,1,1,2.63349858175,2018_Jun_20_1058,59.6401472308,verb_norming,001,912,
