word,target,distrOne,distrTwo,corrAns,w1,w2,w3,category,category_lowercase,trials.thisRepN,trials.thisTrialN,trials.thisN,trials.thisIndex,ArmLeg_loop.thisRepN,ArmLeg_loop.thisTrialN,ArmLeg_loop.thisN,ArmLeg_loop.thisIndex,key_resp_9.keys,key_resp_9.rt,key_resp_3.keys,key_resp_3.rt,key_resp_6.keys,key_resp_6.rt,key_resp_5.keys,key_resp_5.rt,key_resp_4.keys,key_resp_4.rt,key_resp_8.keys,key_resp_8.rt,rating.response,rating.rt,answer.keys,answer.corr,answer.rt,key_resp_7.keys,key_resp_7.rt,date,frameRate,expName,session,participant,
,,,,,,,,,,,,,,,,,,space,46.656834208,,,,,,,,,,,,,,,,,,2018_Jun_20_1258,59.6275014251,verb_norming,001,913,
,,,,,,,,,,,,,,,,,,,,space,9.71077589051,,,,,,,,,,,,,,,,2018_Jun_20_1258,59.6275014251,verb_norming,001,913,
,,,,,,,,,,,,,,,,,,,,,,space,20.4274966149,,,,,,,,,,,,,,2018_Jun_20_1258,59.6275014251,verb_norming,001,913,
,,,,,,,,,,,,,,,,,,,,,,,,space,29.215309982,,,,,,,,,,,,2018_Jun_20_1258,59.6275014251,verb_norming,001,913,
,,,,,,,,,,,,,,,,,,,,,,,,,,space,7.63117928261,,,,,,,,,,2018_Jun_20_1258,59.6275014251,verb_norming,001,913,
,,,,,,,,,,,,,,,,,,,,,,,,,,,,space,44.5107412788,,,,,,,,2018_Jun_20_1258,59.6275014251,verb_norming,001,913,
CLEAN,rengöra,rensa,plocka,3,rensa,plocka,rengöra,Leg,leg,0,0,0,10,0,0,0,0,,,,,,,,,,,,,4,39.158,,,,,,2018_Jun_20_1258,59.6275014251,verb_norming,001,913,
CLEAN,rengöra,rensa,plocka,3,rensa,plocka,rengöra,Arm,arm,0,0,0,10,0,1,1,1,,,,,,,,,,,,,4,2.964,,,,,,2018_Jun_20_1258,59.6275014251,verb_norming,001,913,
CLEAN,rengöra,rensa,plocka,3,rensa,plocka,rengöra,,,0,0,0,10,,,,,,,,,,,,,,,,,,,3,1,6.03794246953,,,2018_Jun_20_1258,59.6275014251,verb_norming,001,913,
PEEL,skala,rensa,plocka,1,skala,plocka,rensa,Leg,leg,0,1,1,47,0,0,0,0,,,,,,,,,,,,,1,7.221,,,,,,2018_Jun_20_1258,59.6275014251,verb_norming,001,913,
PEEL,skala,rensa,plocka,1,skala,plocka,rensa,Arm,arm,0,1,1,47,0,1,1,1,,,,,,,,,,,,,7,3.484,,,,,,2018_Jun_20_1258,59.6275014251,verb_norming,001,913,
PEEL,skala,rensa,plocka,1,skala,plocka,rensa,,,0,1,1,47,,,,,,,,,,,,,,,,,,,1,1,3.74052732249,,,2018_Jun_20_1258,59.6275014251,verb_norming,001,913,
PINCH,nypa,plocka,pensla,3,plocka,pensla,nypa,Leg,leg,0,2,2,48,0,0,0,0,,,,,,,,,,,,,1,7.925,,,,,,2018_Jun_20_1258,59.6275014251,verb_norming,001,913,
PINCH,nypa,plocka,pensla,3,plocka,pensla,nypa,Arm,arm,0,2,2,48,0,1,1,1,,,,,,,,,,,,,7,2.813,,,,,,2018_Jun_20_1258,59.6275014251,verb_norming,001,913,
PINCH,nypa,plocka,pensla,3,plocka,pensla,nypa,,,0,2,2,48,,,,,,,,,,,,,,,,,,,3,1,3.58943940525,,,2018_Jun_20_1258,59.6275014251,verb_norming,001,913,
DANCE,dansa,snurra,svänga,1,dansa,svänga,snurra,Leg,leg,0,3,3,17,0,0,0,0,,,,,,,,,,,,,7,3.311,,,,,,2018_Jun_20_1258,59.6275014251,verb_norming,001,913,
DANCE,dansa,snurra,svänga,1,dansa,svänga,snurra,Arm,arm,0,3,3,17,0,1,1,1,,,,,,,,,,,,,1,6.335,,,,,,2018_Jun_20_1258,59.6275014251,verb_norming,001,913,
DANCE,dansa,snurra,svänga,1,dansa,svänga,snurra,,,0,3,3,17,,,,,,,,,,,,,,,,,,,1,1,3.7399939232,,,2018_Jun_20_1258,59.6275014251,verb_norming,001,913,
SWAY,vingla,tassa,ramla,3,ramla,tassa,vingla,Leg,leg,0,4,4,92,0,0,0,0,,,,,,,,,,,,,7,5.259,,,,,,2018_Jun_20_1258,59.6275014251,verb_norming,001,913,
SWAY,vingla,tassa,ramla,3,ramla,tassa,vingla,Arm,arm,0,4,4,92,0,1,1,1,,,,,,,,,,,,,1,3.517,,,,,,2018_Jun_20_1258,59.6275014251,verb_norming,001,913,
SWAY,vingla,tassa,ramla,3,ramla,tassa,vingla,,,0,4,4,92,,,,,,,,,,,,,,,,,,,3,1,3.38799859499,,,2018_Jun_20_1258,59.6275014251,verb_norming,001,913,
JOG,jogga,spurta,rusa,1,jogga,spurta,rusa,Leg,leg,0,5,5,34,0,0,0,0,,,,,,,,,,,,,7,2.588,,,,,,2018_Jun_20_1258,59.6275014251,verb_norming,001,913,
JOG,jogga,spurta,rusa,1,jogga,spurta,rusa,Arm,arm,0,5,5,34,0,1,1,1,,,,,,,,,,,,,1,2.93,,,,,,2018_Jun_20_1258,59.6275014251,verb_norming,001,913,
JOG,jogga,spurta,rusa,1,jogga,spurta,rusa,,,0,5,5,34,,,,,,,,,,,,,,,,,,,1,1,3.06950074221,,,2018_Jun_20_1258,59.6275014251,verb_norming,001,913,
TUG,rycka,pressa,slå,3,pressa,slå,rycka,Leg,leg,0,6,6,102,0,0,0,0,,,,,,,,,,,,,1,3.631,,,,,,2018_Jun_20_1258,59.6275014251,verb_norming,001,913,
TUG,rycka,pressa,slå,3,pressa,slå,rycka,Arm,arm,0,6,6,102,0,1,1,1,,,,,,,,,,,,,7,1.94,,,,,,2018_Jun_20_1258,59.6275014251,verb_norming,001,913,
TUG,rycka,pressa,slå,3,pressa,slå,rycka,,,0,6,6,102,,,,,,,,,,,,,,,,,,,3,1,3.28739474748,,,2018_Jun_20_1258,59.6275014251,verb_norming,001,913,
SCRAPE,skrapa,rispa,klösa,3,klösa,rispa,skrapa,Leg,leg,0,7,7,64,0,0,0,0,,,,,,,,,,,,,1,4.084,,,,,,2018_Jun_20_1258,59.6275014251,verb_norming,001,913,
SCRAPE,skrapa,rispa,klösa,3,klösa,rispa,skrapa,Arm,arm,0,7,7,64,0,1,1,1,,,,,,,,,,,,,7,1.806,,,,,,2018_Jun_20_1258,59.6275014251,verb_norming,001,913,
SCRAPE,skrapa,rispa,klösa,3,klösa,rispa,skrapa,,,0,7,7,64,,,,,,,,,,,,,,,,,,,1,0,6.54101623233,,,2018_Jun_20_1258,59.6275014251,verb_norming,001,913,
SLIDE,glida,ramla,hasa,3,hasa,ramla,glida,Leg,leg,0,8,8,74,0,0,0,0,,,,,,,,,,,,,7,19.564,,,,,,2018_Jun_20_1258,59.6275014251,verb_norming,001,913,
SLIDE,glida,ramla,hasa,3,hasa,ramla,glida,Arm,arm,0,8,8,74,0,1,1,1,,,,,,,,,,,,,1,5.395,,,,,,2018_Jun_20_1258,59.6275014251,verb_norming,001,913,
SLIDE,glida,ramla,hasa,3,hasa,ramla,glida,,,0,8,8,74,,,,,,,,,,,,,,,,,,,3,1,2.86815633894,,,2018_Jun_20_1258,59.6275014251,verb_norming,001,913,
PUSH,knuffa,kasta,klämma,3,klämma,kasta,knuffa,Leg,leg,0,9,9,56,0,0,0,0,,,,,,,,,,,,,1,4.672,,,,,,2018_Jun_20_1258,59.6275014251,verb_norming,001,913,
PUSH,knuffa,kasta,klämma,3,klämma,kasta,knuffa,Arm,arm,0,9,9,56,0,1,1,1,,,,,,,,,,,,,7,1.203,,,,,,2018_Jun_20_1258,59.6275014251,verb_norming,001,913,
PUSH,knuffa,kasta,klämma,3,klämma,kasta,knuffa,,,0,9,9,56,,,,,,,,,,,,,,,,,,,3,1,1.99608959054,,,2018_Jun_20_1258,59.6275014251,verb_norming,001,913,
HACK,hacka,skära,kåpa,2,kåpa,hacka,skära,Leg,leg,0,10,10,30,0,0,0,0,,,,,,,,,,,,,1,5.108,,,,,,2018_Jun_20_1258,59.6275014251,verb_norming,001,913,
HACK,hacka,skära,kåpa,2,kåpa,hacka,skära,Arm,arm,0,10,10,30,0,1,1,1,,,,,,,,,,,,,7,1.304,,,,,,2018_Jun_20_1258,59.6275014251,verb_norming,001,913,
HACK,hacka,skära,kåpa,2,kåpa,hacka,skära,,,0,10,10,30,,,,,,,,,,,,,,,,,,,2,1,10.1804379169,,,2018_Jun_20_1258,59.6275014251,verb_norming,001,913,
HOP,skutta,kliva,studsa,1,skutta,kliva,studsa,Leg,leg,0,11,11,32,0,0,0,0,,,,,,,,,,,,,7,2.86,,,,,,2018_Jun_20_1258,59.6275014251,verb_norming,001,913,
HOP,skutta,kliva,studsa,1,skutta,kliva,studsa,Arm,arm,0,11,11,32,0,1,1,1,,,,,,,,,,,,,1,3.131,,,,,,2018_Jun_20_1258,59.6275014251,verb_norming,001,913,
HOP,skutta,kliva,studsa,1,skutta,kliva,studsa,,,0,11,11,32,,,,,,,,,,,,,,,,,,,1,1,8.46974183869,,,2018_Jun_20_1258,59.6275014251,verb_norming,001,913,
ROAM,ströva omkring,ta sig fram,luffa runt,1,ströva omkring,ta sig fram,luffa runt,Leg,leg,0,12,12,58,0,0,0,0,,,,,,,,,,,,,7,3.293,,,,,,2018_Jun_20_1258,59.6275014251,verb_norming,001,913,
ROAM,ströva omkring,ta sig fram,luffa runt,1,ströva omkring,ta sig fram,luffa runt,Arm,arm,0,12,12,58,0,1,1,1,,,,,,,,,,,,,1,1.151,,,,,,2018_Jun_20_1258,59.6275014251,verb_norming,001,913,
ROAM,ströva omkring,ta sig fram,luffa runt,1,ströva omkring,ta sig fram,luffa runt,,,0,12,12,58,,,,,,,,,,,,,,,,,,,1,1,10.8513443835,,,2018_Jun_20_1258,59.6275014251,verb_norming,001,913,
BOUNCE,studsa,dunka,kasta,2,dunka,studsa,kasta,Leg,leg,0,13,13,2,0,0,0,0,,,,,,,,,,,,,7,3.696,,,,,,2018_Jun_20_1258,59.6275014251,verb_norming,001,913,
BOUNCE,studsa,dunka,kasta,2,dunka,studsa,kasta,Arm,arm,0,13,13,2,0,1,1,1,,,,,,,,,,,,,1,1.822,,,,,,2018_Jun_20_1258,59.6275014251,verb_norming,001,913,
BOUNCE,studsa,dunka,kasta,2,dunka,studsa,kasta,,,0,13,13,2,,,,,,,,,,,,,,,,,,,2,1,3.57259702632,,,2018_Jun_20_1258,59.6275014251,verb_norming,001,913,
GRIP,gripa om,hålla om,kasta om,3,hålla om,kasta om,gripa om,Leg,leg,0,14,14,29,0,0,0,0,,,,,,,,,,,,,1,2.507,,,,,,2018_Jun_20_1258,59.6275014251,verb_norming,001,913,
GRIP,gripa om,hålla om,kasta om,3,hålla om,kasta om,gripa om,Arm,arm,0,14,14,29,0,1,1,1,,,,,,,,,,,,,7,2.108,,,,,,2018_Jun_20_1258,59.6275014251,verb_norming,001,913,
GRIP,gripa om,hålla om,kasta om,3,hålla om,kasta om,gripa om,,,0,14,14,29,,,,,,,,,,,,,,,,,,,3,1,6.10487617827,,,2018_Jun_20_1258,59.6275014251,verb_norming,001,913,
SCRUB,skrubba,sopa,skrapa,3,sopa,skrapa,skrubba,Leg,leg,0,15,15,66,0,0,0,0,,,,,,,,,,,,,7,3.73,,,,,,2018_Jun_20_1258,59.6275014251,verb_norming,001,913,
SCRUB,skrubba,sopa,skrapa,3,sopa,skrapa,skrubba,Arm,arm,0,15,15,66,0,1,1,1,,,,,,,,,,,,,7,9.839,,,,,,2018_Jun_20_1258,59.6275014251,verb_norming,001,913,
SCRUB,skrubba,sopa,skrapa,3,sopa,skrapa,skrubba,,,0,15,15,66,,,,,,,,,,,,,,,,,,,3,1,3.87441212484,,,2018_Jun_20_1258,59.6275014251,verb_norming,001,913,
STAB,sticka,hacka,skära,2,hacka,sticka,skära,Leg,leg,0,16,16,81,0,0,0,0,,,,,,,,,,,,,1,3.865,,,,,,2018_Jun_20_1258,59.6275014251,verb_norming,001,913,
STAB,sticka,hacka,skära,2,hacka,sticka,skära,Arm,arm,0,16,16,81,0,1,1,1,,,,,,,,,,,,,7,2.191,,,,,,2018_Jun_20_1258,59.6275014251,verb_norming,001,913,
STAB,sticka,hacka,skära,2,hacka,sticka,skära,,,0,16,16,81,,,,,,,,,,,,,,,,,,,3,0,5.31670523604,,,2018_Jun_20_1258,59.6275014251,verb_norming,001,913,
KICK,sparka,knäa,tåa,3,tåa,knäa,sparka,Leg,leg,0,17,17,36,0,0,0,0,,,,,,,,,,,,,7,6.331,,,,,,2018_Jun_20_1258,59.6275014251,verb_norming,001,913,
KICK,sparka,knäa,tåa,3,tåa,knäa,sparka,Arm,arm,0,17,17,36,0,1,1,1,,,,,,,,,,,,,1,1.858,,,,,,2018_Jun_20_1258,59.6275014251,verb_norming,001,913,
KICK,sparka,knäa,tåa,3,tåa,knäa,sparka,,,0,17,17,36,,,,,,,,,,,,,,,,,,,3,1,2.49924079501,,,2018_Jun_20_1258,59.6275014251,verb_norming,001,913,
SQUEEZE,klämma,knuffa,knäppa,3,knuffa,knäppa,klämma,Leg,leg,0,18,18,80,0,0,0,0,,,,,,,,,,,,,1,2.95,,,,,,2018_Jun_20_1258,59.6275014251,verb_norming,001,913,
SQUEEZE,klämma,knuffa,knäppa,3,knuffa,knäppa,klämma,Arm,arm,0,18,18,80,0,1,1,1,,,,,,,,,,,,,7,4.05,,,,,,2018_Jun_20_1258,59.6275014251,verb_norming,001,913,
SQUEEZE,klämma,knuffa,knäppa,3,knuffa,knäppa,klämma,,,0,18,18,80,,,,,,,,,,,,,,,,,,,3,1,2.54954192854,,,2018_Jun_20_1258,59.6275014251,verb_norming,001,913,
CARVE,tälja,hacka,riva,1,tälja,hacka,riva,Leg,leg,0,19,19,5,0,0,0,0,,,,,,,,,,,,,1,2.656,,,,,,2018_Jun_20_1258,59.6275014251,verb_norming,001,913,
CARVE,tälja,hacka,riva,1,tälja,hacka,riva,Arm,arm,0,19,19,5,0,1,1,1,,,,,,,,,,,,,7,1.604,,,,,,2018_Jun_20_1258,59.6275014251,verb_norming,001,913,
CARVE,tälja,hacka,riva,1,tälja,hacka,riva,,,0,19,19,5,,,,,,,,,,,,,,,,,,,1,1,4.54526841245,,,2018_Jun_20_1258,59.6275014251,verb_norming,001,913,
TIPTOE,gå på tå,snava,sparka,2,sparka,gå på tå,snava,Leg,leg,0,20,20,95,0,0,0,0,,,,,,,,,,,,,7,4.636,,,,,,2018_Jun_20_1258,59.6275014251,verb_norming,001,913,
TIPTOE,gå på tå,snava,sparka,2,sparka,gå på tå,snava,Arm,arm,0,20,20,95,0,1,1,1,,,,,,,,,,,,,1,1.352,,,,,,2018_Jun_20_1258,59.6275014251,verb_norming,001,913,
TIPTOE,gå på tå,snava,sparka,2,sparka,gå på tå,snava,,,0,20,20,95,,,,,,,,,,,,,,,,,,,2,1,3.0526066038,,,2018_Jun_20_1258,59.6275014251,verb_norming,001,913,
SCRATCH,repa,riva,klösa,1,repa,klösa,riva,Leg,leg,0,21,21,65,0,0,0,0,,,,,,,,,,,,,1,3.396,,,,,,2018_Jun_20_1258,59.6275014251,verb_norming,001,913,
SCRATCH,repa,riva,klösa,1,repa,klösa,riva,Arm,arm,0,21,21,65,0,1,1,1,,,,,,,,,,,,,7,1.504,,,,,,2018_Jun_20_1258,59.6275014251,verb_norming,001,913,
SCRATCH,repa,riva,klösa,1,repa,klösa,riva,,,0,21,21,65,,,,,,,,,,,,,,,,,,,2,0,9.47601421924,,,2018_Jun_20_1258,59.6275014251,verb_norming,001,913,
INCH,röra sig långsamt framåt,dra sig snabbt tillbaka,hasa sig bakåt,3,hasa sig bakåt,dra sig snabbt tillbaka,röra sig långsamt framåt,Leg,leg,0,22,22,33,0,0,0,0,,,,,,,,,,,,,4,12.269,,,,,,2018_Jun_20_1258,59.6275014251,verb_norming,001,913,
INCH,röra sig långsamt framåt,dra sig snabbt tillbaka,hasa sig bakåt,3,hasa sig bakåt,dra sig snabbt tillbaka,röra sig långsamt framåt,Arm,arm,0,22,22,33,0,1,1,1,,,,,,,,,,,,,4,0.952,,,,,,2018_Jun_20_1258,59.6275014251,verb_norming,001,913,
INCH,röra sig långsamt framåt,dra sig snabbt tillbaka,hasa sig bakåt,3,hasa sig bakåt,dra sig snabbt tillbaka,röra sig långsamt framåt,,,0,22,22,33,,,,,,,,,,,,,,,,,,,3,1,12.7631043365,,,2018_Jun_20_1258,59.6275014251,verb_norming,001,913,
SKIM,skumma,vispa,sleva,2,vispa,skumma,sleva,Leg,leg,0,23,23,71,0,0,0,0,,,,,,,,,,,,,1,6.247,,,,,,2018_Jun_20_1258,59.6275014251,verb_norming,001,913,
SKIM,skumma,vispa,sleva,2,vispa,skumma,sleva,Arm,arm,0,23,23,71,0,1,1,1,,,,,,,,,,,,,4,3.567,,,,,,2018_Jun_20_1258,59.6275014251,verb_norming,001,913,
SKIM,skumma,vispa,sleva,2,vispa,skumma,sleva,,,0,23,23,71,,,,,,,,,,,,,,,,,,,2,1,7.54728110577,,,2018_Jun_20_1258,59.6275014251,verb_norming,001,913,
CLUTCH,gripa tag i,sätta ihop,dra ut,1,gripa tag i,dra ut,sätta ihop,Leg,leg,0,24,24,13,0,0,0,0,,,,,,,,,,,,,1,2.407,,,,,,2018_Jun_20_1258,59.6275014251,verb_norming,001,913,
CLUTCH,gripa tag i,sätta ihop,dra ut,1,gripa tag i,dra ut,sätta ihop,Arm,arm,0,24,24,13,0,1,1,1,,,,,,,,,,,,,7,4.053,,,,,,2018_Jun_20_1258,59.6275014251,verb_norming,001,913,
CLUTCH,gripa tag i,sätta ihop,dra ut,1,gripa tag i,dra ut,sätta ihop,,,0,24,24,13,,,,,,,,,,,,,,,,,,,1,1,3.03588354827,,,2018_Jun_20_1258,59.6275014251,verb_norming,001,913,
NIP,nypa,peta,nudda,1,nypa,nudda,peta,Leg,leg,0,25,25,44,0,0,0,0,,,,,,,,,,,,,1,3.096,,,,,,2018_Jun_20_1258,59.6275014251,verb_norming,001,913,
NIP,nypa,peta,nudda,1,nypa,nudda,peta,Arm,arm,0,25,25,44,0,1,1,1,,,,,,,,,,,,,4,5.564,,,,,,2018_Jun_20_1258,59.6275014251,verb_norming,001,913,
NIP,nypa,peta,nudda,1,nypa,nudda,peta,,,0,25,25,44,,,,,,,,,,,,,,,,,,,1,1,8.00009996298,,,2018_Jun_20_1258,59.6275014251,verb_norming,001,913,
FOLD,vika ihop,knyta ihop,bunta ihop,3,knyta ihop,bunta ihop,vika ihop,Leg,leg,0,26,26,24,0,0,0,0,,,,,,,,,,,,,7,9.517,,,,,,2018_Jun_20_1258,59.6275014251,verb_norming,001,913,
FOLD,vika ihop,knyta ihop,bunta ihop,3,knyta ihop,bunta ihop,vika ihop,Arm,arm,0,26,26,24,0,1,1,1,,,,,,,,,,,,,7,1.554,,,,,,2018_Jun_20_1258,59.6275014251,verb_norming,001,913,
FOLD,vika ihop,knyta ihop,bunta ihop,3,knyta ihop,bunta ihop,vika ihop,,,0,26,26,24,,,,,,,,,,,,,,,,,,,3,1,3.42170666437,,,2018_Jun_20_1258,59.6275014251,verb_norming,001,913,
RUN,springa,rusa,jogga,2,jogga,springa,rusa,Leg,leg,0,27,27,61,0,0,0,0,,,,,,,,,,,,,7,2.995,,,,,,2018_Jun_20_1258,59.6275014251,verb_norming,001,913,
RUN,springa,rusa,jogga,2,jogga,springa,rusa,Arm,arm,0,27,27,61,0,1,1,1,,,,,,,,,,,,,2,7.76,,,,,,2018_Jun_20_1258,59.6275014251,verb_norming,001,913,
RUN,springa,rusa,jogga,2,jogga,springa,rusa,,,0,27,27,61,,,,,,,,,,,,,,,,,,,2,1,5.31690713755,,,2018_Jun_20_1258,59.6275014251,verb_norming,001,913,
TRIP,snubbla,stampa,stappla,3,stampa,stappla,snubbla,Leg,leg,0,28,28,99,0,0,0,0,,,,,,,,,,,,,7,3.464,,,,,,2018_Jun_20_1258,59.6275014251,verb_norming,001,913,
TRIP,snubbla,stampa,stappla,3,stampa,stappla,snubbla,Arm,arm,0,28,28,99,0,1,1,1,,,,,,,,,,,,,1,1.857,,,,,,2018_Jun_20_1258,59.6275014251,verb_norming,001,913,
TRIP,snubbla,stampa,stappla,3,stampa,stappla,snubbla,,,0,28,28,99,,,,,,,,,,,,,,,,,,,3,1,4.02522899622,,,2018_Jun_20_1258,59.6275014251,verb_norming,001,913,
CRAWL,kravla,huka,klättra,3,klättra,huka,kravla,Leg,leg,0,29,29,14,0,0,0,0,,,,,,,,,,,,,7,4.269,,,,,,2018_Jun_20_1258,59.6275014251,verb_norming,001,913,
CRAWL,kravla,huka,klättra,3,klättra,huka,kravla,Arm,arm,0,29,29,14,0,1,1,1,,,,,,,,,,,,,7,0.783,,,,,,2018_Jun_20_1258,59.6275014251,verb_norming,001,913,
CRAWL,kravla,huka,klättra,3,klättra,huka,kravla,,,0,29,29,14,,,,,,,,,,,,,,,,,,,3,1,5.08198149539,,,2018_Jun_20_1258,59.6275014251,verb_norming,001,913,
RAMBLE,ströva,strutta,spurta,1,ströva,spurta,strutta,Leg,leg,0,30,30,57,0,0,0,0,,,,,,,,,,,,,1,9.114,,,,,,2018_Jun_20_1258,59.6275014251,verb_norming,001,913,
RAMBLE,ströva,strutta,spurta,1,ströva,spurta,strutta,Arm,arm,0,30,30,57,0,1,1,1,,,,,,,,,,,,,1,0.848,,,,,,2018_Jun_20_1258,59.6275014251,verb_norming,001,913,
RAMBLE,ströva,strutta,spurta,1,ströva,spurta,strutta,,,0,30,30,57,,,,,,,,,,,,,,,,,,,1,1,10.4320759466,,,2018_Jun_20_1258,59.6275014251,verb_norming,001,913,
SLAP,smälla till,knäppa fast,klämma åt,3,klämma åt,knäppa fast,smälla till,Leg,leg,0,31,31,73,0,0,0,0,,,,,,,,,,,,,1,2.609,,,,,,2018_Jun_20_1258,59.6275014251,verb_norming,001,913,
SLAP,smälla till,knäppa fast,klämma åt,3,klämma åt,knäppa fast,smälla till,Arm,arm,0,31,31,73,0,1,1,1,,,,,,,,,,,,,7,1.338,,,,,,2018_Jun_20_1258,59.6275014251,verb_norming,001,913,
SLAP,smälla till,knäppa fast,klämma åt,3,klämma åt,knäppa fast,smälla till,,,0,31,31,73,,,,,,,,,,,,,,,,,,,3,1,2.46571724227,,,2018_Jun_20_1258,59.6275014251,verb_norming,001,913,
MARCH,marschera,trava,traska,1,marschera,trava,traska,Leg,leg,0,32,32,42,0,0,0,0,,,,,,,,,,,,,7,2.171,,,,,,2018_Jun_20_1258,59.6275014251,verb_norming,001,913,
MARCH,marschera,trava,traska,1,marschera,trava,traska,Arm,arm,0,32,32,42,0,1,1,1,,,,,,,,,,,,,1,3.382,,,,,,2018_Jun_20_1258,59.6275014251,verb_norming,001,913,
MARCH,marschera,trava,traska,1,marschera,trava,traska,,,0,32,32,42,,,,,,,,,,,,,,,,,,,1,1,2.28129819114,,,2018_Jun_20_1258,59.6275014251,verb_norming,001,913,
SPRINT,spurta,springa,löpa,2,löpa,spurta,springa,Leg,leg,0,33,33,79,0,0,0,0,,,,,,,,,,,,,7,2.608,,,,,,2018_Jun_20_1258,59.6275014251,verb_norming,001,913,
SPRINT,spurta,springa,löpa,2,löpa,spurta,springa,Arm,arm,0,33,33,79,0,1,1,1,,,,,,,,,,,,,1,2.024,,,,,,2018_Jun_20_1258,59.6275014251,verb_norming,001,913,
SPRINT,spurta,springa,löpa,2,löpa,spurta,springa,,,0,33,33,79,,,,,,,,,,,,,,,,,,,2,1,4.84712223181,,,2018_Jun_20_1258,59.6275014251,verb_norming,001,913,
DELVE,gräva,plöja,rensa,2,plöja,gräva,rensa,Leg,leg,0,34,34,18,0,0,0,0,,,,,,,,,,,,,1,8.14,,,,,,2018_Jun_20_1258,59.6275014251,verb_norming,001,913,
DELVE,gräva,plöja,rensa,2,plöja,gräva,rensa,Arm,arm,0,34,34,18,0,1,1,1,,,,,,,,,,,,,1,0.866,,,,,,2018_Jun_20_1258,59.6275014251,verb_norming,001,913,
DELVE,gräva,plöja,rensa,2,plöja,gräva,rensa,,,0,34,34,18,,,,,,,,,,,,,,,,,,,1,0,11.037065324,,,2018_Jun_20_1258,59.6275014251,verb_norming,001,913,
RUB,gnugga,riva,klappa,3,klappa,riva,gnugga,Leg,leg,0,35,35,60,0,0,0,0,,,,,,,,,,,,,1,3.665,,,,,,2018_Jun_20_1258,59.6275014251,verb_norming,001,913,
RUB,gnugga,riva,klappa,3,klappa,riva,gnugga,Arm,arm,0,35,35,60,0,1,1,1,,,,,,,,,,,,,7,1.42,,,,,,2018_Jun_20_1258,59.6275014251,verb_norming,001,913,
RUB,gnugga,riva,klappa,3,klappa,riva,gnugga,,,0,35,35,60,,,,,,,,,,,,,,,,,,,3,1,2.5496636226,,,2018_Jun_20_1258,59.6275014251,verb_norming,001,913,
POLISH,polera,sopa,tvätta,2,sopa,polera,tvätta,Leg,leg,0,36,36,52,0,0,0,0,,,,,,,,,,,,,1,2.556,,,,,,2018_Jun_20_1258,59.6275014251,verb_norming,001,913,
POLISH,polera,sopa,tvätta,2,sopa,polera,tvätta,Arm,arm,0,36,36,52,0,1,1,1,,,,,,,,,,,,,7,1.217,,,,,,2018_Jun_20_1258,59.6275014251,verb_norming,001,913,
POLISH,polera,sopa,tvätta,2,sopa,polera,tvätta,,,0,36,36,52,,,,,,,,,,,,,,,,,,,2,1,4.12613510332,,,2018_Jun_20_1258,59.6275014251,verb_norming,001,913,
SHAKE,skaka,röra,vispa,3,röra,vispa,skaka,Leg,leg,0,37,37,69,0,0,0,0,,,,,,,,,,,,,1,2.022,,,,,,2018_Jun_20_1258,59.6275014251,verb_norming,001,913,
SHAKE,skaka,röra,vispa,3,röra,vispa,skaka,Arm,arm,0,37,37,69,0,1,1,1,,,,,,,,,,,,,7,1.438,,,,,,2018_Jun_20_1258,59.6275014251,verb_norming,001,913,
SHAKE,skaka,röra,vispa,3,röra,vispa,skaka,,,0,37,37,69,,,,,,,,,,,,,,,,,,,3,1,1.74438873824,,,2018_Jun_20_1258,59.6275014251,verb_norming,001,913,
SWITCH,slå på/av,knäppa,nypa,3,nypa,knäppa,slå på/av,Leg,leg,0,38,38,93,0,0,0,0,,,,,,,,,,,,,1,6.029,,,,,,2018_Jun_20_1258,59.6275014251,verb_norming,001,913,
SWITCH,slå på/av,knäppa,nypa,3,nypa,knäppa,slå på/av,Arm,arm,0,38,38,93,0,1,1,1,,,,,,,,,,,,,7,1.454,,,,,,2018_Jun_20_1258,59.6275014251,verb_norming,001,913,
SWITCH,slå på/av,knäppa,nypa,3,nypa,knäppa,slå på/av,,,0,38,38,93,,,,,,,,,,,,,,,,,,,3,1,4.6293424135,,,2018_Jun_20_1258,59.6275014251,verb_norming,001,913,
THROW,kasta,greppa,träffa,1,kasta,greppa,träffa,Leg,leg,0,39,39,94,0,0,0,0,,,,,,,,,,,,,1,2.104,,,,,,2018_Jun_20_1258,59.6275014251,verb_norming,001,913,
THROW,kasta,greppa,träffa,1,kasta,greppa,träffa,Arm,arm,0,39,39,94,0,1,1,1,,,,,,,,,,,,,7,1.218,,,,,,2018_Jun_20_1258,59.6275014251,verb_norming,001,913,
THROW,kasta,greppa,träffa,1,kasta,greppa,träffa,,,0,39,39,94,,,,,,,,,,,,,,,,,,,1,1,1.72788496908,,,2018_Jun_20_1258,59.6275014251,verb_norming,001,913,
PULL,dra,slänga,släpa,3,slänga,släpa,dra,Leg,leg,0,40,40,54,0,0,0,0,,,,,,,,,,,,,1,2.257,,,,,,2018_Jun_20_1258,59.6275014251,verb_norming,001,913,
PULL,dra,slänga,släpa,3,slänga,släpa,dra,Arm,arm,0,40,40,54,0,1,1,1,,,,,,,,,,,,,7,1.036,,,,,,2018_Jun_20_1258,59.6275014251,verb_norming,001,913,
PULL,dra,slänga,släpa,3,slänga,släpa,dra,,,0,40,40,54,,,,,,,,,,,,,,,,,,,3,1,3.55596129023,,,2018_Jun_20_1258,59.6275014251,verb_norming,001,913,
CREEP,krypa,knäböja,klättra,2,klättra,krypa,knäböja,Leg,leg,0,41,41,15,0,0,0,0,,,,,,,,,,,,,5,6.366,,,,,,2018_Jun_20_1258,59.6275014251,verb_norming,001,913,
CREEP,krypa,knäböja,klättra,2,klättra,krypa,knäböja,Arm,arm,0,41,41,15,0,1,1,1,,,,,,,,,,,,,1,1.169,,,,,,2018_Jun_20_1258,59.6275014251,verb_norming,001,913,
CREEP,krypa,knäböja,klättra,2,klättra,krypa,knäböja,,,0,41,41,15,,,,,,,,,,,,,,,,,,,2,1,3.70674734298,,,2018_Jun_20_1258,59.6275014251,verb_norming,001,913,
CLAW,klösa,nypa,rispa,2,nypa,klösa,rispa,Leg,leg,0,42,42,9,0,0,0,0,,,,,,,,,,,,,1,2.29,,,,,,2018_Jun_20_1258,59.6275014251,verb_norming,001,913,
CLAW,klösa,nypa,rispa,2,nypa,klösa,rispa,Arm,arm,0,42,42,9,0,1,1,1,,,,,,,,,,,,,7,1.17,,,,,,2018_Jun_20_1258,59.6275014251,verb_norming,001,913,
CLAW,klösa,nypa,rispa,2,nypa,klösa,rispa,,,0,42,42,9,,,,,,,,,,,,,,,,,,,2,1,2.09679616679,,,2018_Jun_20_1258,59.6275014251,verb_norming,001,913,
WASH,tvätta,skura,sopa,1,tvätta,skura,sopa,Leg,leg,0,43,43,107,0,0,0,0,,,,,,,,,,,,,1,2.29,,,,,,2018_Jun_20_1258,59.6275014251,verb_norming,001,913,
WASH,tvätta,skura,sopa,1,tvätta,skura,sopa,Arm,arm,0,43,43,107,0,1,1,1,,,,,,,,,,,,,7,1.874,,,,,,2018_Jun_20_1258,59.6275014251,verb_norming,001,913,
WASH,tvätta,skura,sopa,1,tvätta,skura,sopa,,,0,43,43,107,,,,,,,,,,,,,,,,,,,1,1,3.17019586027,,,2018_Jun_20_1258,59.6275014251,verb_norming,001,913,
BRUSH,borsta,skrubba,putsa,1,borsta,putsa,skrubba,Leg,leg,0,44,44,4,0,0,0,0,,,,,,,,,,,,,1,1.987,,,,,,2018_Jun_20_1258,59.6275014251,verb_norming,001,913,
BRUSH,borsta,skrubba,putsa,1,borsta,putsa,skrubba,Arm,arm,0,44,44,4,0,1,1,1,,,,,,,,,,,,,7,1.285,,,,,,2018_Jun_20_1258,59.6275014251,verb_norming,001,913,
BRUSH,borsta,skrubba,putsa,1,borsta,putsa,skrubba,,,0,44,44,4,,,,,,,,,,,,,,,,,,,1,1,1.49301266685,,,2018_Jun_20_1258,59.6275014251,verb_norming,001,913,
DIG,gräva,dränera,dika,2,dika,gräva,dränera,Leg,leg,0,45,45,19,0,0,0,0,,,,,,,,,,,,,1,3.011,,,,,,2018_Jun_20_1258,59.6275014251,verb_norming,001,913,
DIG,gräva,dränera,dika,2,dika,gräva,dränera,Arm,arm,0,45,45,19,0,1,1,1,,,,,,,,,,,,,7,1.101,,,,,,2018_Jun_20_1258,59.6275014251,verb_norming,001,913,
DIG,gräva,dränera,dika,2,dika,gräva,dränera,,,0,45,45,19,,,,,,,,,,,,,,,,,,,2,1,1.87870381602,,,2018_Jun_20_1258,59.6275014251,verb_norming,001,913,
STRIDE,kliva,tassa,lunka,3,tassa,lunka,kliva,Leg,leg,0,46,46,88,0,0,0,0,,,,,,,,,,,,,7,2.307,,,,,,2018_Jun_20_1258,59.6275014251,verb_norming,001,913,
STRIDE,kliva,tassa,lunka,3,tassa,lunka,kliva,Arm,arm,0,46,46,88,0,1,1,1,,,,,,,,,,,,,1,1.135,,,,,,2018_Jun_20_1258,59.6275014251,verb_norming,001,913,
STRIDE,kliva,tassa,lunka,3,tassa,lunka,kliva,,,0,46,46,88,,,,,,,,,,,,,,,,,,,1,0,6.05462759444,,,2018_Jun_20_1258,59.6275014251,verb_norming,001,913,
LIMP,halta,hasa,halka,3,halka,hasa,halta,Leg,leg,0,47,47,41,0,0,0,0,,,,,,,,,,,,,7,3.161,,,,,,2018_Jun_20_1258,59.6275014251,verb_norming,001,913,
LIMP,halta,hasa,halka,3,halka,hasa,halta,Arm,arm,0,47,47,41,0,1,1,1,,,,,,,,,,,,,1,0.747,,,,,,2018_Jun_20_1258,59.6275014251,verb_norming,001,913,
LIMP,halta,hasa,halka,3,halka,hasa,halta,,,0,47,47,41,,,,,,,,,,,,,,,,,,,3,1,4.46143463864,,,2018_Jun_20_1258,59.6275014251,verb_norming,001,913,
ROLL,vingla,snubbla,svassa,1,vingla,snubbla,svassa,Leg,leg,0,48,48,59,0,0,0,0,,,,,,,,,,,,,7,5.358,,,,,,2018_Jun_20_1258,59.6275014251,verb_norming,001,913,
ROLL,vingla,snubbla,svassa,1,vingla,snubbla,svassa,Arm,arm,0,48,48,59,0,1,1,1,,,,,,,,,,,,,1,1.303,,,,,,2018_Jun_20_1258,59.6275014251,verb_norming,001,913,
ROLL,vingla,snubbla,svassa,1,vingla,snubbla,svassa,,,0,48,48,59,,,,,,,,,,,,,,,,,,,2,0,13.4003130066,,,2018_Jun_20_1258,59.6275014251,verb_norming,001,913,
GLIDE,glida,hasa,snava,2,snava,glida,hasa,Leg,leg,0,49,49,25,0,0,0,0,,,,,,,,,,,,,7,2.574,,,,,,2018_Jun_20_1258,59.6275014251,verb_norming,001,913,
GLIDE,glida,hasa,snava,2,snava,glida,hasa,Arm,arm,0,49,49,25,0,1,1,1,,,,,,,,,,,,,1,1.604,,,,,,2018_Jun_20_1258,59.6275014251,verb_norming,001,913,
GLIDE,glida,hasa,snava,2,snava,glida,hasa,,,0,49,49,25,,,,,,,,,,,,,,,,,,,2,1,1.52655716045,,,2018_Jun_20_1258,59.6275014251,verb_norming,001,913,
GRASP,gripa,klämma,omfamna,3,klämma,omfamna,gripa,Leg,leg,0,50,50,27,0,0,0,0,,,,,,,,,,,,,1,2.843,,,,,,2018_Jun_20_1258,59.6275014251,verb_norming,001,913,
GRASP,gripa,klämma,omfamna,3,klämma,omfamna,gripa,Arm,arm,0,50,50,27,0,1,1,1,,,,,,,,,,,,,7,1.555,,,,,,2018_Jun_20_1258,59.6275014251,verb_norming,001,913,
GRASP,gripa,klämma,omfamna,3,klämma,omfamna,gripa,,,0,50,50,27,,,,,,,,,,,,,,,,,,,3,1,6.69205199497,,,2018_Jun_20_1258,59.6275014251,verb_norming,001,913,
TRAIPSE,traska,stappla,vandra,3,vandra,stappla,traska,Leg,leg,0,51,51,97,0,0,0,0,,,,,,,,,,,,,4,5.928,,,,,,2018_Jun_20_1258,59.6275014251,verb_norming,001,913,
TRAIPSE,traska,stappla,vandra,3,vandra,stappla,traska,Arm,arm,0,51,51,97,0,1,1,1,,,,,,,,,,,,,4,1.638,,,,,,2018_Jun_20_1258,59.6275014251,verb_norming,001,913,
TRAIPSE,traska,stappla,vandra,3,vandra,stappla,traska,,,0,51,51,97,,,,,,,,,,,,,,,,,,,3,1,10.2642554911,,,2018_Jun_20_1258,59.6275014251,verb_norming,001,913,
BASH,slå,knuffa,trycka,2,knuffa,slå,trycka,Leg,leg,0,52,52,0,0,0,0,0,,,,,,,,,,,,,1,3.397,,,,,,2018_Jun_20_1258,59.6275014251,verb_norming,001,913,
BASH,slå,knuffa,trycka,2,knuffa,slå,trycka,Arm,arm,0,52,52,0,0,1,1,1,,,,,,,,,,,,,7,0.984,,,,,,2018_Jun_20_1258,59.6275014251,verb_norming,001,913,
BASH,slå,knuffa,trycka,2,knuffa,slå,trycka,,,0,52,52,0,,,,,,,,,,,,,,,,,,,2,1,3.74033016231,,,2018_Jun_20_1258,59.6275014251,verb_norming,001,913,
POKE,peta,trycka,knuffa,1,peta,knuffa,trycka,Leg,leg,0,53,53,51,0,0,0,0,,,,,,,,,,,,,1,2.574,,,,,,2018_Jun_20_1258,59.6275014251,verb_norming,001,913,
POKE,peta,trycka,knuffa,1,peta,knuffa,trycka,Arm,arm,0,53,53,51,0,1,1,1,,,,,,,,,,,,,7,1.587,,,,,,2018_Jun_20_1258,59.6275014251,verb_norming,001,913,
POKE,peta,trycka,knuffa,1,peta,knuffa,trycka,,,0,53,53,51,,,,,,,,,,,,,,,,,,,1,1,1.35877147475,,,2018_Jun_20_1258,59.6275014251,verb_norming,001,913,
CLIMB,klättra,kliva,krypa,1,klättra,kliva,krypa,Leg,leg,0,54,54,12,0,0,0,0,,,,,,,,,,,,,7,3.393,,,,,,2018_Jun_20_1258,59.6275014251,verb_norming,001,913,
CLIMB,klättra,kliva,krypa,1,klättra,kliva,krypa,Arm,arm,0,54,54,12,0,1,1,1,,,,,,,,,,,,,7,1.721,,,,,,2018_Jun_20_1258,59.6275014251,verb_norming,001,913,
CLIMB,klättra,kliva,krypa,1,klättra,kliva,krypa,,,0,54,54,12,,,,,,,,,,,,,,,,,,,1,1,1.87877809681,,,2018_Jun_20_1258,59.6275014251,verb_norming,001,913,
BRAID,fläta,knyta,binda,1,fläta,binda,knyta,Leg,leg,0,55,55,3,0,0,0,0,,,,,,,,,,,,,1,2.658,,,,,,2018_Jun_20_1258,59.6275014251,verb_norming,001,913,
BRAID,fläta,knyta,binda,1,fläta,binda,knyta,Arm,arm,0,55,55,3,0,1,1,1,,,,,,,,,,,,,7,1.235,,,,,,2018_Jun_20_1258,59.6275014251,verb_norming,001,913,
BRAID,fläta,knyta,binda,1,fläta,binda,knyta,,,0,55,55,3,,,,,,,,,,,,,,,,,,,1,1,1.15747685541,,,2018_Jun_20_1258,59.6275014251,verb_norming,001,913,
KNOCK,knacka,krocka,klicka,3,krocka,klicka,knacka,Leg,leg,0,56,56,38,0,0,0,0,,,,,,,,,,,,,1,2.238,,,,,,2018_Jun_20_1258,59.6275014251,verb_norming,001,913,
KNOCK,knacka,krocka,klicka,3,krocka,klicka,knacka,Arm,arm,0,56,56,38,0,1,1,1,,,,,,,,,,,,,7,1.285,,,,,,2018_Jun_20_1258,59.6275014251,verb_norming,001,913,
KNOCK,knacka,krocka,klicka,3,krocka,klicka,knacka,,,0,56,56,38,,,,,,,,,,,,,,,,,,,3,1,3.38816572676,,,2018_Jun_20_1258,59.6275014251,verb_norming,001,913,
WADE,vada,pulsa,plöja,1,vada,pulsa,plöja,Leg,leg,0,57,57,104,0,0,0,0,,,,,,,,,,,,,7,3.029,,,,,,2018_Jun_20_1258,59.6275014251,verb_norming,001,913,
WADE,vada,pulsa,plöja,1,vada,pulsa,plöja,Arm,arm,0,57,57,104,0,1,1,1,,,,,,,,,,,,,1,1.74,,,,,,2018_Jun_20_1258,59.6275014251,verb_norming,001,913,
WADE,vada,pulsa,plöja,1,vada,pulsa,plöja,,,0,57,57,104,,,,,,,,,,,,,,,,,,,1,1,1.87871922533,,,2018_Jun_20_1258,59.6275014251,verb_norming,001,913,
SKATE,åka skridskor,åka skidor,åka kälke,2,åka kälke,åka skridskor,åka skidor,Leg,leg,0,58,58,70,0,0,0,0,,,,,,,,,,,,,7,2.508,,,,,,2018_Jun_20_1258,59.6275014251,verb_norming,001,913,
SKATE,åka skridskor,åka skidor,åka kälke,2,åka kälke,åka skridskor,åka skidor,Arm,arm,0,58,58,70,0,1,1,1,,,,,,,,,,,,,1,1.336,,,,,,2018_Jun_20_1258,59.6275014251,verb_norming,001,913,
SKATE,åka skridskor,åka skidor,åka kälke,2,åka kälke,åka skridskor,åka skidor,,,0,58,58,70,,,,,,,,,,,,,,,,,,,2,1,6.30637783556,,,2018_Jun_20_1258,59.6275014251,verb_norming,001,913,
PLUCK,plocka,rensa,picka,2,picka,plocka,rensa,Leg,leg,0,59,59,50,0,0,0,0,,,,,,,,,,,,,1,2.911,,,,,,2018_Jun_20_1258,59.6275014251,verb_norming,001,913,
PLUCK,plocka,rensa,picka,2,picka,plocka,rensa,Arm,arm,0,59,59,50,0,1,1,1,,,,,,,,,,,,,7,0.918,,,,,,2018_Jun_20_1258,59.6275014251,verb_norming,001,913,
PLUCK,plocka,rensa,picka,2,picka,plocka,rensa,,,0,59,59,50,,,,,,,,,,,,,,,,,,,2,1,3.08611632767,,,2018_Jun_20_1258,59.6275014251,verb_norming,001,913,
STRUT,svassa,lunka,strosa,3,strosa,lunka,svassa,Leg,leg,0,60,60,90,0,0,0,0,,,,,,,,,,,,,7,2.424,,,,,,2018_Jun_20_1258,59.6275014251,verb_norming,001,913,
STRUT,svassa,lunka,strosa,3,strosa,lunka,svassa,Arm,arm,0,60,60,90,0,1,1,1,,,,,,,,,,,,,1,1.421,,,,,,2018_Jun_20_1258,59.6275014251,verb_norming,001,913,
STRUT,svassa,lunka,strosa,3,strosa,lunka,svassa,,,0,60,60,90,,,,,,,,,,,,,,,,,,,3,1,3.03591002068,,,2018_Jun_20_1258,59.6275014251,verb_norming,001,913,
STAGGER,ragla,lunka,halka,2,halka,ragla,lunka,Leg,leg,0,61,61,82,0,0,0,0,,,,,,,,,,,,,7,3.193,,,,,,2018_Jun_20_1258,59.6275014251,verb_norming,001,913,
STAGGER,ragla,lunka,halka,2,halka,ragla,lunka,Arm,arm,0,61,61,82,0,1,1,1,,,,,,,,,,,,,2,2.374,,,,,,2018_Jun_20_1258,59.6275014251,verb_norming,001,913,
STAGGER,ragla,lunka,halka,2,halka,ragla,lunka,,,0,61,61,82,,,,,,,,,,,,,,,,,,,1,0,6.82626987554,,,2018_Jun_20_1258,59.6275014251,verb_norming,001,913,
STAMP,stampa,kliva,skutta,1,stampa,kliva,skutta,Leg,leg,0,62,62,83,0,0,0,0,,,,,,,,,,,,,7,2.406,,,,,,2018_Jun_20_1258,59.6275014251,verb_norming,001,913,
STAMP,stampa,kliva,skutta,1,stampa,kliva,skutta,Arm,arm,0,62,62,83,0,1,1,1,,,,,,,,,,,,,1,1.318,,,,,,2018_Jun_20_1258,59.6275014251,verb_norming,001,913,
STAMP,stampa,kliva,skutta,1,stampa,kliva,skutta,,,0,62,62,83,,,,,,,,,,,,,,,,,,,1,1,2.43222806415,,,2018_Jun_20_1258,59.6275014251,verb_norming,001,913,
KNEEL,knäböja,krypa,kräla,1,knäböja,kräla,krypa,Leg,leg,0,63,63,37,0,0,0,0,,,,,,,,,,,,,7,2.374,,,,,,2018_Jun_20_1258,59.6275014251,verb_norming,001,913,
KNEEL,knäböja,krypa,kräla,1,knäböja,kräla,krypa,Arm,arm,0,63,63,37,0,1,1,1,,,,,,,,,,,,,1,1.169,,,,,,2018_Jun_20_1258,59.6275014251,verb_norming,001,913,
KNEEL,knäböja,krypa,kräla,1,knäböja,kräla,krypa,,,0,63,63,37,,,,,,,,,,,,,,,,,,,1,1,2.73418461226,,,2018_Jun_20_1258,59.6275014251,verb_norming,001,913,
TOSS,slänga,fånga,gripa,3,fånga,gripa,slänga,Leg,leg,0,64,64,96,0,0,0,0,,,,,,,,,,,,,1,2.591,,,,,,2018_Jun_20_1258,59.6275014251,verb_norming,001,913,
TOSS,slänga,fånga,gripa,3,fånga,gripa,slänga,Arm,arm,0,64,64,96,0,1,1,1,,,,,,,,,,,,,7,0.917,,,,,,2018_Jun_20_1258,59.6275014251,verb_norming,001,913,
TOSS,slänga,fånga,gripa,3,fånga,gripa,slänga,,,0,64,64,96,,,,,,,,,,,,,,,,,,,3,1,2.70049037175,,,2018_Jun_20_1258,59.6275014251,verb_norming,001,913,
WANDER,vandra,marschera,spatsera,1,vandra,marschera,spatsera,Leg,leg,0,65,65,106,0,0,0,0,,,,,,,,,,,,,7,2.306,,,,,,2018_Jun_20_1258,59.6275014251,verb_norming,001,913,
WANDER,vandra,marschera,spatsera,1,vandra,marschera,spatsera,Arm,arm,0,65,65,106,0,1,1,1,,,,,,,,,,,,,1,1.504,,,,,,2018_Jun_20_1258,59.6275014251,verb_norming,001,913,
WANDER,vandra,marschera,spatsera,1,vandra,marschera,spatsera,,,0,65,65,106,,,,,,,,,,,,,,,,,,,1,1,3.2874591505,,,2018_Jun_20_1258,59.6275014251,verb_norming,001,913,
WRAP,slå in,slå ihop,slå till,1,slå in,slå ihop,slå till,Leg,leg,0,66,66,111,0,0,0,0,,,,,,,,,,,,,1,3.448,,,,,,2018_Jun_20_1258,59.6275014251,verb_norming,001,913,
WRAP,slå in,slå ihop,slå till,1,slå in,slå ihop,slå till,Arm,arm,0,66,66,111,0,1,1,1,,,,,,,,,,,,,7,2.109,,,,,,2018_Jun_20_1258,59.6275014251,verb_norming,001,913,
WRAP,slå in,slå ihop,slå till,1,slå in,slå ihop,slå till,,,0,66,66,111,,,,,,,,,,,,,,,,,,,1,1,3.89112332705,,,2018_Jun_20_1258,59.6275014251,verb_norming,001,913,
WHIP,piska,klappa,slå,3,klappa,slå,piska,Leg,leg,0,67,67,108,0,0,0,0,,,,,,,,,,,,,1,3.563,,,,,,2018_Jun_20_1258,59.6275014251,verb_norming,001,913,
WHIP,piska,klappa,slå,3,klappa,slå,piska,Arm,arm,0,67,67,108,0,1,1,1,,,,,,,,,,,,,7,2.411,,,,,,2018_Jun_20_1258,59.6275014251,verb_norming,001,913,
WHIP,piska,klappa,slå,3,klappa,slå,piska,,,0,67,67,108,,,,,,,,,,,,,,,,,,,3,1,1.64390342391,,,2018_Jun_20_1258,59.6275014251,verb_norming,001,913,
CUT,skära,sticka,spetsa,1,skära,sticka,spetsa,Leg,leg,0,68,68,16,0,0,0,0,,,,,,,,,,,,,1,3.331,,,,,,2018_Jun_20_1258,59.6275014251,verb_norming,001,913,
CUT,skära,sticka,spetsa,1,skära,sticka,spetsa,Arm,arm,0,68,68,16,0,1,1,1,,,,,,,,,,,,,7,1.17,,,,,,2018_Jun_20_1258,59.6275014251,verb_norming,001,913,
CUT,skära,sticka,spetsa,1,skära,sticka,spetsa,,,0,68,68,16,,,,,,,,,,,,,,,,,,,1,1,1.9121767946,,,2018_Jun_20_1258,59.6275014251,verb_norming,001,913,
CLAP,klappa,knäppa,klämma,1,klappa,klämma,knäppa,Leg,leg,0,69,69,8,0,0,0,0,,,,,,,,,,,,,1,2.089,,,,,,2018_Jun_20_1258,59.6275014251,verb_norming,001,913,
CLAP,klappa,knäppa,klämma,1,klappa,klämma,knäppa,Arm,arm,0,69,69,8,0,1,1,1,,,,,,,,,,,,,7,0.684,,,,,,2018_Jun_20_1258,59.6275014251,verb_norming,001,913,
CLAP,klappa,knäppa,klämma,1,klappa,klämma,knäppa,,,0,69,69,8,,,,,,,,,,,,,,,,,,,1,1,2.38183328941,,,2018_Jun_20_1258,59.6275014251,verb_norming,001,913,
SCOOP,skyffla,dika,skrapa,1,skyffla,skrapa,dika,Leg,leg,0,70,70,63,0,0,0,0,,,,,,,,,,,,,1,2.188,,,,,,2018_Jun_20_1258,59.6275014251,verb_norming,001,913,
SCOOP,skyffla,dika,skrapa,1,skyffla,skrapa,dika,Arm,arm,0,70,70,63,0,1,1,1,,,,,,,,,,,,,7,2.744,,,,,,2018_Jun_20_1258,59.6275014251,verb_norming,001,913,
SCOOP,skyffla,dika,skrapa,1,skyffla,skrapa,dika,,,0,70,70,63,,,,,,,,,,,,,,,,,,,1,1,4.54520875075,,,2018_Jun_20_1258,59.6275014251,verb_norming,001,913,
LEAP,hoppa,stega,kliva,2,stega,hoppa,kliva,Leg,leg,0,71,71,39,0,0,0,0,,,,,,,,,,,,,7,2.559,,,,,,2018_Jun_20_1258,59.6275014251,verb_norming,001,913,
LEAP,hoppa,stega,kliva,2,stega,hoppa,kliva,Arm,arm,0,71,71,39,0,1,1,1,,,,,,,,,,,,,1,2.276,,,,,,2018_Jun_20_1258,59.6275014251,verb_norming,001,913,
LEAP,hoppa,stega,kliva,2,stega,hoppa,kliva,,,0,71,71,39,,,,,,,,,,,,,,,,,,,2,1,4.12599404885,,,2018_Jun_20_1258,59.6275014251,verb_norming,001,913,
TROT,trava,promenera,flanera,2,flanera,trava,promenera,Leg,leg,0,72,72,100,0,0,0,0,,,,,,,,,,,,,7,2.675,,,,,,2018_Jun_20_1258,59.6275014251,verb_norming,001,913,
TROT,trava,promenera,flanera,2,flanera,trava,promenera,Arm,arm,0,72,72,100,0,1,1,1,,,,,,,,,,,,,1,1.201,,,,,,2018_Jun_20_1258,59.6275014251,verb_norming,001,913,
TROT,trava,promenera,flanera,2,flanera,trava,promenera,,,0,72,72,100,,,,,,,,,,,,,,,,,,,2,1,1.99614214024,,,2018_Jun_20_1258,59.6275014251,verb_norming,001,913,
SKIP,hoppa,kliva,strutta,3,kliva,strutta,hoppa,Leg,leg,0,73,73,72,0,0,0,0,,,,,,,,,,,,,7,3.113,,,,,,2018_Jun_20_1258,59.6275014251,verb_norming,001,913,
SKIP,hoppa,kliva,strutta,3,kliva,strutta,hoppa,Arm,arm,0,73,73,72,0,1,1,1,,,,,,,,,,,,,1,1.053,,,,,,2018_Jun_20_1258,59.6275014251,verb_norming,001,913,
SKIP,hoppa,kliva,strutta,3,kliva,strutta,hoppa,,,0,73,73,72,,,,,,,,,,,,,,,,,,,2,0,6.02113723099,,,2018_Jun_20_1258,59.6275014251,verb_norming,001,913,
SEIZE,fånga,klämma,fästa,2,klämma,fånga,fästa,Leg,leg,0,74,74,68,0,0,0,0,,,,,,,,,,,,,1,3.46,,,,,,2018_Jun_20_1258,59.6275014251,verb_norming,001,913,
SEIZE,fånga,klämma,fästa,2,klämma,fånga,fästa,Arm,arm,0,74,74,68,0,1,1,1,,,,,,,,,,,,,7,1.369,,,,,,2018_Jun_20_1258,59.6275014251,verb_norming,001,913,
SEIZE,fånga,klämma,fästa,2,klämma,fånga,fästa,,,0,74,74,68,,,,,,,,,,,,,,,,,,,2,1,2.73377290703,,,2018_Jun_20_1258,59.6275014251,verb_norming,001,913,
FLEE,fly,lyfta,flyga,2,lyfta,fly,flyga,Leg,leg,0,75,75,22,0,0,0,0,,,,,,,,,,,,,7,2.139,,,,,,2018_Jun_20_1258,59.6275014251,verb_norming,001,913,
FLEE,fly,lyfta,flyga,2,lyfta,fly,flyga,Arm,arm,0,75,75,22,0,1,1,1,,,,,,,,,,,,,1,1.187,,,,,,2018_Jun_20_1258,59.6275014251,verb_norming,001,913,
FLEE,fly,lyfta,flyga,2,lyfta,fly,flyga,,,0,75,75,22,,,,,,,,,,,,,,,,,,,2,1,4.05882248353,,,2018_Jun_20_1258,59.6275014251,verb_norming,001,913,
STROLL,strosa,trava,marschera,2,marschera,strosa,trava,Leg,leg,0,76,76,89,0,0,0,0,,,,,,,,,,,,,7,1.953,,,,,,2018_Jun_20_1258,59.6275014251,verb_norming,001,913,
STROLL,strosa,trava,marschera,2,marschera,strosa,trava,Arm,arm,0,76,76,89,0,1,1,1,,,,,,,,,,,,,1,0.983,,,,,,2018_Jun_20_1258,59.6275014251,verb_norming,001,913,
STROLL,strosa,trava,marschera,2,marschera,strosa,trava,,,0,76,76,89,,,,,,,,,,,,,,,,,,,2,1,3.37141264283,,,2018_Jun_20_1258,59.6275014251,verb_norming,001,913,
GRATE,riva,hugga,rispa,2,hugga,riva,rispa,Leg,leg,0,77,77,28,0,0,0,0,,,,,,,,,,,,,1,2.54,,,,,,2018_Jun_20_1258,59.6275014251,verb_norming,001,913,
GRATE,riva,hugga,rispa,2,hugga,riva,rispa,Arm,arm,0,77,77,28,0,1,1,1,,,,,,,,,,,,,7,1.101,,,,,,2018_Jun_20_1258,59.6275014251,verb_norming,001,913,
GRATE,riva,hugga,rispa,2,hugga,riva,rispa,,,0,77,77,28,,,,,,,,,,,,,,,,,,,2,1,3.35443395075,,,2018_Jun_20_1258,59.6275014251,verb_norming,001,913,
FILE,fila,putsa,riva,1,fila,putsa,riva,Leg,leg,0,78,78,21,0,0,0,0,,,,,,,,,,,,,1,2.207,,,,,,2018_Jun_20_1258,59.6275014251,verb_norming,001,913,
FILE,fila,putsa,riva,1,fila,putsa,riva,Arm,arm,0,78,78,21,0,1,1,1,,,,,,,,,,,,,7,1.036,,,,,,2018_Jun_20_1258,59.6275014251,verb_norming,001,913,
FILE,fila,putsa,riva,1,fila,putsa,riva,,,0,78,78,21,,,,,,,,,,,,,,,,,,,1,1,1.05831042021,,,2018_Jun_20_1258,59.6275014251,verb_norming,001,913,
GRAB,gripa tag i,fästa ihop,smälla till,3,smälla till,fästa ihop,gripa tag i,Leg,leg,0,79,79,26,0,0,0,0,,,,,,,,,,,,,1,1.936,,,,,,2018_Jun_20_1258,59.6275014251,verb_norming,001,913,
GRAB,gripa tag i,fästa ihop,smälla till,3,smälla till,fästa ihop,gripa tag i,Arm,arm,0,79,79,26,0,1,1,1,,,,,,,,,,,,,7,0.581,,,,,,2018_Jun_20_1258,59.6275014251,verb_norming,001,913,
GRAB,gripa tag i,fästa ihop,smälla till,3,smälla till,fästa ihop,gripa tag i,,,0,79,79,26,,,,,,,,,,,,,,,,,,,3,1,2.98560296048,,,2018_Jun_20_1258,59.6275014251,verb_norming,001,913,
PUNCH,slå,knuffa,kasta,3,kasta,knuffa,slå,Leg,leg,0,80,80,55,0,0,0,0,,,,,,,,,,,,,1,1.988,,,,,,2018_Jun_20_1258,59.6275014251,verb_norming,001,913,
PUNCH,slå,knuffa,kasta,3,kasta,knuffa,slå,Arm,arm,0,80,80,55,0,1,1,1,,,,,,,,,,,,,7,0.616,,,,,,2018_Jun_20_1258,59.6275014251,verb_norming,001,913,
PUNCH,slå,knuffa,kasta,3,kasta,knuffa,slå,,,0,80,80,55,,,,,,,,,,,,,,,,,,,3,1,4.05907535431,,,2018_Jun_20_1258,59.6275014251,verb_norming,001,913,
SCUFF,hasa sig fram,dra sig fram,kasta sig fram,1,hasa sig fram,dra sig fram,kasta sig fram,Leg,leg,0,81,81,67,0,0,0,0,,,,,,,,,,,,,1,2.86,,,,,,2018_Jun_20_1258,59.6275014251,verb_norming,001,913,
SCUFF,hasa sig fram,dra sig fram,kasta sig fram,1,hasa sig fram,dra sig fram,kasta sig fram,Arm,arm,0,81,81,67,0,1,1,1,,,,,,,,,,,,,7,1.153,,,,,,2018_Jun_20_1258,59.6275014251,verb_norming,001,913,
SCUFF,hasa sig fram,dra sig fram,kasta sig fram,1,hasa sig fram,dra sig fram,kasta sig fram,,,0,81,81,67,,,,,,,,,,,,,,,,,,,2,0,11.9748180219,,,2018_Jun_20_1258,59.6275014251,verb_norming,001,913,
STOMP,stampa,stiga,kliva,3,stiga,kliva,stampa,Leg,leg,0,82,82,86,0,0,0,0,,,,,,,,,,,,,7,2.154,,,,,,2018_Jun_20_1258,59.6275014251,verb_norming,001,913,
STOMP,stampa,stiga,kliva,3,stiga,kliva,stampa,Arm,arm,0,82,82,86,0,1,1,1,,,,,,,,,,,,,1,0.782,,,,,,2018_Jun_20_1258,59.6275014251,verb_norming,001,913,
STOMP,stampa,stiga,kliva,3,stiga,kliva,stampa,,,0,82,82,86,,,,,,,,,,,,,,,,,,,3,1,2.28122746635,,,2018_Jun_20_1258,59.6275014251,verb_norming,001,913,
TRUDGE,släpa sig fram,kasta sig fram,ta sig fram,1,släpa sig fram,kasta sig fram,ta sig fram,Leg,leg,0,83,83,101,0,0,0,0,,,,,,,,,,,,,7,2.221,,,,,,2018_Jun_20_1258,59.6275014251,verb_norming,001,913,
TRUDGE,släpa sig fram,kasta sig fram,ta sig fram,1,släpa sig fram,kasta sig fram,ta sig fram,Arm,arm,0,83,83,101,0,1,1,1,,,,,,,,,,,,,1,0.849,,,,,,2018_Jun_20_1258,59.6275014251,verb_norming,001,913,
TRUDGE,släpa sig fram,kasta sig fram,ta sig fram,1,släpa sig fram,kasta sig fram,ta sig fram,,,0,83,83,101,,,,,,,,,,,,,,,,,,,3,0,6.80948320721,,,2018_Jun_20_1258,59.6275014251,verb_norming,001,913,
SLIP,halka,snava,ramla,1,halka,ramla,snava,Leg,leg,0,84,84,75,0,0,0,0,,,,,,,,,,,,,7,2.424,,,,,,2018_Jun_20_1258,59.6275014251,verb_norming,001,913,
SLIP,halka,snava,ramla,1,halka,ramla,snava,Arm,arm,0,84,84,75,0,1,1,1,,,,,,,,,,,,,1,0.751,,,,,,2018_Jun_20_1258,59.6275014251,verb_norming,001,913,
SLIP,halka,snava,ramla,1,halka,ramla,snava,,,0,84,84,75,,,,,,,,,,,,,,,,,,,1,1,4.78007749699,,,2018_Jun_20_1258,59.6275014251,verb_norming,001,913,
LIFT,lyfta,pressa,öka,2,öka,lyfta,pressa,Leg,leg,0,85,85,40,0,0,0,0,,,,,,,,,,,,,1,3.163,,,,,,2018_Jun_20_1258,59.6275014251,verb_norming,001,913,
LIFT,lyfta,pressa,öka,2,öka,lyfta,pressa,Arm,arm,0,85,85,40,0,1,1,1,,,,,,,,,,,,,7,1.22,,,,,,2018_Jun_20_1258,59.6275014251,verb_norming,001,913,
LIFT,lyfta,pressa,öka,2,öka,lyfta,pressa,,,0,85,85,40,,,,,,,,,,,,,,,,,,,2,1,2.43226876054,,,2018_Jun_20_1258,59.6275014251,verb_norming,001,913,
SNATCH,rycka till sig,knuffa ifrån sig,plocka åt sig,1,rycka till sig,plocka åt sig,knuffa ifrån sig,Leg,leg,0,86,86,77,0,0,0,0,,,,,,,,,,,,,1,1.803,,,,,,2018_Jun_20_1258,59.6275014251,verb_norming,001,913,
SNATCH,rycka till sig,knuffa ifrån sig,plocka åt sig,1,rycka till sig,plocka åt sig,knuffa ifrån sig,Arm,arm,0,86,86,77,0,1,1,1,,,,,,,,,,,,,7,0.985,,,,,,2018_Jun_20_1258,59.6275014251,verb_norming,001,913,
SNATCH,rycka till sig,knuffa ifrån sig,plocka åt sig,1,rycka till sig,plocka åt sig,knuffa ifrån sig,,,0,86,86,77,,,,,,,,,,,,,,,,,,,1,1,3.40514876506,,,2018_Jun_20_1258,59.6275014251,verb_norming,001,913,
PACE,gå fram och tillbaka,luffa runt,rusa fram,3,rusa fram,luffa runt,gå fram och tillbaka,Leg,leg,0,87,87,45,0,0,0,0,,,,,,,,,,,,,7,1.939,,,,,,2018_Jun_20_1258,59.6275014251,verb_norming,001,913,
PACE,gå fram och tillbaka,luffa runt,rusa fram,3,rusa fram,luffa runt,gå fram och tillbaka,Arm,arm,0,87,87,45,0,1,1,1,,,,,,,,,,,,,1,0.935,,,,,,2018_Jun_20_1258,59.6275014251,verb_norming,001,913,
PACE,gå fram och tillbaka,luffa runt,rusa fram,3,rusa fram,luffa runt,gå fram och tillbaka,,,0,87,87,45,,,,,,,,,,,,,,,,,,,3,1,3.32098586413,,,2018_Jun_20_1258,59.6275014251,verb_norming,001,913,
STEP,gå,klampa,traska,2,traska,gå,klampa,Leg,leg,0,88,88,84,0,0,0,0,,,,,,,,,,,,,7,1.788,,,,,,2018_Jun_20_1258,59.6275014251,verb_norming,001,913,
STEP,gå,klampa,traska,2,traska,gå,klampa,Arm,arm,0,88,88,84,0,1,1,1,,,,,,,,,,,,,1,1.036,,,,,,2018_Jun_20_1258,59.6275014251,verb_norming,001,913,
STEP,gå,klampa,traska,2,traska,gå,klampa,,,0,88,88,84,,,,,,,,,,,,,,,,,,,2,1,3.50547524494,,,2018_Jun_20_1258,59.6275014251,verb_norming,001,913,
TREAD,trampa,stampa,klampa,2,klampa,trampa,stampa,Leg,leg,0,89,89,98,0,0,0,0,,,,,,,,,,,,,7,1.988,,,,,,2018_Jun_20_1258,59.6275014251,verb_norming,001,913,
TREAD,trampa,stampa,klampa,2,klampa,trampa,stampa,Arm,arm,0,89,89,98,0,1,1,1,,,,,,,,,,,,,1,1.052,,,,,,2018_Jun_20_1258,59.6275014251,verb_norming,001,913,
TREAD,trampa,stampa,klampa,2,klampa,trampa,stampa,,,0,89,89,98,,,,,,,,,,,,,,,,,,,2,1,6.15537052088,,,2018_Jun_20_1258,59.6275014251,verb_norming,001,913,
WIPE,torka,putsa,gnugga,2,putsa,torka,gnugga,Leg,leg,0,90,90,109,0,0,0,0,,,,,,,,,,,,,1,2.811,,,,,,2018_Jun_20_1258,59.6275014251,verb_norming,001,913,
WIPE,torka,putsa,gnugga,2,putsa,torka,gnugga,Arm,arm,0,90,90,109,0,1,1,1,,,,,,,,,,,,,7,0.667,,,,,,2018_Jun_20_1258,59.6275014251,verb_norming,001,913,
WIPE,torka,putsa,gnugga,2,putsa,torka,gnugga,,,0,90,90,109,,,,,,,,,,,,,,,,,,,2,1,7.63124447586,,,2018_Jun_20_1258,59.6275014251,verb_norming,001,913,
BIND,binda,linda,vinda,1,binda,linda,vinda,Leg,leg,0,91,91,1,0,0,0,0,,,,,,,,,,,,,1,1.753,,,,,,2018_Jun_20_1258,59.6275014251,verb_norming,001,913,
BIND,binda,linda,vinda,1,binda,linda,vinda,Arm,arm,0,91,91,1,0,1,1,1,,,,,,,,,,,,,7,0.682,,,,,,2018_Jun_20_1258,59.6275014251,verb_norming,001,913,
BIND,binda,linda,vinda,1,binda,linda,vinda,,,0,91,91,1,,,,,,,,,,,,,,,,,,,1,1,3.00251606421,,,2018_Jun_20_1258,59.6275014251,verb_norming,001,913,
WOBBLE,vingla,ramla,glida,1,vingla,ramla,glida,Leg,leg,0,92,92,110,0,0,0,0,,,,,,,,,,,,,7,3.144,,,,,,2018_Jun_20_1258,59.6275014251,verb_norming,001,913,
WOBBLE,vingla,ramla,glida,1,vingla,ramla,glida,Arm,arm,0,92,92,110,0,1,1,1,,,,,,,,,,,,,1,0.764,,,,,,2018_Jun_20_1258,59.6275014251,verb_norming,001,913,
WOBBLE,vingla,ramla,glida,1,vingla,ramla,glida,,,0,92,92,110,,,,,,,,,,,,,,,,,,,1,1,2.49932890467,,,2018_Jun_20_1258,59.6275014251,verb_norming,001,913,
PRANCE,kråma sig,promenera,traska,1,kråma sig,traska,promenera,Leg,leg,0,93,93,53,0,0,0,0,,,,,,,,,,,,,7,1.954,,,,,,2018_Jun_20_1258,59.6275014251,verb_norming,001,913,
PRANCE,kråma sig,promenera,traska,1,kråma sig,traska,promenera,Arm,arm,0,93,93,53,0,1,1,1,,,,,,,,,,,,,1,0.682,,,,,,2018_Jun_20_1258,59.6275014251,verb_norming,001,913,
PRANCE,kråma sig,promenera,traska,1,kråma sig,traska,promenera,,,0,93,93,53,,,,,,,,,,,,,,,,,,,3,0,7.49693137364,,,2018_Jun_20_1258,59.6275014251,verb_norming,001,913,
CLICK,klicka,klappa,klämma,2,klappa,klicka,klämma,Leg,leg,0,94,94,11,0,0,0,0,,,,,,,,,,,,,1,2.405,,,,,,2018_Jun_20_1258,59.6275014251,verb_norming,001,913,
CLICK,klicka,klappa,klämma,2,klappa,klicka,klämma,Arm,arm,0,94,94,11,0,1,1,1,,,,,,,,,,,,,7,1.152,,,,,,2018_Jun_20_1258,59.6275014251,verb_norming,001,913,
CLICK,klicka,klappa,klämma,2,klappa,klicka,klämma,,,0,94,94,11,,,,,,,,,,,,,,,,,,,2,1,7.98338757543,,,2018_Jun_20_1258,59.6275014251,verb_norming,001,913,
DUNK,dunka,dumpa,dunsa,2,dumpa,dunka,dunsa,Leg,leg,0,95,95,20,0,0,0,0,,,,,,,,,,,,,1,1.821,,,,,,2018_Jun_20_1258,59.6275014251,verb_norming,001,913,
DUNK,dunka,dumpa,dunsa,2,dumpa,dunka,dunsa,Arm,arm,0,95,95,20,0,1,1,1,,,,,,,,,,,,,7,0.7,,,,,,2018_Jun_20_1258,59.6275014251,verb_norming,001,913,
DUNK,dunka,dumpa,dunsa,2,dumpa,dunka,dunsa,,,0,95,95,20,,,,,,,,,,,,,,,,,,,2,1,3.95827079062,,,2018_Jun_20_1258,59.6275014251,verb_norming,001,913,
PLOD,lunka,pulsa,vingla,3,pulsa,vingla,lunka,Leg,leg,0,96,96,49,0,0,0,0,,,,,,,,,,,,,7,3.966,,,,,,2018_Jun_20_1258,59.6275014251,verb_norming,001,913,
PLOD,lunka,pulsa,vingla,3,pulsa,vingla,lunka,Arm,arm,0,96,96,49,0,1,1,1,,,,,,,,,,,,,1,1.252,,,,,,2018_Jun_20_1258,59.6275014251,verb_norming,001,913,
PLOD,lunka,pulsa,vingla,3,pulsa,vingla,lunka,,,0,96,96,49,,,,,,,,,,,,,,,,,,,3,1,10.0629897149,,,2018_Jun_20_1258,59.6275014251,verb_norming,001,913,
STUMBLE,snubbla,glida,svaja,1,snubbla,glida,svaja,Leg,leg,0,97,97,91,0,0,0,0,,,,,,,,,,,,,7,2.639,,,,,,2018_Jun_20_1258,59.6275014251,verb_norming,001,913,
STUMBLE,snubbla,glida,svaja,1,snubbla,glida,svaja,Arm,arm,0,97,97,91,0,1,1,1,,,,,,,,,,,,,1,3.951,,,,,,2018_Jun_20_1258,59.6275014251,verb_norming,001,913,
STUMBLE,snubbla,glida,svaja,1,snubbla,glida,svaja,,,0,97,97,91,,,,,,,,,,,,,,,,,,,1,1,1.94576514548,,,2018_Jun_20_1258,59.6275014251,verb_norming,001,913,
CATCH,fånga,krama,omfamna,3,krama,omfamna,fånga,Leg,leg,0,98,98,6,0,0,0,0,,,,,,,,,,,,,1,2.324,,,,,,2018_Jun_20_1258,59.6275014251,verb_norming,001,913,
CATCH,fånga,krama,omfamna,3,krama,omfamna,fånga,Arm,arm,0,98,98,6,0,1,1,1,,,,,,,,,,,,,7,1.035,,,,,,2018_Jun_20_1258,59.6275014251,verb_norming,001,913,
CATCH,fånga,krama,omfamna,3,krama,omfamna,fånga,,,0,98,98,6,,,,,,,,,,,,,,,,,,,3,1,1.92904525083,,,2018_Jun_20_1258,59.6275014251,verb_norming,001,913,
RUSH,rusa,springa,löpa,1,rusa,springa,löpa,Leg,leg,0,99,99,62,0,0,0,0,,,,,,,,,,,,,7,1.854,,,,,,2018_Jun_20_1258,59.6275014251,verb_norming,001,913,
RUSH,rusa,springa,löpa,1,rusa,springa,löpa,Arm,arm,0,99,99,62,0,1,1,1,,,,,,,,,,,,,1,0.885,,,,,,2018_Jun_20_1258,59.6275014251,verb_norming,001,913,
RUSH,rusa,springa,löpa,1,rusa,springa,löpa,,,0,99,99,62,,,,,,,,,,,,,,,,,,,1,1,1.5600174955,,,2018_Jun_20_1258,59.6275014251,verb_norming,001,913,
JUMP,hoppa,kliva,lyfta,1,hoppa,kliva,lyfta,Leg,leg,0,100,100,35,0,0,0,0,,,,,,,,,,,,,7,2.171,,,,,,2018_Jun_20_1258,59.6275014251,verb_norming,001,913,
JUMP,hoppa,kliva,lyfta,1,hoppa,kliva,lyfta,Arm,arm,0,100,100,35,0,1,1,1,,,,,,,,,,,,,3,2.358,,,,,,2018_Jun_20_1258,59.6275014251,verb_norming,001,913,
JUMP,hoppa,kliva,lyfta,1,hoppa,kliva,lyfta,,,0,100,100,35,,,,,,,,,,,,,,,,,,,1,1,3.13630406446,,,2018_Jun_20_1258,59.6275014251,verb_norming,001,913,
TWINE,tvinna,binda,knyta,1,tvinna,binda,knyta,Leg,leg,0,101,101,103,0,0,0,0,,,,,,,,,,,,,1,1.804,,,,,,2018_Jun_20_1258,59.6275014251,verb_norming,001,913,
TWINE,tvinna,binda,knyta,1,tvinna,binda,knyta,Arm,arm,0,101,101,103,0,1,1,1,,,,,,,,,,,,,7,0.901,,,,,,2018_Jun_20_1258,59.6275014251,verb_norming,001,913,
TWINE,tvinna,binda,knyta,1,tvinna,binda,knyta,,,0,101,101,103,,,,,,,,,,,,,,,,,,,1,1,6.60816172034,,,2018_Jun_20_1258,59.6275014251,verb_norming,001,913,
STIR,röra,sleva,vispa,2,sleva,röra,vispa,Leg,leg,0,102,102,85,0,0,0,0,,,,,,,,,,,,,1,3.162,,,,,,2018_Jun_20_1258,59.6275014251,verb_norming,001,913,
STIR,röra,sleva,vispa,2,sleva,röra,vispa,Arm,arm,0,102,102,85,0,1,1,1,,,,,,,,,,,,,7,0.733,,,,,,2018_Jun_20_1258,59.6275014251,verb_norming,001,913,
STIR,röra,sleva,vispa,2,sleva,röra,vispa,,,0,102,102,85,,,,,,,,,,,,,,,,,,,3,0,15.5639045934,,,2018_Jun_20_1258,59.6275014251,verb_norming,001,913,
HIKE,vandra,flanera,lunka,3,flanera,lunka,vandra,Leg,leg,0,103,103,31,0,0,0,0,,,,,,,,,,,,,7,2.273,,,,,,2018_Jun_20_1258,59.6275014251,verb_norming,001,913,
HIKE,vandra,flanera,lunka,3,flanera,lunka,vandra,Arm,arm,0,103,103,31,0,1,1,1,,,,,,,,,,,,,1,0.717,,,,,,2018_Jun_20_1258,59.6275014251,verb_norming,001,913,
HIKE,vandra,flanera,lunka,3,flanera,lunka,vandra,,,0,103,103,31,,,,,,,,,,,,,,,,,,,3,1,2.56639853145,,,2018_Jun_20_1258,59.6275014251,verb_norming,001,913,
STRAY,ströva,vandra,promenera,1,ströva,promenera,vandra,Leg,leg,0,104,104,87,0,0,0,0,,,,,,,,,,,,,7,3.061,,,,,,2018_Jun_20_1258,59.6275014251,verb_norming,001,913,
STRAY,ströva,vandra,promenera,1,ströva,promenera,vandra,Arm,arm,0,104,104,87,0,1,1,1,,,,,,,,,,,,,1,1.035,,,,,,2018_Jun_20_1258,59.6275014251,verb_norming,001,913,
STRAY,ströva,vandra,promenera,1,ströva,promenera,vandra,,,0,104,104,87,,,,,,,,,,,,,,,,,,,1,1,1.50966341715,,,2018_Jun_20_1258,59.6275014251,verb_norming,001,913,
PAT,klappa,slå,borsta,2,slå,klappa,borsta,Leg,leg,0,105,105,46,0,0,0,0,,,,,,,,,,,,,1,1.838,,,,,,2018_Jun_20_1258,59.6275014251,verb_norming,001,913,
PAT,klappa,slå,borsta,2,slå,klappa,borsta,Arm,arm,0,105,105,46,0,1,1,1,,,,,,,,,,,,,7,1.271,,,,,,2018_Jun_20_1258,59.6275014251,verb_norming,001,913,
PAT,klappa,slå,borsta,2,slå,klappa,borsta,,,0,105,105,46,,,,,,,,,,,,,,,,,,,2,1,3.2540039519,,,2018_Jun_20_1258,59.6275014251,verb_norming,001,913,
SLITHER,hasa,glida,trilla,1,hasa,glida,trilla,Leg,leg,0,106,106,76,0,0,0,0,,,,,,,,,,,,,7,6.784,,,,,,2018_Jun_20_1258,59.6275014251,verb_norming,001,913,
SLITHER,hasa,glida,trilla,1,hasa,glida,trilla,Arm,arm,0,106,106,76,0,1,1,1,,,,,,,,,,,,,4,3.583,,,,,,2018_Jun_20_1258,59.6275014251,verb_norming,001,913,
SLITHER,hasa,glida,trilla,1,hasa,glida,trilla,,,0,106,106,76,,,,,,,,,,,,,,,,,,,2,0,5.82000263144,,,2018_Jun_20_1258,59.6275014251,verb_norming,001,913,
FLIT,rusa,hasa,svassa,3,hasa,svassa,rusa,Leg,leg,0,107,107,23,0,0,0,0,,,,,,,,,,,,,4,4.286,,,,,,2018_Jun_20_1258,59.6275014251,verb_norming,001,913,
FLIT,rusa,hasa,svassa,3,hasa,svassa,rusa,Arm,arm,0,107,107,23,0,1,1,1,,,,,,,,,,,,,4,0.851,,,,,,2018_Jun_20_1258,59.6275014251,verb_norming,001,913,
FLIT,rusa,hasa,svassa,3,hasa,svassa,rusa,,,0,107,107,23,,,,,,,,,,,,,,,,,,,2,0,5.38415021788,,,2018_Jun_20_1258,59.6275014251,verb_norming,001,913,
MOUNT,gå uppför,ströva runt,kliva över,1,gå uppför,kliva över,ströva runt,Leg,leg,0,108,108,43,0,0,0,0,,,,,,,,,,,,,7,3.01,,,,,,2018_Jun_20_1258,59.6275014251,verb_norming,001,913,
MOUNT,gå uppför,ströva runt,kliva över,1,gå uppför,kliva över,ströva runt,Arm,arm,0,108,108,43,0,1,1,1,,,,,,,,,,,,,5,2.124,,,,,,2018_Jun_20_1258,59.6275014251,verb_norming,001,913,
MOUNT,gå uppför,ströva runt,kliva över,1,gå uppför,kliva över,ströva runt,,,0,108,108,43,,,,,,,,,,,,,,,,,,,1,1,3.72357944903,,,2018_Jun_20_1258,59.6275014251,verb_norming,001,913,
CHOP,hacka,tälja,riva,3,riva,tälja,hacka,Leg,leg,0,109,109,7,0,0,0,0,,,,,,,,,,,,,1,2.222,,,,,,2018_Jun_20_1258,59.6275014251,verb_norming,001,913,
CHOP,hacka,tälja,riva,3,riva,tälja,hacka,Arm,arm,0,109,109,7,0,1,1,1,,,,,,,,,,,,,7,2.242,,,,,,2018_Jun_20_1258,59.6275014251,verb_norming,001,913,
CHOP,hacka,tälja,riva,3,riva,tälja,hacka,,,0,109,109,7,,,,,,,,,,,,,,,,,,,3,1,3.80742507617,,,2018_Jun_20_1258,59.6275014251,verb_norming,001,913,
SNEAK,smyga,hasa,glida,3,glida,hasa,smyga,Leg,leg,0,110,110,78,0,0,0,0,,,,,,,,,,,,,7,2.558,,,,,,2018_Jun_20_1258,59.6275014251,verb_norming,001,913,
SNEAK,smyga,hasa,glida,3,glida,hasa,smyga,Arm,arm,0,110,110,78,0,1,1,1,,,,,,,,,,,,,2,2.092,,,,,,2018_Jun_20_1258,59.6275014251,verb_norming,001,913,
SNEAK,smyga,hasa,glida,3,glida,hasa,smyga,,,0,110,110,78,,,,,,,,,,,,,,,,,,,3,1,2.09668039939,,,2018_Jun_20_1258,59.6275014251,verb_norming,001,913,
WALK,gå,promenera,marschera,2,marschera,gå,promenera,Leg,leg,0,111,111,105,0,0,0,0,,,,,,,,,,,,,7,2.173,,,,,,2018_Jun_20_1258,59.6275014251,verb_norming,001,913,
WALK,gå,promenera,marschera,2,marschera,gå,promenera,Arm,arm,0,111,111,105,0,1,1,1,,,,,,,,,,,,,1,0.661,,,,,,2018_Jun_20_1258,59.6275014251,verb_norming,001,913,
WALK,gå,promenera,marschera,2,marschera,gå,promenera,,,0,111,111,105,,,,,,,,,,,,,,,,,,,2,1,1.29168920443,,,2018_Jun_20_1258,59.6275014251,verb_norming,001,913,
,,,,,,,,,,,,,,,,,,,,,,,,,,,,,,,,,,,space,11.2201390236,2018_Jun_20_1258,59.6275014251,verb_norming,001,913,
