word,target,distrOne,distrTwo,corrAns,w1,w2,w3,category,category_lowercase,trials.thisRepN,trials.thisTrialN,trials.thisN,trials.thisIndex,ArmLeg_loop.thisRepN,ArmLeg_loop.thisTrialN,ArmLeg_loop.thisN,ArmLeg_loop.thisIndex,key_resp_9.keys,key_resp_9.rt,key_resp_3.keys,key_resp_3.rt,key_resp_6.keys,key_resp_6.rt,key_resp_5.keys,key_resp_5.rt,key_resp_4.keys,key_resp_4.rt,key_resp_8.keys,key_resp_8.rt,rating.response,rating.rt,answer.keys,answer.corr,answer.rt,key_resp_7.keys,key_resp_7.rt,date,frameRate,expName,session,participant,
,,,,,,,,,,,,,,,,,,space,20.3092806886,,,,,,,,,,,,,,,,,,2018_Jun_21_1446,59.1031922097,verb_norming,001,914,
,,,,,,,,,,,,,,,,,,,,space,6.89307840138,,,,,,,,,,,,,,,,2018_Jun_21_1446,59.1031922097,verb_norming,001,914,
,,,,,,,,,,,,,,,,,,,,,,space,4.69611130252,,,,,,,,,,,,,,2018_Jun_21_1446,59.1031922097,verb_norming,001,914,
,,,,,,,,,,,,,,,,,,,,,,,,space,4.49488576739,,,,,,,,,,,,2018_Jun_21_1446,59.1031922097,verb_norming,001,914,
,,,,,,,,,,,,,,,,,,,,,,,,,,space,4.84701395825,,,,,,,,,,2018_Jun_21_1446,59.1031922097,verb_norming,001,914,
,,,,,,,,,,,,,,,,,,,,,,,,,,,,space,2.98543131187,,,,,,,,2018_Jun_21_1446,59.1031922097,verb_norming,001,914,
GRAB,gripa tag i,fästa ihop,smälla till,1,gripa tag i,smälla till,fästa ihop,Arm,arm,0,0,0,26,0,0,0,0,,,,,,,,,,,,,7,8.152,,,,,,2018_Jun_21_1446,59.1031922097,verb_norming,001,914,
GRAB,gripa tag i,fästa ihop,smälla till,1,gripa tag i,smälla till,fästa ihop,Leg,leg,0,0,0,26,0,1,1,1,,,,,,,,,,,,,2,5.178,,,,,,2018_Jun_21_1446,59.1031922097,verb_norming,001,914,
GRAB,gripa tag i,fästa ihop,smälla till,1,gripa tag i,smälla till,fästa ihop,,,0,0,0,26,,,,,,,,,,,,,,,,,,,1,1,4.54523037753,,,2018_Jun_21_1446,59.1031922097,verb_norming,001,914,
FLIT,rusa,hasa,svassa,3,hasa,svassa,rusa,Arm,arm,0,1,1,23,0,0,0,0,,,,,,,,,,,,,1,27.933,,,,,,2018_Jun_21_1446,59.1031922097,verb_norming,001,914,
FLIT,rusa,hasa,svassa,3,hasa,svassa,rusa,Leg,leg,0,1,1,23,0,1,1,1,,,,,,,,,,,,,5,2.042,,,,,,2018_Jun_21_1446,59.1031922097,verb_norming,001,914,
FLIT,rusa,hasa,svassa,3,hasa,svassa,rusa,,,0,1,1,23,,,,,,,,,,,,,,,,,,,1,0,4.15941557723,,,2018_Jun_21_1446,59.1031922097,verb_norming,001,914,
DELVE,gräva,plöja,rensa,3,rensa,plöja,gräva,Arm,arm,0,2,2,18,0,0,0,0,,,,,,,,,,,,,4,12.381,,,,,,2018_Jun_21_1446,59.1031922097,verb_norming,001,914,
DELVE,gräva,plöja,rensa,3,rensa,plöja,gräva,Leg,leg,0,2,2,18,0,1,1,1,,,,,,,,,,,,,4,0.581,,,,,,2018_Jun_21_1446,59.1031922097,verb_norming,001,914,
DELVE,gräva,plöja,rensa,3,rensa,plöja,gräva,,,0,2,2,18,,,,,,,,,,,,,,,,,,,3,1,4.49468110326,,,2018_Jun_21_1446,59.1031922097,verb_norming,001,914,
WIPE,torka,putsa,gnugga,3,gnugga,putsa,torka,Arm,arm,0,3,3,109,0,0,0,0,,,,,,,,,,,,,7,6.467,,,,,,2018_Jun_21_1446,59.1031922097,verb_norming,001,914,
WIPE,torka,putsa,gnugga,3,gnugga,putsa,torka,Leg,leg,0,3,3,109,0,1,1,1,,,,,,,,,,,,,1,1.606,,,,,,2018_Jun_21_1446,59.1031922097,verb_norming,001,914,
WIPE,torka,putsa,gnugga,3,gnugga,putsa,torka,,,0,3,3,109,,,,,,,,,,,,,,,,,,,2,0,5.53486678657,,,2018_Jun_21_1446,59.1031922097,verb_norming,001,914,
CLICK,klicka,klappa,klämma,3,klappa,klämma,klicka,Arm,arm,0,4,4,11,0,0,0,0,,,,,,,,,,,,,6,4.805,,,,,,2018_Jun_21_1446,59.1031922097,verb_norming,001,914,
CLICK,klicka,klappa,klämma,3,klappa,klämma,klicka,Leg,leg,0,4,4,11,0,1,1,1,,,,,,,,,,,,,1,2.929,,,,,,2018_Jun_21_1446,59.1031922097,verb_norming,001,914,
CLICK,klicka,klappa,klämma,3,klappa,klämma,klicka,,,0,4,4,11,,,,,,,,,,,,,,,,,,,2,0,1.84532054038,,,2018_Jun_21_1446,59.1031922097,verb_norming,001,914,
HACK,hacka,skära,kåpa,2,kåpa,hacka,skära,Arm,arm,0,5,5,30,0,0,0,0,,,,,,,,,,,,,7,15.522,,,,,,2018_Jun_21_1446,59.1031922097,verb_norming,001,914,
HACK,hacka,skära,kåpa,2,kåpa,hacka,skära,Leg,leg,0,5,5,30,0,1,1,1,,,,,,,,,,,,,1,0.918,,,,,,2018_Jun_21_1446,59.1031922097,verb_norming,001,914,
HACK,hacka,skära,kåpa,2,kåpa,hacka,skära,,,0,5,5,30,,,,,,,,,,,,,,,,,,,2,1,1.76134424032,,,2018_Jun_21_1446,59.1031922097,verb_norming,001,914,
JOG,jogga,spurta,rusa,1,jogga,spurta,rusa,Arm,arm,0,6,6,34,0,0,0,0,,,,,,,,,,,,,2,6.06,,,,,,2018_Jun_21_1446,59.1031922097,verb_norming,001,914,
JOG,jogga,spurta,rusa,1,jogga,spurta,rusa,Leg,leg,0,6,6,34,0,1,1,1,,,,,,,,,,,,,7,2.913,,,,,,2018_Jun_21_1446,59.1031922097,verb_norming,001,914,
JOG,jogga,spurta,rusa,1,jogga,spurta,rusa,,,0,6,6,34,,,,,,,,,,,,,,,,,,,1,1,1.67743668845,,,2018_Jun_21_1446,59.1031922097,verb_norming,001,914,
CLUTCH,gripa tag i,sätta ihop,dra ut,3,sätta ihop,dra ut,gripa tag i,Arm,arm,0,7,7,13,0,0,0,0,,,,,,,,,,,,,6,5.979,,,,,,2018_Jun_21_1446,59.1031922097,verb_norming,001,914,
CLUTCH,gripa tag i,sätta ihop,dra ut,3,sätta ihop,dra ut,gripa tag i,Leg,leg,0,7,7,13,0,1,1,1,,,,,,,,,,,,,2,3.181,,,,,,2018_Jun_21_1446,59.1031922097,verb_norming,001,914,
CLUTCH,gripa tag i,sätta ihop,dra ut,3,sätta ihop,dra ut,gripa tag i,,,0,7,7,13,,,,,,,,,,,,,,,,,,,3,1,5.33355077251,,,2018_Jun_21_1446,59.1031922097,verb_norming,001,914,
HIKE,vandra,flanera,lunka,1,vandra,flanera,lunka,Arm,arm,0,8,8,31,0,0,0,0,,,,,,,,,,,,,4,5.191,,,,,,2018_Jun_21_1446,59.1031922097,verb_norming,001,914,
HIKE,vandra,flanera,lunka,1,vandra,flanera,lunka,Leg,leg,0,8,8,31,0,1,1,1,,,,,,,,,,,,,5,1.354,,,,,,2018_Jun_21_1446,59.1031922097,verb_norming,001,914,
HIKE,vandra,flanera,lunka,1,vandra,flanera,lunka,,,0,8,8,31,,,,,,,,,,,,,,,,,,,1,1,2.71726401199,,,2018_Jun_21_1446,59.1031922097,verb_norming,001,914,
CREEP,krypa,knäböja,klättra,2,klättra,krypa,knäböja,Arm,arm,0,9,9,15,0,0,0,0,,,,,,,,,,,,,1,11.145,,,,,,2018_Jun_21_1446,59.1031922097,verb_norming,001,914,
CREEP,krypa,knäböja,klättra,2,klättra,krypa,knäböja,Leg,leg,0,9,9,15,0,1,1,1,,,,,,,,,,,,,1,0.8,,,,,,2018_Jun_21_1446,59.1031922097,verb_norming,001,914,
CREEP,krypa,knäböja,klättra,2,klättra,krypa,knäböja,,,0,9,9,15,,,,,,,,,,,,,,,,,,,2,1,4.9813222251,,,2018_Jun_21_1446,59.1031922097,verb_norming,001,914,
NIP,nypa,peta,nudda,2,nudda,nypa,peta,Arm,arm,0,10,10,44,0,0,0,0,,,,,,,,,,,,,5,7.236,,,,,,2018_Jun_21_1446,59.1031922097,verb_norming,001,914,
NIP,nypa,peta,nudda,2,nudda,nypa,peta,Leg,leg,0,10,10,44,0,1,1,1,,,,,,,,,,,,,1,2.293,,,,,,2018_Jun_21_1446,59.1031922097,verb_norming,001,914,
NIP,nypa,peta,nudda,2,nudda,nypa,peta,,,0,10,10,44,,,,,,,,,,,,,,,,,,,2,1,2.68363350739,,,2018_Jun_21_1446,59.1031922097,verb_norming,001,914,
CARVE,tälja,hacka,riva,2,hacka,tälja,riva,Arm,arm,0,11,11,5,0,0,0,0,,,,,,,,,,,,,6,9.316,,,,,,2018_Jun_21_1446,59.1031922097,verb_norming,001,914,
CARVE,tälja,hacka,riva,2,hacka,tälja,riva,Leg,leg,0,11,11,5,0,1,1,1,,,,,,,,,,,,,3,2.895,,,,,,2018_Jun_21_1446,59.1031922097,verb_norming,001,914,
CARVE,tälja,hacka,riva,2,hacka,tälja,riva,,,0,11,11,5,,,,,,,,,,,,,,,,,,,2,1,4.32721092575,,,2018_Jun_21_1446,59.1031922097,verb_norming,001,914,
STROLL,strosa,trava,marschera,3,trava,marschera,strosa,Arm,arm,0,12,12,89,0,0,0,0,,,,,,,,,,,,,2,13.122,,,,,,2018_Jun_21_1446,59.1031922097,verb_norming,001,914,
STROLL,strosa,trava,marschera,3,trava,marschera,strosa,Leg,leg,0,12,12,89,0,1,1,1,,,,,,,,,,,,,6,2.476,,,,,,2018_Jun_21_1446,59.1031922097,verb_norming,001,914,
STROLL,strosa,trava,marschera,3,trava,marschera,strosa,,,0,12,12,89,,,,,,,,,,,,,,,,,,,3,1,3.00227659211,,,2018_Jun_21_1446,59.1031922097,verb_norming,001,914,
KICK,sparka,knäa,tåa,1,sparka,tåa,knäa,Arm,arm,0,13,13,36,0,0,0,0,,,,,,,,,,,,,1,13.158,,,,,,2018_Jun_21_1446,59.1031922097,verb_norming,001,914,
KICK,sparka,knäa,tåa,1,sparka,tåa,knäa,Leg,leg,0,13,13,36,0,1,1,1,,,,,,,,,,,,,7,1.589,,,,,,2018_Jun_21_1446,59.1031922097,verb_norming,001,914,
KICK,sparka,knäa,tåa,1,sparka,tåa,knäa,,,0,13,13,36,,,,,,,,,,,,,,,,,,,1,1,2.64988526165,,,2018_Jun_21_1446,59.1031922097,verb_norming,001,914,
CLAP,klappa,knäppa,klämma,3,knäppa,klämma,klappa,Arm,arm,0,14,14,8,0,0,0,0,,,,,,,,,,,,,7,2.911,,,,,,2018_Jun_21_1446,59.1031922097,verb_norming,001,914,
CLAP,klappa,knäppa,klämma,3,knäppa,klämma,klappa,Leg,leg,0,14,14,8,0,1,1,1,,,,,,,,,,,,,1,4.071,,,,,,2018_Jun_21_1446,59.1031922097,verb_norming,001,914,
CLAP,klappa,knäppa,klämma,3,knäppa,klämma,klappa,,,0,14,14,8,,,,,,,,,,,,,,,,,,,3,1,2.1302975611,,,2018_Jun_21_1446,59.1031922097,verb_norming,001,914,
STEP,gå,klampa,traska,3,traska,klampa,gå,Arm,arm,0,15,15,84,0,0,0,0,,,,,,,,,,,,,1,7.422,,,,,,2018_Jun_21_1446,59.1031922097,verb_norming,001,914,
STEP,gå,klampa,traska,3,traska,klampa,gå,Leg,leg,0,15,15,84,0,1,1,1,,,,,,,,,,,,,7,1.74,,,,,,2018_Jun_21_1446,59.1031922097,verb_norming,001,914,
STEP,gå,klampa,traska,3,traska,klampa,gå,,,0,15,15,84,,,,,,,,,,,,,,,,,,,1,0,12.6621986933,,,2018_Jun_21_1446,59.1031922097,verb_norming,001,914,
MOUNT,gå uppför,ströva runt,kliva över,3,ströva runt,kliva över,gå uppför,Arm,arm,0,16,16,43,0,0,0,0,,,,,,,,,,,,,4,7.317,,,,,,2018_Jun_21_1446,59.1031922097,verb_norming,001,914,
MOUNT,gå uppför,ströva runt,kliva över,3,ströva runt,kliva över,gå uppför,Leg,leg,0,16,16,43,0,1,1,1,,,,,,,,,,,,,4,0.899,,,,,,2018_Jun_21_1446,59.1031922097,verb_norming,001,914,
MOUNT,gå uppför,ströva runt,kliva över,3,ströva runt,kliva över,gå uppför,,,0,16,16,43,,,,,,,,,,,,,,,,,,,3,1,7.86601690415,,,2018_Jun_21_1446,59.1031922097,verb_norming,001,914,
CATCH,fånga,krama,omfamna,3,omfamna,krama,fånga,Arm,arm,0,17,17,6,0,0,0,0,,,,,,,,,,,,,5,9.418,,,,,,2018_Jun_21_1446,59.1031922097,verb_norming,001,914,
CATCH,fånga,krama,omfamna,3,omfamna,krama,fånga,Leg,leg,0,17,17,6,0,1,1,1,,,,,,,,,,,,,5,0.6,,,,,,2018_Jun_21_1446,59.1031922097,verb_norming,001,914,
CATCH,fånga,krama,omfamna,3,omfamna,krama,fånga,,,0,17,17,6,,,,,,,,,,,,,,,,,,,3,1,2.36500385622,,,2018_Jun_21_1446,59.1031922097,verb_norming,001,914,
CLEAN,rengöra,rensa,plocka,1,rengöra,rensa,plocka,Arm,arm,0,18,18,10,0,0,0,0,,,,,,,,,,,,,5,8.845,,,,,,2018_Jun_21_1446,59.1031922097,verb_norming,001,914,
CLEAN,rengöra,rensa,plocka,1,rengöra,rensa,plocka,Leg,leg,0,18,18,10,0,1,1,1,,,,,,,,,,,,,5,1.101,,,,,,2018_Jun_21_1446,59.1031922097,verb_norming,001,914,
CLEAN,rengöra,rensa,plocka,1,rengöra,rensa,plocka,,,0,18,18,10,,,,,,,,,,,,,,,,,,,1,1,2.0800450103,,,2018_Jun_21_1446,59.1031922097,verb_norming,001,914,
TOSS,slänga,fånga,gripa,1,slänga,fånga,gripa,Arm,arm,0,19,19,96,0,0,0,0,,,,,,,,,,,,,7,3.915,,,,,,2018_Jun_21_1446,59.1031922097,verb_norming,001,914,
TOSS,slänga,fånga,gripa,1,slänga,fånga,gripa,Leg,leg,0,19,19,96,0,1,1,1,,,,,,,,,,,,,1,1.487,,,,,,2018_Jun_21_1446,59.1031922097,verb_norming,001,914,
TOSS,slänga,fånga,gripa,1,slänga,fånga,gripa,,,0,19,19,96,,,,,,,,,,,,,,,,,,,1,1,2.46573732821,,,2018_Jun_21_1446,59.1031922097,verb_norming,001,914,
BRAID,fläta,knyta,binda,1,fläta,binda,knyta,Arm,arm,0,20,20,3,0,0,0,0,,,,,,,,,,,,,6,4.001,,,,,,2018_Jun_21_1446,59.1031922097,verb_norming,001,914,
BRAID,fläta,knyta,binda,1,fläta,binda,knyta,Leg,leg,0,20,20,3,0,1,1,1,,,,,,,,,,,,,1,1.705,,,,,,2018_Jun_21_1446,59.1031922097,verb_norming,001,914,
BRAID,fläta,knyta,binda,1,fläta,binda,knyta,,,0,20,20,3,,,,,,,,,,,,,,,,,,,1,1,1.2413989702,,,2018_Jun_21_1446,59.1031922097,verb_norming,001,914,
BRUSH,borsta,skrubba,putsa,2,putsa,borsta,skrubba,Arm,arm,0,21,21,4,0,0,0,0,,,,,,,,,,,,,7,4.638,,,,,,2018_Jun_21_1446,59.1031922097,verb_norming,001,914,
BRUSH,borsta,skrubba,putsa,2,putsa,borsta,skrubba,Leg,leg,0,21,21,4,0,1,1,1,,,,,,,,,,,,,1,0.717,,,,,,2018_Jun_21_1446,59.1031922097,verb_norming,001,914,
BRUSH,borsta,skrubba,putsa,2,putsa,borsta,skrubba,,,0,21,21,4,,,,,,,,,,,,,,,,,,,2,1,1.89554701427,,,2018_Jun_21_1446,59.1031922097,verb_norming,001,914,
SEIZE,fånga,klämma,fästa,3,klämma,fästa,fånga,Arm,arm,0,22,22,68,0,0,0,0,,,,,,,,,,,,,1,18.873,,,,,,2018_Jun_21_1446,59.1031922097,verb_norming,001,914,
SEIZE,fånga,klämma,fästa,3,klämma,fästa,fånga,Leg,leg,0,22,22,68,0,1,1,1,,,,,,,,,,,,,1,1.034,,,,,,2018_Jun_21_1446,59.1031922097,verb_norming,001,914,
SEIZE,fånga,klämma,fästa,3,klämma,fästa,fånga,,,0,22,22,68,,,,,,,,,,,,,,,,,,,3,1,3.18676115459,,,2018_Jun_21_1446,59.1031922097,verb_norming,001,914,
PLUCK,plocka,rensa,picka,3,picka,rensa,plocka,Arm,arm,0,23,23,50,0,0,0,0,,,,,,,,,,,,,5,4.671,,,,,,2018_Jun_21_1446,59.1031922097,verb_norming,001,914,
PLUCK,plocka,rensa,picka,3,picka,rensa,plocka,Leg,leg,0,23,23,50,0,1,1,1,,,,,,,,,,,,,1,1.304,,,,,,2018_Jun_21_1446,59.1031922097,verb_norming,001,914,
PLUCK,plocka,rensa,picka,3,picka,rensa,plocka,,,0,23,23,50,,,,,,,,,,,,,,,,,,,3,1,5.48416381665,,,2018_Jun_21_1446,59.1031922097,verb_norming,001,914,
TIPTOE,gå på tå,snava,sparka,1,gå på tå,snava,sparka,Arm,arm,0,24,24,95,0,0,0,0,,,,,,,,,,,,,1,4.032,,,,,,2018_Jun_21_1446,59.1031922097,verb_norming,001,914,
TIPTOE,gå på tå,snava,sparka,1,gå på tå,snava,sparka,Leg,leg,0,24,24,95,0,1,1,1,,,,,,,,,,,,,7,1.1,,,,,,2018_Jun_21_1446,59.1031922097,verb_norming,001,914,
TIPTOE,gå på tå,snava,sparka,1,gå på tå,snava,sparka,,,0,24,24,95,,,,,,,,,,,,,,,,,,,1,1,2.09677887108,,,2018_Jun_21_1446,59.1031922097,verb_norming,001,914,
LIMP,halta,hasa,halka,3,halka,hasa,halta,Arm,arm,0,25,25,41,0,0,0,0,,,,,,,,,,,,,1,3.38,,,,,,2018_Jun_21_1446,59.1031922097,verb_norming,001,914,
LIMP,halta,hasa,halka,3,halka,hasa,halta,Leg,leg,0,25,25,41,0,1,1,1,,,,,,,,,,,,,7,1.939,,,,,,2018_Jun_21_1446,59.1031922097,verb_norming,001,914,
LIMP,halta,hasa,halka,3,halka,hasa,halta,,,0,25,25,41,,,,,,,,,,,,,,,,,,,3,1,1.76123519148,,,2018_Jun_21_1446,59.1031922097,verb_norming,001,914,
WALK,gå,promenera,marschera,1,gå,promenera,marschera,Arm,arm,0,26,26,105,0,0,0,0,,,,,,,,,,,,,1,4.119,,,,,,2018_Jun_21_1446,59.1031922097,verb_norming,001,914,
WALK,gå,promenera,marschera,1,gå,promenera,marschera,Leg,leg,0,26,26,105,0,1,1,1,,,,,,,,,,,,,7,1.505,,,,,,2018_Jun_21_1446,59.1031922097,verb_norming,001,914,
WALK,gå,promenera,marschera,1,gå,promenera,marschera,,,0,26,26,105,,,,,,,,,,,,,,,,,,,1,1,4.64583227972,,,2018_Jun_21_1446,59.1031922097,verb_norming,001,914,
RAMBLE,ströva,strutta,spurta,3,spurta,strutta,ströva,Arm,arm,0,27,27,57,0,0,0,0,,,,,,,,,,,,,1,10.825,,,,,,2018_Jun_21_1446,59.1031922097,verb_norming,001,914,
RAMBLE,ströva,strutta,spurta,3,spurta,strutta,ströva,Leg,leg,0,27,27,57,0,1,1,1,,,,,,,,,,,,,1,0.631,,,,,,2018_Jun_21_1446,59.1031922097,verb_norming,001,914,
RAMBLE,ströva,strutta,spurta,3,spurta,strutta,ströva,,,0,27,27,57,,,,,,,,,,,,,,,,,,,3,1,12.4274722479,,,2018_Jun_21_1446,59.1031922097,verb_norming,001,914,
TWINE,tvinna,binda,knyta,1,tvinna,knyta,binda,Arm,arm,0,28,28,103,0,0,0,0,,,,,,,,,,,,,1,9.147,,,,,,2018_Jun_21_1446,59.1031922097,verb_norming,001,914,
TWINE,tvinna,binda,knyta,1,tvinna,knyta,binda,Leg,leg,0,28,28,103,0,1,1,1,,,,,,,,,,,,,1,0.497,,,,,,2018_Jun_21_1446,59.1031922097,verb_norming,001,914,
TWINE,tvinna,binda,knyta,1,tvinna,knyta,binda,,,0,28,28,103,,,,,,,,,,,,,,,,,,,2,0,22.288872356,,,2018_Jun_21_1446,59.1031922097,verb_norming,001,914,
STAMP,stampa,kliva,skutta,2,skutta,stampa,kliva,Arm,arm,0,29,29,83,0,0,0,0,,,,,,,,,,,,,1,7.152,,,,,,2018_Jun_21_1446,59.1031922097,verb_norming,001,914,
STAMP,stampa,kliva,skutta,2,skutta,stampa,kliva,Leg,leg,0,29,29,83,0,1,1,1,,,,,,,,,,,,,1,3.75,,,,,,2018_Jun_21_1446,59.1031922097,verb_norming,001,914,
STAMP,stampa,kliva,skutta,2,skutta,stampa,kliva,,,0,29,29,83,,,,,,,,,,,,,,,,,,,2,1,14.6077327482,,,2018_Jun_21_1446,59.1031922097,verb_norming,001,914,
INCH,röra sig långsamt framåt,dra sig snabbt tillbaka,hasa sig bakåt,3,hasa sig bakåt,dra sig snabbt tillbaka,röra sig långsamt framåt,Arm,arm,0,30,30,33,0,0,0,0,,,,,,,,,,,,,1,4.804,,,,,,2018_Jun_21_1446,59.1031922097,verb_norming,001,914,
INCH,röra sig långsamt framåt,dra sig snabbt tillbaka,hasa sig bakåt,3,hasa sig bakåt,dra sig snabbt tillbaka,röra sig långsamt framåt,Leg,leg,0,30,30,33,0,1,1,1,,,,,,,,,,,,,1,0.766,,,,,,2018_Jun_21_1446,59.1031922097,verb_norming,001,914,
INCH,röra sig långsamt framåt,dra sig snabbt tillbaka,hasa sig bakåt,3,hasa sig bakåt,dra sig snabbt tillbaka,röra sig långsamt framåt,,,0,30,30,33,,,,,,,,,,,,,,,,,,,3,1,7.12801543752,,,2018_Jun_21_1446,59.1031922097,verb_norming,001,914,
THROW,kasta,greppa,träffa,3,träffa,greppa,kasta,Arm,arm,0,31,31,94,0,0,0,0,,,,,,,,,,,,,7,2.523,,,,,,2018_Jun_21_1446,59.1031922097,verb_norming,001,914,
THROW,kasta,greppa,träffa,3,träffa,greppa,kasta,Leg,leg,0,31,31,94,0,1,1,1,,,,,,,,,,,,,1,1.319,,,,,,2018_Jun_21_1446,59.1031922097,verb_norming,001,914,
THROW,kasta,greppa,träffa,3,träffa,greppa,kasta,,,0,31,31,94,,,,,,,,,,,,,,,,,,,3,1,2.24844210297,,,2018_Jun_21_1446,59.1031922097,verb_norming,001,914,
SWAY,vingla,tassa,ramla,3,ramla,tassa,vingla,Arm,arm,0,32,32,92,0,0,0,0,,,,,,,,,,,,,7,15.321,,,,,,2018_Jun_21_1446,59.1031922097,verb_norming,001,914,
SWAY,vingla,tassa,ramla,3,ramla,tassa,vingla,Leg,leg,0,32,32,92,0,1,1,1,,,,,,,,,,,,,1,1.068,,,,,,2018_Jun_21_1446,59.1031922097,verb_norming,001,914,
SWAY,vingla,tassa,ramla,3,ramla,tassa,vingla,,,0,32,32,92,,,,,,,,,,,,,,,,,,,3,1,3.0526512302,,,2018_Jun_21_1446,59.1031922097,verb_norming,001,914,
SCOOP,skyffla,dika,skrapa,3,skrapa,dika,skyffla,Arm,arm,0,33,33,63,0,0,0,0,,,,,,,,,,,,,6,5.073,,,,,,2018_Jun_21_1446,59.1031922097,verb_norming,001,914,
SCOOP,skyffla,dika,skrapa,3,skrapa,dika,skyffla,Leg,leg,0,33,33,63,0,1,1,1,,,,,,,,,,,,,1,1.302,,,,,,2018_Jun_21_1446,59.1031922097,verb_norming,001,914,
SCOOP,skyffla,dika,skrapa,3,skrapa,dika,skyffla,,,0,33,33,63,,,,,,,,,,,,,,,,,,,3,1,3.13665992882,,,2018_Jun_21_1446,59.1031922097,verb_norming,001,914,
BASH,slå,knuffa,trycka,2,trycka,slå,knuffa,Arm,arm,0,34,34,0,0,0,0,0,,,,,,,,,,,,,6,3.062,,,,,,2018_Jun_21_1446,59.1031922097,verb_norming,001,914,
BASH,slå,knuffa,trycka,2,trycka,slå,knuffa,Leg,leg,0,34,34,0,0,1,1,1,,,,,,,,,,,,,1,1.421,,,,,,2018_Jun_21_1446,59.1031922097,verb_norming,001,914,
BASH,slå,knuffa,trycka,2,trycka,slå,knuffa,,,0,34,34,0,,,,,,,,,,,,,,,,,,,2,1,4.0925283369,,,2018_Jun_21_1446,59.1031922097,verb_norming,001,914,
PINCH,nypa,plocka,pensla,2,plocka,nypa,pensla,Arm,arm,0,35,35,48,0,0,0,0,,,,,,,,,,,,,7,3.093,,,,,,2018_Jun_21_1446,59.1031922097,verb_norming,001,914,
PINCH,nypa,plocka,pensla,2,plocka,nypa,pensla,Leg,leg,0,35,35,48,0,1,1,1,,,,,,,,,,,,,1,1.772,,,,,,2018_Jun_21_1446,59.1031922097,verb_norming,001,914,
PINCH,nypa,plocka,pensla,2,plocka,nypa,pensla,,,0,35,35,48,,,,,,,,,,,,,,,,,,,2,1,1.94563204076,,,2018_Jun_21_1446,59.1031922097,verb_norming,001,914,
WOBBLE,vingla,ramla,glida,1,vingla,ramla,glida,Arm,arm,0,36,36,110,0,0,0,0,,,,,,,,,,,,,4,10.724,,,,,,2018_Jun_21_1446,59.1031922097,verb_norming,001,914,
WOBBLE,vingla,ramla,glida,1,vingla,ramla,glida,Leg,leg,0,36,36,110,0,1,1,1,,,,,,,,,,,,,4,0.496,,,,,,2018_Jun_21_1446,59.1031922097,verb_norming,001,914,
WOBBLE,vingla,ramla,glida,1,vingla,ramla,glida,,,0,36,36,110,,,,,,,,,,,,,,,,,,,1,1,12.1759775675,,,2018_Jun_21_1446,59.1031922097,verb_norming,001,914,
SNATCH,rycka till sig,knuffa ifrån sig,plocka åt sig,3,knuffa ifrån sig,plocka åt sig,rycka till sig,Arm,arm,0,37,37,77,0,0,0,0,,,,,,,,,,,,,5,6.028,,,,,,2018_Jun_21_1446,59.1031922097,verb_norming,001,914,
SNATCH,rycka till sig,knuffa ifrån sig,plocka åt sig,3,knuffa ifrån sig,plocka åt sig,rycka till sig,Leg,leg,0,37,37,77,0,1,1,1,,,,,,,,,,,,,2,1.067,,,,,,2018_Jun_21_1446,59.1031922097,verb_norming,001,914,
SNATCH,rycka till sig,knuffa ifrån sig,plocka åt sig,3,knuffa ifrån sig,plocka åt sig,rycka till sig,,,0,37,37,77,,,,,,,,,,,,,,,,,,,3,1,5.23294926542,,,2018_Jun_21_1446,59.1031922097,verb_norming,001,914,
TUG,rycka,pressa,slå,3,pressa,slå,rycka,Arm,arm,0,38,38,102,0,0,0,0,,,,,,,,,,,,,4,7.004,,,,,,2018_Jun_21_1446,59.1031922097,verb_norming,001,914,
TUG,rycka,pressa,slå,3,pressa,slå,rycka,Leg,leg,0,38,38,102,0,1,1,1,,,,,,,,,,,,,4,0.65,,,,,,2018_Jun_21_1446,59.1031922097,verb_norming,001,914,
TUG,rycka,pressa,slå,3,pressa,slå,rycka,,,0,38,38,102,,,,,,,,,,,,,,,,,,,1,0,6.64160742733,,,2018_Jun_21_1446,59.1031922097,verb_norming,001,914,
MARCH,marschera,trava,traska,2,traska,marschera,trava,Arm,arm,0,39,39,42,0,0,0,0,,,,,,,,,,,,,1,3.128,,,,,,2018_Jun_21_1446,59.1031922097,verb_norming,001,914,
MARCH,marschera,trava,traska,2,traska,marschera,trava,Leg,leg,0,39,39,42,0,1,1,1,,,,,,,,,,,,,7,0.85,,,,,,2018_Jun_21_1446,59.1031922097,verb_norming,001,914,
MARCH,marschera,trava,traska,2,traska,marschera,trava,,,0,39,39,42,,,,,,,,,,,,,,,,,,,2,1,2.65012271946,,,2018_Jun_21_1446,59.1031922097,verb_norming,001,914,
WANDER,vandra,marschera,spatsera,3,spatsera,marschera,vandra,Arm,arm,0,40,40,106,0,0,0,0,,,,,,,,,,,,,1,6.061,,,,,,2018_Jun_21_1446,59.1031922097,verb_norming,001,914,
WANDER,vandra,marschera,spatsera,3,spatsera,marschera,vandra,Leg,leg,0,40,40,106,0,1,1,1,,,,,,,,,,,,,6,1.637,,,,,,2018_Jun_21_1446,59.1031922097,verb_norming,001,914,
WANDER,vandra,marschera,spatsera,3,spatsera,marschera,vandra,,,0,40,40,106,,,,,,,,,,,,,,,,,,,3,1,2.83454327501,,,2018_Jun_21_1446,59.1031922097,verb_norming,001,914,
CHOP,hacka,tälja,riva,1,hacka,tälja,riva,Arm,arm,0,41,41,7,0,0,0,0,,,,,,,,,,,,,6,3.111,,,,,,2018_Jun_21_1446,59.1031922097,verb_norming,001,914,
CHOP,hacka,tälja,riva,1,hacka,tälja,riva,Leg,leg,0,41,41,7,0,1,1,1,,,,,,,,,,,,,1,0.481,,,,,,2018_Jun_21_1446,59.1031922097,verb_norming,001,914,
CHOP,hacka,tälja,riva,1,hacka,tälja,riva,,,0,41,41,7,,,,,,,,,,,,,,,,,,,1,1,3.92472706181,,,2018_Jun_21_1446,59.1031922097,verb_norming,001,914,
SCRAPE,skrapa,rispa,klösa,2,klösa,skrapa,rispa,Arm,arm,0,42,42,64,0,0,0,0,,,,,,,,,,,,,5,12.1,,,,,,2018_Jun_21_1446,59.1031922097,verb_norming,001,914,
SCRAPE,skrapa,rispa,klösa,2,klösa,skrapa,rispa,Leg,leg,0,42,42,64,0,1,1,1,,,,,,,,,,,,,2,1.253,,,,,,2018_Jun_21_1446,59.1031922097,verb_norming,001,914,
SCRAPE,skrapa,rispa,klösa,2,klösa,skrapa,rispa,,,0,42,42,64,,,,,,,,,,,,,,,,,,,3,0,3.33774599206,,,2018_Jun_21_1446,59.1031922097,verb_norming,001,914,
SPRINT,spurta,springa,löpa,2,löpa,spurta,springa,Arm,arm,0,43,43,79,0,0,0,0,,,,,,,,,,,,,1,2.707,,,,,,2018_Jun_21_1446,59.1031922097,verb_norming,001,914,
SPRINT,spurta,springa,löpa,2,löpa,spurta,springa,Leg,leg,0,43,43,79,0,1,1,1,,,,,,,,,,,,,7,1.234,,,,,,2018_Jun_21_1446,59.1031922097,verb_norming,001,914,
SPRINT,spurta,springa,löpa,2,löpa,spurta,springa,,,0,43,43,79,,,,,,,,,,,,,,,,,,,1,0,2.64998956924,,,2018_Jun_21_1446,59.1031922097,verb_norming,001,914,
WADE,vada,pulsa,plöja,1,vada,plöja,pulsa,Arm,arm,0,44,44,104,0,0,0,0,,,,,,,,,,,,,4,6.265,,,,,,2018_Jun_21_1446,59.1031922097,verb_norming,001,914,
WADE,vada,pulsa,plöja,1,vada,plöja,pulsa,Leg,leg,0,44,44,104,0,1,1,1,,,,,,,,,,,,,4,1.119,,,,,,2018_Jun_21_1446,59.1031922097,verb_norming,001,914,
WADE,vada,pulsa,plöja,1,vada,plöja,pulsa,,,0,44,44,104,,,,,,,,,,,,,,,,,,,1,1,1.69426379389,,,2018_Jun_21_1446,59.1031922097,verb_norming,001,914,
POLISH,polera,sopa,tvätta,3,tvätta,sopa,polera,Arm,arm,0,45,45,52,0,0,0,0,,,,,,,,,,,,,6,2.891,,,,,,2018_Jun_21_1446,59.1031922097,verb_norming,001,914,
POLISH,polera,sopa,tvätta,3,tvätta,sopa,polera,Leg,leg,0,45,45,52,0,1,1,1,,,,,,,,,,,,,1,1.519,,,,,,2018_Jun_21_1446,59.1031922097,verb_norming,001,914,
POLISH,polera,sopa,tvätta,3,tvätta,sopa,polera,,,0,45,45,52,,,,,,,,,,,,,,,,,,,3,1,1.07370832438,,,2018_Jun_21_1446,59.1031922097,verb_norming,001,914,
BIND,binda,linda,vinda,1,binda,vinda,linda,Arm,arm,0,46,46,1,0,0,0,0,,,,,,,,,,,,,5,5.325,,,,,,2018_Jun_21_1446,59.1031922097,verb_norming,001,914,
BIND,binda,linda,vinda,1,binda,vinda,linda,Leg,leg,0,46,46,1,0,1,1,1,,,,,,,,,,,,,5,0.665,,,,,,2018_Jun_21_1446,59.1031922097,verb_norming,001,914,
BIND,binda,linda,vinda,1,binda,vinda,linda,,,0,46,46,1,,,,,,,,,,,,,,,,,,,1,1,1.14089979518,,,2018_Jun_21_1446,59.1031922097,verb_norming,001,914,
SHAKE,skaka,röra,vispa,2,röra,skaka,vispa,Arm,arm,0,47,47,69,0,0,0,0,,,,,,,,,,,,,6,2.693,,,,,,2018_Jun_21_1446,59.1031922097,verb_norming,001,914,
SHAKE,skaka,röra,vispa,2,röra,skaka,vispa,Leg,leg,0,47,47,69,0,1,1,1,,,,,,,,,,,,,1,2.41,,,,,,2018_Jun_21_1446,59.1031922097,verb_norming,001,914,
SHAKE,skaka,röra,vispa,2,röra,skaka,vispa,,,0,47,47,69,,,,,,,,,,,,,,,,,,,2,1,3.35449249618,,,2018_Jun_21_1446,59.1031922097,verb_norming,001,914,
LIFT,lyfta,pressa,öka,2,pressa,lyfta,öka,Arm,arm,0,48,48,40,0,0,0,0,,,,,,,,,,,,,6,4.907,,,,,,2018_Jun_21_1446,59.1031922097,verb_norming,001,914,
LIFT,lyfta,pressa,öka,2,pressa,lyfta,öka,Leg,leg,0,48,48,40,0,1,1,1,,,,,,,,,,,,,4,1.671,,,,,,2018_Jun_21_1446,59.1031922097,verb_norming,001,914,
LIFT,lyfta,pressa,öka,2,pressa,lyfta,öka,,,0,48,48,40,,,,,,,,,,,,,,,,,,,2,1,1.39347034504,,,2018_Jun_21_1446,59.1031922097,verb_norming,001,914,
PUSH,knuffa,kasta,klämma,1,knuffa,klämma,kasta,Arm,arm,0,49,49,56,0,0,0,0,,,,,,,,,,,,,7,2.928,,,,,,2018_Jun_21_1446,59.1031922097,verb_norming,001,914,
PUSH,knuffa,kasta,klämma,1,knuffa,klämma,kasta,Leg,leg,0,49,49,56,0,1,1,1,,,,,,,,,,,,,5,2.143,,,,,,2018_Jun_21_1446,59.1031922097,verb_norming,001,914,
PUSH,knuffa,kasta,klämma,1,knuffa,klämma,kasta,,,0,49,49,56,,,,,,,,,,,,,,,,,,,1,1,4.61232109668,,,2018_Jun_21_1446,59.1031922097,verb_norming,001,914,
GRATE,riva,hugga,rispa,3,hugga,rispa,riva,Arm,arm,0,50,50,28,0,0,0,0,,,,,,,,,,,,,1,19.681,,,,,,2018_Jun_21_1446,59.1031922097,verb_norming,001,914,
GRATE,riva,hugga,rispa,3,hugga,rispa,riva,Leg,leg,0,50,50,28,0,1,1,1,,,,,,,,,,,,,1,0.716,,,,,,2018_Jun_21_1446,59.1031922097,verb_norming,001,914,
GRATE,riva,hugga,rispa,3,hugga,rispa,riva,,,0,50,50,28,,,,,,,,,,,,,,,,,,,2,0,2.81780151214,,,2018_Jun_21_1446,59.1031922097,verb_norming,001,914,
STAGGER,ragla,lunka,halka,1,ragla,halka,lunka,Arm,arm,0,51,51,82,0,0,0,0,,,,,,,,,,,,,5,8.377,,,,,,2018_Jun_21_1446,59.1031922097,verb_norming,001,914,
STAGGER,ragla,lunka,halka,1,ragla,halka,lunka,Leg,leg,0,51,51,82,0,1,1,1,,,,,,,,,,,,,3,1.47,,,,,,2018_Jun_21_1446,59.1031922097,verb_norming,001,914,
STAGGER,ragla,lunka,halka,1,ragla,halka,lunka,,,0,51,51,82,,,,,,,,,,,,,,,,,,,3,0,8.6204756584,,,2018_Jun_21_1446,59.1031922097,verb_norming,001,914,
PACE,gå fram och tillbaka,luffa runt,rusa fram,3,rusa fram,luffa runt,gå fram och tillbaka,Arm,arm,0,52,52,45,0,0,0,0,,,,,,,,,,,,,2,5.276,,,,,,2018_Jun_21_1446,59.1031922097,verb_norming,001,914,
PACE,gå fram och tillbaka,luffa runt,rusa fram,3,rusa fram,luffa runt,gå fram och tillbaka,Leg,leg,0,52,52,45,0,1,1,1,,,,,,,,,,,,,5,1.069,,,,,,2018_Jun_21_1446,59.1031922097,verb_norming,001,914,
PACE,gå fram och tillbaka,luffa runt,rusa fram,3,rusa fram,luffa runt,gå fram och tillbaka,,,0,52,52,45,,,,,,,,,,,,,,,,,,,3,1,3.40485449092,,,2018_Jun_21_1446,59.1031922097,verb_norming,001,914,
SKIP,hoppa,kliva,strutta,1,hoppa,strutta,kliva,Arm,arm,0,53,53,72,0,0,0,0,,,,,,,,,,,,,1,10.708,,,,,,2018_Jun_21_1446,59.1031922097,verb_norming,001,914,
SKIP,hoppa,kliva,strutta,1,hoppa,strutta,kliva,Leg,leg,0,53,53,72,0,1,1,1,,,,,,,,,,,,,1,0.499,,,,,,2018_Jun_21_1446,59.1031922097,verb_norming,001,914,
SKIP,hoppa,kliva,strutta,1,hoppa,strutta,kliva,,,0,53,53,72,,,,,,,,,,,,,,,,,,,1,1,11.9410219615,,,2018_Jun_21_1446,59.1031922097,verb_norming,001,914,
FOLD,vika ihop,knyta ihop,bunta ihop,2,knyta ihop,vika ihop,bunta ihop,Arm,arm,0,54,54,24,0,0,0,0,,,,,,,,,,,,,4,16.863,,,,,,2018_Jun_21_1446,59.1031922097,verb_norming,001,914,
FOLD,vika ihop,knyta ihop,bunta ihop,2,knyta ihop,vika ihop,bunta ihop,Leg,leg,0,54,54,24,0,1,1,1,,,,,,,,,,,,,4,0.447,,,,,,2018_Jun_21_1446,59.1031922097,verb_norming,001,914,
FOLD,vika ihop,knyta ihop,bunta ihop,2,knyta ihop,vika ihop,bunta ihop,,,0,54,54,24,,,,,,,,,,,,,,,,,,,2,1,4.74654481117,,,2018_Jun_21_1446,59.1031922097,verb_norming,001,914,
STOMP,stampa,stiga,kliva,1,stampa,kliva,stiga,Arm,arm,0,55,55,86,0,0,0,0,,,,,,,,,,,,,2,10.657,,,,,,2018_Jun_21_1446,59.1031922097,verb_norming,001,914,
STOMP,stampa,stiga,kliva,1,stampa,kliva,stiga,Leg,leg,0,55,55,86,0,1,1,1,,,,,,,,,,,,,7,1.235,,,,,,2018_Jun_21_1446,59.1031922097,verb_norming,001,914,
STOMP,stampa,stiga,kliva,1,stampa,kliva,stiga,,,0,55,55,86,,,,,,,,,,,,,,,,,,,1,1,2.26421585981,,,2018_Jun_21_1446,59.1031922097,verb_norming,001,914,
BOUNCE,studsa,dunka,kasta,2,dunka,studsa,kasta,Arm,arm,0,56,56,2,0,0,0,0,,,,,,,,,,,,,4,2.371,,,,,,2018_Jun_21_1446,59.1031922097,verb_norming,001,914,
BOUNCE,studsa,dunka,kasta,2,dunka,studsa,kasta,Leg,leg,0,56,56,2,0,1,1,1,,,,,,,,,,,,,6,1.116,,,,,,2018_Jun_21_1446,59.1031922097,verb_norming,001,914,
BOUNCE,studsa,dunka,kasta,2,dunka,studsa,kasta,,,0,56,56,2,,,,,,,,,,,,,,,,,,,2,1,1.89551935696,,,2018_Jun_21_1446,59.1031922097,verb_norming,001,914,
STRAY,ströva,vandra,promenera,3,vandra,promenera,ströva,Arm,arm,0,57,57,87,0,0,0,0,,,,,,,,,,,,,5,27.933,,,,,,2018_Jun_21_1446,59.1031922097,verb_norming,001,914,
STRAY,ströva,vandra,promenera,3,vandra,promenera,ströva,Leg,leg,0,57,57,87,0,1,1,1,,,,,,,,,,,,,2,1.203,,,,,,2018_Jun_21_1446,59.1031922097,verb_norming,001,914,
STRAY,ströva,vandra,promenera,3,vandra,promenera,ströva,,,0,57,57,87,,,,,,,,,,,,,,,,,,,3,1,2.88502577662,,,2018_Jun_21_1446,59.1031922097,verb_norming,001,914,
PUNCH,slå,knuffa,kasta,2,knuffa,slå,kasta,Arm,arm,0,58,58,55,0,0,0,0,,,,,,,,,,,,,7,2.272,,,,,,2018_Jun_21_1446,59.1031922097,verb_norming,001,914,
PUNCH,slå,knuffa,kasta,2,knuffa,slå,kasta,Leg,leg,0,58,58,55,0,1,1,1,,,,,,,,,,,,,1,1.268,,,,,,2018_Jun_21_1446,59.1031922097,verb_norming,001,914,
PUNCH,slå,knuffa,kasta,2,knuffa,slå,kasta,,,0,58,58,55,,,,,,,,,,,,,,,,,,,2,1,2.58315961906,,,2018_Jun_21_1446,59.1031922097,verb_norming,001,914,
CRAWL,kravla,huka,klättra,3,huka,klättra,kravla,Arm,arm,0,59,59,14,0,0,0,0,,,,,,,,,,,,,3,4.521,,,,,,2018_Jun_21_1446,59.1031922097,verb_norming,001,914,
CRAWL,kravla,huka,klättra,3,huka,klättra,kravla,Leg,leg,0,59,59,14,0,1,1,1,,,,,,,,,,,,,5,1.299,,,,,,2018_Jun_21_1446,59.1031922097,verb_norming,001,914,
CRAWL,kravla,huka,klättra,3,huka,klättra,kravla,,,0,59,59,14,,,,,,,,,,,,,,,,,,,3,1,3.06942420631,,,2018_Jun_21_1446,59.1031922097,verb_norming,001,914,
TREAD,trampa,stampa,klampa,2,stampa,trampa,klampa,Arm,arm,0,60,60,98,0,0,0,0,,,,,,,,,,,,,2,4.638,,,,,,2018_Jun_21_1446,59.1031922097,verb_norming,001,914,
TREAD,trampa,stampa,klampa,2,stampa,trampa,klampa,Leg,leg,0,60,60,98,0,1,1,1,,,,,,,,,,,,,5,1.287,,,,,,2018_Jun_21_1446,59.1031922097,verb_norming,001,914,
TREAD,trampa,stampa,klampa,2,stampa,trampa,klampa,,,0,60,60,98,,,,,,,,,,,,,,,,,,,2,1,5.41734295386,,,2018_Jun_21_1446,59.1031922097,verb_norming,001,914,
CUT,skära,sticka,spetsa,2,sticka,skära,spetsa,Arm,arm,0,61,61,16,0,0,0,0,,,,,,,,,,,,,5,3.163,,,,,,2018_Jun_21_1446,59.1031922097,verb_norming,001,914,
CUT,skära,sticka,spetsa,2,sticka,skära,spetsa,Leg,leg,0,61,61,16,0,1,1,1,,,,,,,,,,,,,1,2.143,,,,,,2018_Jun_21_1446,59.1031922097,verb_norming,001,914,
CUT,skära,sticka,spetsa,2,sticka,skära,spetsa,,,0,61,61,16,,,,,,,,,,,,,,,,,,,2,1,4.37749073875,,,2018_Jun_21_1446,59.1031922097,verb_norming,001,914,
SCRUB,skrubba,sopa,skrapa,3,skrapa,sopa,skrubba,Arm,arm,0,62,62,66,0,0,0,0,,,,,,,,,,,,,6,17.904,,,,,,2018_Jun_21_1446,59.1031922097,verb_norming,001,914,
SCRUB,skrubba,sopa,skrapa,3,skrapa,sopa,skrubba,Leg,leg,0,62,62,66,0,1,1,1,,,,,,,,,,,,,1,0.85,,,,,,2018_Jun_21_1446,59.1031922097,verb_norming,001,914,
SCRUB,skrubba,sopa,skrapa,3,skrapa,sopa,skrubba,,,0,62,62,66,,,,,,,,,,,,,,,,,,,3,1,1.82832946658,,,2018_Jun_21_1446,59.1031922097,verb_norming,001,914,
SQUEEZE,klämma,knuffa,knäppa,1,klämma,knäppa,knuffa,Arm,arm,0,63,63,80,0,0,0,0,,,,,,,,,,,,,6,3.894,,,,,,2018_Jun_21_1446,59.1031922097,verb_norming,001,914,
SQUEEZE,klämma,knuffa,knäppa,1,klämma,knäppa,knuffa,Leg,leg,0,63,63,80,0,1,1,1,,,,,,,,,,,,,5,2.104,,,,,,2018_Jun_21_1446,59.1031922097,verb_norming,001,914,
SQUEEZE,klämma,knuffa,knäppa,1,klämma,knäppa,knuffa,,,0,63,63,80,,,,,,,,,,,,,,,,,,,1,1,3.11981899473,,,2018_Jun_21_1446,59.1031922097,verb_norming,001,914,
HOP,skutta,kliva,studsa,2,studsa,skutta,kliva,Arm,arm,0,64,64,32,0,0,0,0,,,,,,,,,,,,,1,2.525,,,,,,2018_Jun_21_1446,59.1031922097,verb_norming,001,914,
HOP,skutta,kliva,studsa,2,studsa,skutta,kliva,Leg,leg,0,64,64,32,0,1,1,1,,,,,,,,,,,,,6,0.766,,,,,,2018_Jun_21_1446,59.1031922097,verb_norming,001,914,
HOP,skutta,kliva,studsa,2,studsa,skutta,kliva,,,0,64,64,32,,,,,,,,,,,,,,,,,,,2,1,3.40477309939,,,2018_Jun_21_1446,59.1031922097,verb_norming,001,914,
SLIDE,glida,ramla,hasa,2,ramla,glida,hasa,Arm,arm,0,65,65,74,0,0,0,0,,,,,,,,,,,,,1,8.344,,,,,,2018_Jun_21_1446,59.1031922097,verb_norming,001,914,
SLIDE,glida,ramla,hasa,2,ramla,glida,hasa,Leg,leg,0,65,65,74,0,1,1,1,,,,,,,,,,,,,1,7.609,,,,,,2018_Jun_21_1446,59.1031922097,verb_norming,001,914,
SLIDE,glida,ramla,hasa,2,ramla,glida,hasa,,,0,65,65,74,,,,,,,,,,,,,,,,,,,1,0,10.7671538569,,,2018_Jun_21_1446,59.1031922097,verb_norming,001,914,
POKE,peta,trycka,knuffa,3,knuffa,trycka,peta,Arm,arm,0,66,66,51,0,0,0,0,,,,,,,,,,,,,7,2.656,,,,,,2018_Jun_21_1446,59.1031922097,verb_norming,001,914,
POKE,peta,trycka,knuffa,3,knuffa,trycka,peta,Leg,leg,0,66,66,51,0,1,1,1,,,,,,,,,,,,,1,0.632,,,,,,2018_Jun_21_1446,59.1031922097,verb_norming,001,914,
POKE,peta,trycka,knuffa,3,knuffa,trycka,peta,,,0,66,66,51,,,,,,,,,,,,,,,,,,,3,1,1.42584402223,,,2018_Jun_21_1446,59.1031922097,verb_norming,001,914,
TRAIPSE,traska,stappla,vandra,2,vandra,traska,stappla,Arm,arm,0,67,67,97,0,0,0,0,,,,,,,,,,,,,4,3.128,,,,,,2018_Jun_21_1446,59.1031922097,verb_norming,001,914,
TRAIPSE,traska,stappla,vandra,2,vandra,traska,stappla,Leg,leg,0,67,67,97,0,1,1,1,,,,,,,,,,,,,4,0.883,,,,,,2018_Jun_21_1446,59.1031922097,verb_norming,001,914,
TRAIPSE,traska,stappla,vandra,2,vandra,traska,stappla,,,0,67,67,97,,,,,,,,,,,,,,,,,,,3,0,3.99173876007,,,2018_Jun_21_1446,59.1031922097,verb_norming,001,914,
ROAM,ströva omkring,ta sig fram,luffa runt,2,luffa runt,ströva omkring,ta sig fram,Arm,arm,0,68,68,58,0,0,0,0,,,,,,,,,,,,,1,7.152,,,,,,2018_Jun_21_1446,59.1031922097,verb_norming,001,914,
ROAM,ströva omkring,ta sig fram,luffa runt,2,luffa runt,ströva omkring,ta sig fram,Leg,leg,0,68,68,58,0,1,1,1,,,,,,,,,,,,,6,0.68,,,,,,2018_Jun_21_1446,59.1031922097,verb_norming,001,914,
ROAM,ströva omkring,ta sig fram,luffa runt,2,luffa runt,ströva omkring,ta sig fram,,,0,68,68,58,,,,,,,,,,,,,,,,,,,3,0,4.20975860696,,,2018_Jun_21_1446,59.1031922097,verb_norming,001,914,
FLEE,fly,lyfta,flyga,1,fly,lyfta,flyga,Arm,arm,0,69,69,22,0,0,0,0,,,,,,,,,,,,,1,6.014,,,,,,2018_Jun_21_1446,59.1031922097,verb_norming,001,914,
FLEE,fly,lyfta,flyga,1,fly,lyfta,flyga,Leg,leg,0,69,69,22,0,1,1,1,,,,,,,,,,,,,1,1.136,,,,,,2018_Jun_21_1446,59.1031922097,verb_norming,001,914,
FLEE,fly,lyfta,flyga,1,fly,lyfta,flyga,,,0,69,69,22,,,,,,,,,,,,,,,,,,,1,1,1.44254153338,,,2018_Jun_21_1446,59.1031922097,verb_norming,001,914,
SKATE,åka skridskor,åka skidor,åka kälke,2,åka skidor,åka skridskor,åka kälke,Arm,arm,0,70,70,70,0,0,0,0,,,,,,,,,,,,,3,3.967,,,,,,2018_Jun_21_1446,59.1031922097,verb_norming,001,914,
SKATE,åka skridskor,åka skidor,åka kälke,2,åka skidor,åka skridskor,åka kälke,Leg,leg,0,70,70,70,0,1,1,1,,,,,,,,,,,,,6,1.706,,,,,,2018_Jun_21_1446,59.1031922097,verb_norming,001,914,
SKATE,åka skridskor,åka skidor,åka kälke,2,åka skidor,åka skridskor,åka kälke,,,0,70,70,70,,,,,,,,,,,,,,,,,,,2,1,5.55150700757,,,2018_Jun_21_1446,59.1031922097,verb_norming,001,914,
RUN,springa,rusa,jogga,3,jogga,rusa,springa,Arm,arm,0,71,71,61,0,0,0,0,,,,,,,,,,,,,1,2.758,,,,,,2018_Jun_21_1446,59.1031922097,verb_norming,001,914,
RUN,springa,rusa,jogga,3,jogga,rusa,springa,Leg,leg,0,71,71,61,0,1,1,1,,,,,,,,,,,,,7,0.414,,,,,,2018_Jun_21_1446,59.1031922097,verb_norming,001,914,
RUN,springa,rusa,jogga,3,jogga,rusa,springa,,,0,71,71,61,,,,,,,,,,,,,,,,,,,3,1,2.43221745287,,,2018_Jun_21_1446,59.1031922097,verb_norming,001,914,
CLIMB,klättra,kliva,krypa,1,klättra,kliva,krypa,Arm,arm,0,72,72,12,0,0,0,0,,,,,,,,,,,,,5,2.842,,,,,,2018_Jun_21_1446,59.1031922097,verb_norming,001,914,
CLIMB,klättra,kliva,krypa,1,klättra,kliva,krypa,Leg,leg,0,72,72,12,0,1,1,1,,,,,,,,,,,,,6,2.071,,,,,,2018_Jun_21_1446,59.1031922097,verb_norming,001,914,
CLIMB,klättra,kliva,krypa,1,klättra,kliva,krypa,,,0,72,72,12,,,,,,,,,,,,,,,,,,,1,1,0.671298740091,,,2018_Jun_21_1446,59.1031922097,verb_norming,001,914,
TRUDGE,släpa sig fram,kasta sig fram,ta sig fram,3,kasta sig fram,ta sig fram,släpa sig fram,Arm,arm,0,73,73,101,0,0,0,0,,,,,,,,,,,,,3,5.459,,,,,,2018_Jun_21_1446,59.1031922097,verb_norming,001,914,
TRUDGE,släpa sig fram,kasta sig fram,ta sig fram,3,kasta sig fram,ta sig fram,släpa sig fram,Leg,leg,0,73,73,101,0,1,1,1,,,,,,,,,,,,,3,0.616,,,,,,2018_Jun_21_1446,59.1031922097,verb_norming,001,914,
TRUDGE,släpa sig fram,kasta sig fram,ta sig fram,3,kasta sig fram,ta sig fram,släpa sig fram,,,0,73,73,101,,,,,,,,,,,,,,,,,,,3,1,3.11983716953,,,2018_Jun_21_1446,59.1031922097,verb_norming,001,914,
DUNK,dunka,dumpa,dunsa,3,dunsa,dumpa,dunka,Arm,arm,0,74,74,20,0,0,0,0,,,,,,,,,,,,,6,2.893,,,,,,2018_Jun_21_1446,59.1031922097,verb_norming,001,914,
DUNK,dunka,dumpa,dunsa,3,dunsa,dumpa,dunka,Leg,leg,0,74,74,20,0,1,1,1,,,,,,,,,,,,,6,0.867,,,,,,2018_Jun_21_1446,59.1031922097,verb_norming,001,914,
DUNK,dunka,dumpa,dunsa,3,dunsa,dumpa,dunka,,,0,74,74,20,,,,,,,,,,,,,,,,,,,3,1,1.47630755882,,,2018_Jun_21_1446,59.1031922097,verb_norming,001,914,
SNEAK,smyga,hasa,glida,1,smyga,hasa,glida,Arm,arm,0,75,75,78,0,0,0,0,,,,,,,,,,,,,2,3.312,,,,,,2018_Jun_21_1446,59.1031922097,verb_norming,001,914,
SNEAK,smyga,hasa,glida,1,smyga,hasa,glida,Leg,leg,0,75,75,78,0,1,1,1,,,,,,,,,,,,,5,1.101,,,,,,2018_Jun_21_1446,59.1031922097,verb_norming,001,914,
SNEAK,smyga,hasa,glida,1,smyga,hasa,glida,,,0,75,75,78,,,,,,,,,,,,,,,,,,,1,1,1.19102196149,,,2018_Jun_21_1446,59.1031922097,verb_norming,001,914,
DIG,gräva,dränera,dika,3,dika,dränera,gräva,Arm,arm,0,76,76,19,0,0,0,0,,,,,,,,,,,,,7,2.56,,,,,,2018_Jun_21_1446,59.1031922097,verb_norming,001,914,
DIG,gräva,dränera,dika,3,dika,dränera,gräva,Leg,leg,0,76,76,19,0,1,1,1,,,,,,,,,,,,,2,1.153,,,,,,2018_Jun_21_1446,59.1031922097,verb_norming,001,914,
DIG,gräva,dränera,dika,3,dika,dränera,gräva,,,0,76,76,19,,,,,,,,,,,,,,,,,,,3,1,1.61025944142,,,2018_Jun_21_1446,59.1031922097,verb_norming,001,914,
PULL,dra,slänga,släpa,1,dra,släpa,slänga,Arm,arm,0,77,77,54,0,0,0,0,,,,,,,,,,,,,7,2.492,,,,,,2018_Jun_21_1446,59.1031922097,verb_norming,001,914,
PULL,dra,slänga,släpa,1,dra,släpa,slänga,Leg,leg,0,77,77,54,0,1,1,1,,,,,,,,,,,,,7,1.002,,,,,,2018_Jun_21_1446,59.1031922097,verb_norming,001,914,
PULL,dra,slänga,släpa,1,dra,släpa,slänga,,,0,77,77,54,,,,,,,,,,,,,,,,,,,1,1,4.47801796619,,,2018_Jun_21_1446,59.1031922097,verb_norming,001,914,
PAT,klappa,slå,borsta,2,borsta,klappa,slå,Arm,arm,0,78,78,46,0,0,0,0,,,,,,,,,,,,,5,5.914,,,,,,2018_Jun_21_1446,59.1031922097,verb_norming,001,914,
PAT,klappa,slå,borsta,2,borsta,klappa,slå,Leg,leg,0,78,78,46,0,1,1,1,,,,,,,,,,,,,1,1.019,,,,,,2018_Jun_21_1446,59.1031922097,verb_norming,001,914,
PAT,klappa,slå,borsta,2,borsta,klappa,slå,,,0,78,78,46,,,,,,,,,,,,,,,,,,,2,1,1.79491350372,,,2018_Jun_21_1446,59.1031922097,verb_norming,001,914,
STIR,röra,sleva,vispa,1,röra,sleva,vispa,Arm,arm,0,79,79,85,0,0,0,0,,,,,,,,,,,,,5,7.0,,,,,,2018_Jun_21_1446,59.1031922097,verb_norming,001,914,
STIR,röra,sleva,vispa,1,röra,sleva,vispa,Leg,leg,0,79,79,85,0,1,1,1,,,,,,,,,,,,,1,0.516,,,,,,2018_Jun_21_1446,59.1031922097,verb_norming,001,914,
STIR,röra,sleva,vispa,1,röra,sleva,vispa,,,0,79,79,85,,,,,,,,,,,,,,,,,,,1,1,2.39863159508,,,2018_Jun_21_1446,59.1031922097,verb_norming,001,914,
RUSH,rusa,springa,löpa,3,löpa,springa,rusa,Arm,arm,0,80,80,62,0,0,0,0,,,,,,,,,,,,,1,6.869,,,,,,2018_Jun_21_1446,59.1031922097,verb_norming,001,914,
RUSH,rusa,springa,löpa,3,löpa,springa,rusa,Leg,leg,0,80,80,62,0,1,1,1,,,,,,,,,,,,,6,0.969,,,,,,2018_Jun_21_1446,59.1031922097,verb_norming,001,914,
RUSH,rusa,springa,löpa,3,löpa,springa,rusa,,,0,80,80,62,,,,,,,,,,,,,,,,,,,3,1,3.57264233244,,,2018_Jun_21_1446,59.1031922097,verb_norming,001,914,
SCRATCH,repa,riva,klösa,3,riva,klösa,repa,Arm,arm,0,81,81,65,0,0,0,0,,,,,,,,,,,,,7,2.691,,,,,,2018_Jun_21_1446,59.1031922097,verb_norming,001,914,
SCRATCH,repa,riva,klösa,3,riva,klösa,repa,Leg,leg,0,81,81,65,0,1,1,1,,,,,,,,,,,,,3,3.08,,,,,,2018_Jun_21_1446,59.1031922097,verb_norming,001,914,
SCRATCH,repa,riva,klösa,3,riva,klösa,repa,,,0,81,81,65,,,,,,,,,,,,,,,,,,,1,0,4.39442254687,,,2018_Jun_21_1446,59.1031922097,verb_norming,001,914,
STRUT,svassa,lunka,strosa,1,svassa,strosa,lunka,Arm,arm,0,82,82,90,0,0,0,0,,,,,,,,,,,,,1,4.688,,,,,,2018_Jun_21_1446,59.1031922097,verb_norming,001,914,
STRUT,svassa,lunka,strosa,1,svassa,strosa,lunka,Leg,leg,0,82,82,90,0,1,1,1,,,,,,,,,,,,,5,0.834,,,,,,2018_Jun_21_1446,59.1031922097,verb_norming,001,914,
STRUT,svassa,lunka,strosa,1,svassa,strosa,lunka,,,0,82,82,90,,,,,,,,,,,,,,,,,,,2,0,2.29783767211,,,2018_Jun_21_1446,59.1031922097,verb_norming,001,914,
TROT,trava,promenera,flanera,3,promenera,flanera,trava,Arm,arm,0,83,83,100,0,0,0,0,,,,,,,,,,,,,1,4.0,,,,,,2018_Jun_21_1446,59.1031922097,verb_norming,001,914,
TROT,trava,promenera,flanera,3,promenera,flanera,trava,Leg,leg,0,83,83,100,0,1,1,1,,,,,,,,,,,,,5,0.699,,,,,,2018_Jun_21_1446,59.1031922097,verb_norming,001,914,
TROT,trava,promenera,flanera,3,promenera,flanera,trava,,,0,83,83,100,,,,,,,,,,,,,,,,,,,3,1,3.74033376848,,,2018_Jun_21_1446,59.1031922097,verb_norming,001,914,
GRIP,gripa om,hålla om,kasta om,2,hålla om,gripa om,kasta om,Arm,arm,0,84,84,29,0,0,0,0,,,,,,,,,,,,,7,1.905,,,,,,2018_Jun_21_1446,59.1031922097,verb_norming,001,914,
GRIP,gripa om,hålla om,kasta om,2,hålla om,gripa om,kasta om,Leg,leg,0,84,84,29,0,1,1,1,,,,,,,,,,,,,7,2.394,,,,,,2018_Jun_21_1446,59.1031922097,verb_norming,001,914,
GRIP,gripa om,hålla om,kasta om,2,hålla om,gripa om,kasta om,,,0,84,84,29,,,,,,,,,,,,,,,,,,,2,1,1.42558167284,,,2018_Jun_21_1446,59.1031922097,verb_norming,001,914,
STRIDE,kliva,tassa,lunka,2,tassa,kliva,lunka,Arm,arm,0,85,85,88,0,0,0,0,,,,,,,,,,,,,1,4.587,,,,,,2018_Jun_21_1446,59.1031922097,verb_norming,001,914,
STRIDE,kliva,tassa,lunka,2,tassa,kliva,lunka,Leg,leg,0,85,85,88,0,1,1,1,,,,,,,,,,,,,5,0.599,,,,,,2018_Jun_21_1446,59.1031922097,verb_norming,001,914,
STRIDE,kliva,tassa,lunka,2,tassa,kliva,lunka,,,0,85,85,88,,,,,,,,,,,,,,,,,,,3,0,1.97917996852,,,2018_Jun_21_1446,59.1031922097,verb_norming,001,914,
STAB,sticka,hacka,skära,3,hacka,skära,sticka,Arm,arm,0,86,86,81,0,0,0,0,,,,,,,,,,,,,7,2.408,,,,,,2018_Jun_21_1446,59.1031922097,verb_norming,001,914,
STAB,sticka,hacka,skära,3,hacka,skära,sticka,Leg,leg,0,86,86,81,0,1,1,1,,,,,,,,,,,,,1,0.667,,,,,,2018_Jun_21_1446,59.1031922097,verb_norming,001,914,
STAB,sticka,hacka,skära,3,hacka,skära,sticka,,,0,86,86,81,,,,,,,,,,,,,,,,,,,3,1,1.62719915163,,,2018_Jun_21_1446,59.1031922097,verb_norming,001,914,
SWITCH,slå på/av,knäppa,nypa,1,slå på/av,knäppa,nypa,Arm,arm,0,87,87,93,0,0,0,0,,,,,,,,,,,,,1,4.922,,,,,,2018_Jun_21_1446,59.1031922097,verb_norming,001,914,
SWITCH,slå på/av,knäppa,nypa,1,slå på/av,knäppa,nypa,Leg,leg,0,87,87,93,0,1,1,1,,,,,,,,,,,,,1,1.362,,,,,,2018_Jun_21_1446,59.1031922097,verb_norming,001,914,
SWITCH,slå på/av,knäppa,nypa,1,slå på/av,knäppa,nypa,,,0,87,87,93,,,,,,,,,,,,,,,,,,,1,1,14.3394575847,,,2018_Jun_21_1446,59.1031922097,verb_norming,001,914,
SLIP,halka,snava,ramla,3,snava,ramla,halka,Arm,arm,0,88,88,75,0,0,0,0,,,,,,,,,,,,,3,7.221,,,,,,2018_Jun_21_1446,59.1031922097,verb_norming,001,914,
SLIP,halka,snava,ramla,3,snava,ramla,halka,Leg,leg,0,88,88,75,0,1,1,1,,,,,,,,,,,,,5,1.27,,,,,,2018_Jun_21_1446,59.1031922097,verb_norming,001,914,
SLIP,halka,snava,ramla,3,snava,ramla,halka,,,0,88,88,75,,,,,,,,,,,,,,,,,,,3,1,1.84521386216,,,2018_Jun_21_1446,59.1031922097,verb_norming,001,914,
WASH,tvätta,skura,sopa,1,tvätta,skura,sopa,Arm,arm,0,89,89,107,0,0,0,0,,,,,,,,,,,,,6,2.408,,,,,,2018_Jun_21_1446,59.1031922097,verb_norming,001,914,
WASH,tvätta,skura,sopa,1,tvätta,skura,sopa,Leg,leg,0,89,89,107,0,1,1,1,,,,,,,,,,,,,2,1.841,,,,,,2018_Jun_21_1446,59.1031922097,verb_norming,001,914,
WASH,tvätta,skura,sopa,1,tvätta,skura,sopa,,,0,89,89,107,,,,,,,,,,,,,,,,,,,1,1,2.54947221941,,,2018_Jun_21_1446,59.1031922097,verb_norming,001,914,
SCUFF,hasa sig fram,dra sig fram,kasta sig fram,3,kasta sig fram,dra sig fram,hasa sig fram,Arm,arm,0,90,90,67,0,0,0,0,,,,,,,,,,,,,4,4.554,,,,,,2018_Jun_21_1446,59.1031922097,verb_norming,001,914,
SCUFF,hasa sig fram,dra sig fram,kasta sig fram,3,kasta sig fram,dra sig fram,hasa sig fram,Leg,leg,0,90,90,67,0,1,1,1,,,,,,,,,,,,,4,0.432,,,,,,2018_Jun_21_1446,59.1031922097,verb_norming,001,914,
SCUFF,hasa sig fram,dra sig fram,kasta sig fram,3,kasta sig fram,dra sig fram,hasa sig fram,,,0,90,90,67,,,,,,,,,,,,,,,,,,,2,0,8.10083224811,,,2018_Jun_21_1446,59.1031922097,verb_norming,001,914,
SKIM,skumma,vispa,sleva,1,skumma,sleva,vispa,Arm,arm,0,91,91,71,0,0,0,0,,,,,,,,,,,,,4,4.771,,,,,,2018_Jun_21_1446,59.1031922097,verb_norming,001,914,
SKIM,skumma,vispa,sleva,1,skumma,sleva,vispa,Leg,leg,0,91,91,71,0,1,1,1,,,,,,,,,,,,,1,1.89,,,,,,2018_Jun_21_1446,59.1031922097,verb_norming,001,914,
SKIM,skumma,vispa,sleva,1,skumma,sleva,vispa,,,0,91,91,71,,,,,,,,,,,,,,,,,,,1,1,2.66709601355,,,2018_Jun_21_1446,59.1031922097,verb_norming,001,914,
PEEL,skala,rensa,plocka,1,skala,rensa,plocka,Arm,arm,0,92,92,47,0,0,0,0,,,,,,,,,,,,,6,3.616,,,,,,2018_Jun_21_1446,59.1031922097,verb_norming,001,914,
PEEL,skala,rensa,plocka,1,skala,rensa,plocka,Leg,leg,0,92,92,47,0,1,1,1,,,,,,,,,,,,,1,1.656,,,,,,2018_Jun_21_1446,59.1031922097,verb_norming,001,914,
PEEL,skala,rensa,plocka,1,skala,rensa,plocka,,,0,92,92,47,,,,,,,,,,,,,,,,,,,1,1,0.838858606324,,,2018_Jun_21_1446,59.1031922097,verb_norming,001,914,
CLAW,klösa,nypa,rispa,2,nypa,klösa,rispa,Arm,arm,0,93,93,9,0,0,0,0,,,,,,,,,,,,,6,2.576,,,,,,2018_Jun_21_1446,59.1031922097,verb_norming,001,914,
CLAW,klösa,nypa,rispa,2,nypa,klösa,rispa,Leg,leg,0,93,93,9,0,1,1,1,,,,,,,,,,,,,2,2.495,,,,,,2018_Jun_21_1446,59.1031922097,verb_norming,001,914,
CLAW,klösa,nypa,rispa,2,nypa,klösa,rispa,,,0,93,93,9,,,,,,,,,,,,,,,,,,,2,1,3.67315138508,,,2018_Jun_21_1446,59.1031922097,verb_norming,001,914,
FILE,fila,putsa,riva,1,fila,riva,putsa,Arm,arm,0,94,94,21,0,0,0,0,,,,,,,,,,,,,6,4.152,,,,,,2018_Jun_21_1446,59.1031922097,verb_norming,001,914,
FILE,fila,putsa,riva,1,fila,riva,putsa,Leg,leg,0,94,94,21,0,1,1,1,,,,,,,,,,,,,1,0.733,,,,,,2018_Jun_21_1446,59.1031922097,verb_norming,001,914,
FILE,fila,putsa,riva,1,fila,riva,putsa,,,0,94,94,21,,,,,,,,,,,,,,,,,,,1,1,4.76310285044,,,2018_Jun_21_1446,59.1031922097,verb_norming,001,914,
KNEEL,knäböja,krypa,kräla,3,kräla,krypa,knäböja,Arm,arm,0,95,95,37,0,0,0,0,,,,,,,,,,,,,1,3.244,,,,,,2018_Jun_21_1446,59.1031922097,verb_norming,001,914,
KNEEL,knäböja,krypa,kräla,3,kräla,krypa,knäböja,Leg,leg,0,95,95,37,0,1,1,1,,,,,,,,,,,,,7,0.816,,,,,,2018_Jun_21_1446,59.1031922097,verb_norming,001,914,
KNEEL,knäböja,krypa,kräla,3,kräla,krypa,knäböja,,,0,95,95,37,,,,,,,,,,,,,,,,,,,3,1,2.44890548152,,,2018_Jun_21_1446,59.1031922097,verb_norming,001,914,
LEAP,hoppa,stega,kliva,2,kliva,hoppa,stega,Arm,arm,0,96,96,39,0,0,0,0,,,,,,,,,,,,,1,3.498,,,,,,2018_Jun_21_1446,59.1031922097,verb_norming,001,914,
LEAP,hoppa,stega,kliva,2,kliva,hoppa,stega,Leg,leg,0,96,96,39,0,1,1,1,,,,,,,,,,,,,7,1.053,,,,,,2018_Jun_21_1446,59.1031922097,verb_norming,001,914,
LEAP,hoppa,stega,kliva,2,kliva,hoppa,stega,,,0,96,96,39,,,,,,,,,,,,,,,,,,,2,1,3.05270259378,,,2018_Jun_21_1446,59.1031922097,verb_norming,001,914,
JUMP,hoppa,kliva,lyfta,3,kliva,lyfta,hoppa,Arm,arm,0,97,97,35,0,0,0,0,,,,,,,,,,,,,2,6.665,,,,,,2018_Jun_21_1446,59.1031922097,verb_norming,001,914,
JUMP,hoppa,kliva,lyfta,3,kliva,lyfta,hoppa,Leg,leg,0,97,97,35,0,1,1,1,,,,,,,,,,,,,7,1.235,,,,,,2018_Jun_21_1446,59.1031922097,verb_norming,001,914,
JUMP,hoppa,kliva,lyfta,3,kliva,lyfta,hoppa,,,0,97,97,35,,,,,,,,,,,,,,,,,,,3,1,3.1196056383,,,2018_Jun_21_1446,59.1031922097,verb_norming,001,914,
DANCE,dansa,snurra,svänga,1,dansa,svänga,snurra,Arm,arm,0,98,98,17,0,0,0,0,,,,,,,,,,,,,5,9.852,,,,,,2018_Jun_21_1446,59.1031922097,verb_norming,001,914,
DANCE,dansa,snurra,svänga,1,dansa,svänga,snurra,Leg,leg,0,98,98,17,0,1,1,1,,,,,,,,,,,,,6,1.118,,,,,,2018_Jun_21_1446,59.1031922097,verb_norming,001,914,
DANCE,dansa,snurra,svänga,1,dansa,svänga,snurra,,,0,98,98,17,,,,,,,,,,,,,,,,,,,1,1,0.80535651069,,,2018_Jun_21_1446,59.1031922097,verb_norming,001,914,
RUB,gnugga,riva,klappa,2,riva,gnugga,klappa,Arm,arm,0,99,99,60,0,0,0,0,,,,,,,,,,,,,5,2.371,,,,,,2018_Jun_21_1446,59.1031922097,verb_norming,001,914,
RUB,gnugga,riva,klappa,2,riva,gnugga,klappa,Leg,leg,0,99,99,60,0,1,1,1,,,,,,,,,,,,,1,0.902,,,,,,2018_Jun_21_1446,59.1031922097,verb_norming,001,914,
RUB,gnugga,riva,klappa,2,riva,gnugga,klappa,,,0,99,99,60,,,,,,,,,,,,,,,,,,,2,1,2.07982059095,,,2018_Jun_21_1446,59.1031922097,verb_norming,001,914,
KNOCK,knacka,krocka,klicka,1,knacka,krocka,klicka,Arm,arm,0,100,100,38,0,0,0,0,,,,,,,,,,,,,7,2.138,,,,,,2018_Jun_21_1446,59.1031922097,verb_norming,001,914,
KNOCK,knacka,krocka,klicka,1,knacka,krocka,klicka,Leg,leg,0,100,100,38,0,1,1,1,,,,,,,,,,,,,1,0.597,,,,,,2018_Jun_21_1446,59.1031922097,verb_norming,001,914,
KNOCK,knacka,krocka,klicka,1,knacka,krocka,klicka,,,0,100,100,38,,,,,,,,,,,,,,,,,,,1,1,1.39242726916,,,2018_Jun_21_1446,59.1031922097,verb_norming,001,914,
STUMBLE,snubbla,glida,svaja,3,glida,svaja,snubbla,Arm,arm,0,101,101,91,0,0,0,0,,,,,,,,,,,,,1,3.529,,,,,,2018_Jun_21_1446,59.1031922097,verb_norming,001,914,
STUMBLE,snubbla,glida,svaja,3,glida,svaja,snubbla,Leg,leg,0,101,101,91,0,1,1,1,,,,,,,,,,,,,6,1.552,,,,,,2018_Jun_21_1446,59.1031922097,verb_norming,001,914,
STUMBLE,snubbla,glida,svaja,3,glida,svaja,snubbla,,,0,101,101,91,,,,,,,,,,,,,,,,,,,3,1,2.26426248214,,,2018_Jun_21_1446,59.1031922097,verb_norming,001,914,
WRAP,slå in,slå ihop,slå till,1,slå in,slå till,slå ihop,Arm,arm,0,102,102,111,0,0,0,0,,,,,,,,,,,,,6,2.073,,,,,,2018_Jun_21_1446,59.1031922097,verb_norming,001,914,
WRAP,slå in,slå ihop,slå till,1,slå in,slå till,slå ihop,Leg,leg,0,102,102,111,0,1,1,1,,,,,,,,,,,,,1,0.717,,,,,,2018_Jun_21_1446,59.1031922097,verb_norming,001,914,
WRAP,slå in,slå ihop,slå till,1,slå in,slå till,slå ihop,,,0,102,102,111,,,,,,,,,,,,,,,,,,,1,1,2.07999917818,,,2018_Jun_21_1446,59.1031922097,verb_norming,001,914,
GRASP,gripa,klämma,omfamna,2,klämma,gripa,omfamna,Arm,arm,0,103,103,27,0,0,0,0,,,,,,,,,,,,,3,6.784,,,,,,2018_Jun_21_1446,59.1031922097,verb_norming,001,914,
GRASP,gripa,klämma,omfamna,2,klämma,gripa,omfamna,Leg,leg,0,103,103,27,0,1,1,1,,,,,,,,,,,,,1,0.833,,,,,,2018_Jun_21_1446,59.1031922097,verb_norming,001,914,
GRASP,gripa,klämma,omfamna,2,klämma,gripa,omfamna,,,0,103,103,27,,,,,,,,,,,,,,,,,,,2,1,10.0963367491,,,2018_Jun_21_1446,59.1031922097,verb_norming,001,914,
ROLL,vingla,snubbla,svassa,3,snubbla,svassa,vingla,Arm,arm,0,104,104,59,0,0,0,0,,,,,,,,,,,,,2,4.385,,,,,,2018_Jun_21_1446,59.1031922097,verb_norming,001,914,
ROLL,vingla,snubbla,svassa,3,snubbla,svassa,vingla,Leg,leg,0,104,104,59,0,1,1,1,,,,,,,,,,,,,2,1.051,,,,,,2018_Jun_21_1446,59.1031922097,verb_norming,001,914,
ROLL,vingla,snubbla,svassa,3,snubbla,svassa,vingla,,,0,104,104,59,,,,,,,,,,,,,,,,,,,2,0,4.72976511828,,,2018_Jun_21_1446,59.1031922097,verb_norming,001,914,
SLAP,smälla till,knäppa fast,klämma åt,1,smälla till,knäppa fast,klämma åt,Arm,arm,0,105,105,73,0,0,0,0,,,,,,,,,,,,,7,8.73,,,,,,2018_Jun_21_1446,59.1031922097,verb_norming,001,914,
SLAP,smälla till,knäppa fast,klämma åt,1,smälla till,knäppa fast,klämma åt,Leg,leg,0,105,105,73,0,1,1,1,,,,,,,,,,,,,1,1.235,,,,,,2018_Jun_21_1446,59.1031922097,verb_norming,001,914,
SLAP,smälla till,knäppa fast,klämma åt,1,smälla till,knäppa fast,klämma åt,,,0,105,105,73,,,,,,,,,,,,,,,,,,,1,1,2.7004677247,,,2018_Jun_21_1446,59.1031922097,verb_norming,001,914,
SLITHER,hasa,glida,trilla,1,hasa,glida,trilla,Arm,arm,0,106,106,76,0,0,0,0,,,,,,,,,,,,,1,7.286,,,,,,2018_Jun_21_1446,59.1031922097,verb_norming,001,914,
SLITHER,hasa,glida,trilla,1,hasa,glida,trilla,Leg,leg,0,106,106,76,0,1,1,1,,,,,,,,,,,,,1,0.615,,,,,,2018_Jun_21_1446,59.1031922097,verb_norming,001,914,
SLITHER,hasa,glida,trilla,1,hasa,glida,trilla,,,0,106,106,76,,,,,,,,,,,,,,,,,,,1,1,4.0756257665,,,2018_Jun_21_1446,59.1031922097,verb_norming,001,914,
WHIP,piska,klappa,slå,1,piska,slå,klappa,Arm,arm,0,107,107,108,0,0,0,0,,,,,,,,,,,,,7,2.928,,,,,,2018_Jun_21_1446,59.1031922097,verb_norming,001,914,
WHIP,piska,klappa,slå,1,piska,slå,klappa,Leg,leg,0,107,107,108,0,1,1,1,,,,,,,,,,,,,1,1.371,,,,,,2018_Jun_21_1446,59.1031922097,verb_norming,001,914,
WHIP,piska,klappa,slå,1,piska,slå,klappa,,,0,107,107,108,,,,,,,,,,,,,,,,,,,1,1,1.76102223016,,,2018_Jun_21_1446,59.1031922097,verb_norming,001,914,
TRIP,snubbla,stampa,stappla,3,stappla,stampa,snubbla,Arm,arm,0,108,108,99,0,0,0,0,,,,,,,,,,,,,2,6.517,,,,,,2018_Jun_21_1446,59.1031922097,verb_norming,001,914,
TRIP,snubbla,stampa,stappla,3,stappla,stampa,snubbla,Leg,leg,0,108,108,99,0,1,1,1,,,,,,,,,,,,,6,1.404,,,,,,2018_Jun_21_1446,59.1031922097,verb_norming,001,914,
TRIP,snubbla,stampa,stappla,3,stappla,stampa,snubbla,,,0,108,108,99,,,,,,,,,,,,,,,,,,,3,1,4.86389005664,,,2018_Jun_21_1446,59.1031922097,verb_norming,001,914,
GLIDE,glida,hasa,snava,3,hasa,snava,glida,Arm,arm,0,109,109,25,0,0,0,0,,,,,,,,,,,,,1,6.885,,,,,,2018_Jun_21_1446,59.1031922097,verb_norming,001,914,
GLIDE,glida,hasa,snava,3,hasa,snava,glida,Leg,leg,0,109,109,25,0,1,1,1,,,,,,,,,,,,,3,2.243,,,,,,2018_Jun_21_1446,59.1031922097,verb_norming,001,914,
GLIDE,glida,hasa,snava,3,hasa,snava,glida,,,0,109,109,25,,,,,,,,,,,,,,,,,,,3,1,1.30837747968,,,2018_Jun_21_1446,59.1031922097,verb_norming,001,914,
PLOD,lunka,pulsa,vingla,2,pulsa,lunka,vingla,Arm,arm,0,110,110,49,0,0,0,0,,,,,,,,,,,,,1,3.631,,,,,,2018_Jun_21_1446,59.1031922097,verb_norming,001,914,
PLOD,lunka,pulsa,vingla,2,pulsa,lunka,vingla,Leg,leg,0,110,110,49,0,1,1,1,,,,,,,,,,,,,1,0.615,,,,,,2018_Jun_21_1446,59.1031922097,verb_norming,001,914,
PLOD,lunka,pulsa,vingla,2,pulsa,lunka,vingla,,,0,110,110,49,,,,,,,,,,,,,,,,,,,1,0,3.06938153503,,,2018_Jun_21_1446,59.1031922097,verb_norming,001,914,
PRANCE,kråma sig,promenera,traska,1,kråma sig,promenera,traska,Arm,arm,0,111,111,53,0,0,0,0,,,,,,,,,,,,,1,3.73,,,,,,2018_Jun_21_1446,59.1031922097,verb_norming,001,914,
PRANCE,kråma sig,promenera,traska,1,kråma sig,promenera,traska,Leg,leg,0,111,111,53,0,1,1,1,,,,,,,,,,,,,1,0.413,,,,,,2018_Jun_21_1446,59.1031922097,verb_norming,001,914,
PRANCE,kråma sig,promenera,traska,1,kråma sig,promenera,traska,,,0,111,111,53,,,,,,,,,,,,,,,,,,,3,0,3.01896304034,,,2018_Jun_21_1446,59.1031922097,verb_norming,001,914,
,,,,,,,,,,,,,,,,,,,,,,,,,,,,,,,,,,,space,3.03582333456,2018_Jun_21_1446,59.1031922097,verb_norming,001,914,
