word,target,distrOne,distrTwo,corrAns,w1,w2,w3,category,category_lowercase,trials.thisRepN,trials.thisTrialN,trials.thisN,trials.thisIndex,armleg_loop.thisRepN,armleg_loop.thisTrialN,armleg_loop.thisN,armleg_loop.thisIndex,key_resp_9.keys,key_resp_9.rt,key_resp_2.keys,key_resp_2.rt,key_resp_3.keys,key_resp_3.rt,key_resp_4.keys,key_resp_4.rt,key_resp_6.keys,key_resp_6.rt,key_resp_5.keys,key_resp_5.rt,rating.response,rating.rt,key_resp_7.keys,key_resp_7.rt,date,frameRate,expName,session,participant,
,,,,,,,,,,,,,,,,,,space,391.715509748,,,,,,,,,,,,,,,2018_Jun_21_1704,59.6125500796,verb_norming_oral_input,001,915,
,,,,,,,,,,,,,,,,,,,,space,26.3137070442,,,,,,,,,,,,,2018_Jun_21_1704,59.6125500796,verb_norming_oral_input,001,915,
,,,,,,,,,,,,,,,,,,,,,,space,19.7562995461,,,,,,,,,,,2018_Jun_21_1704,59.6125500796,verb_norming_oral_input,001,915,
,,,,,,,,,,,,,,,,,,,,,,,,space,35.3028685377,,,,,,,,,2018_Jun_21_1704,59.6125500796,verb_norming_oral_input,001,915,
,,,,,,,,,,,,,,,,,,,,,,,,,,space,36.1078836781,,,,,,,2018_Jun_21_1704,59.6125500796,verb_norming_oral_input,001,915,
,,,,,,,,,,,,,,,,,,,,,,,,,,,,space,4.24333972349,,,,,2018_Jun_21_1704,59.6125500796,verb_norming_oral_input,001,915,
SKIM,skumma,vispa,sleva,2,sleva,skumma,vispa,Leg,leg,0,0,0,71,0,0,0,0,,,,,,,,,,,,,1,16.538,,,2018_Jun_21_1704,59.6125500796,verb_norming_oral_input,001,915,
SKIM,skumma,vispa,sleva,2,sleva,skumma,vispa,Arm,arm,0,0,0,71,0,1,1,1,,,,,,,,,,,,,7,6.302,,,2018_Jun_21_1704,59.6125500796,verb_norming_oral_input,001,915,
SKIM,skumma,vispa,sleva,2,sleva,skumma,vispa,,,0,0,0,71,,,,,,,,,,,,,,,,,,,return,19.0017333234,2018_Jun_21_1704,59.6125500796,verb_norming_oral_input,001,915,
TOSS,slänga,fånga,gripa,1,slänga,gripa,fånga,Leg,leg,0,1,1,96,0,0,0,0,,,,,,,,,,,,,1,16.009,,,2018_Jun_21_1704,59.6125500796,verb_norming_oral_input,001,915,
TOSS,slänga,fånga,gripa,1,slänga,gripa,fånga,Arm,arm,0,1,1,96,0,1,1,1,,,,,,,,,,,,,7,9.035,,,2018_Jun_21_1704,59.6125500796,verb_norming_oral_input,001,915,
TOSS,slänga,fånga,gripa,1,slänga,gripa,fånga,,,0,1,1,96,,,,,,,,,,,,,,,,,,,return,3.62280914556,2018_Jun_21_1704,59.6125500796,verb_norming_oral_input,001,915,
WOBBLE,vingla,ramla,glida,2,ramla,vingla,glida,Leg,leg,0,2,2,110,0,0,0,0,,,,,,,,,,,,,2,11.681,,,2018_Jun_21_1704,59.6125500796,verb_norming_oral_input,001,915,
WOBBLE,vingla,ramla,glida,2,ramla,vingla,glida,Arm,arm,0,2,2,110,0,1,1,1,,,,,,,,,,,,,3,36.622,,,2018_Jun_21_1704,59.6125500796,verb_norming_oral_input,001,915,
WOBBLE,vingla,ramla,glida,2,ramla,vingla,glida,,,0,2,2,110,,,,,,,,,,,,,,,,,,,return,17.1401988798,2018_Jun_21_1704,59.6125500796,verb_norming_oral_input,001,915,
GRAB,gripa tag i,fästa ihop,smälla till,1,gripa tag i,fästa ihop,smälla till,Leg,leg,0,3,3,26,0,0,0,0,,,,,,,,,,,,,1,30.866,,,2018_Jun_21_1704,59.6125500796,verb_norming_oral_input,001,915,
GRAB,gripa tag i,fästa ihop,smälla till,1,gripa tag i,fästa ihop,smälla till,Arm,arm,0,3,3,26,0,1,1,1,,,,,,,,,,,,,7,17.639,,,2018_Jun_21_1704,59.6125500796,verb_norming_oral_input,001,915,
GRAB,gripa tag i,fästa ihop,smälla till,1,gripa tag i,fästa ihop,smälla till,,,0,3,3,26,,,,,,,,,,,,,,,,,,,return,5.28330256786,2018_Jun_21_1704,59.6125500796,verb_norming_oral_input,001,915,
LIMP,halta,hasa,halka,3,halka,hasa,halta,Leg,leg,0,4,4,41,0,0,0,0,,,,,,,,,,,,,7,13.946,,,2018_Jun_21_1704,59.6125500796,verb_norming_oral_input,001,915,
LIMP,halta,hasa,halka,3,halka,hasa,halta,Arm,arm,0,4,4,41,0,1,1,1,,,,,,,,,,,,,1,16.046,,,2018_Jun_21_1704,59.6125500796,verb_norming_oral_input,001,915,
LIMP,halta,hasa,halka,3,halka,hasa,halta,,,0,4,4,41,,,,,,,,,,,,,,,,,,,return,22.3224293711,2018_Jun_21_1704,59.6125500796,verb_norming_oral_input,001,915,
KICK,sparka,knäa,tåa,1,sparka,knäa,tåa,Leg,leg,0,5,5,36,0,0,0,0,,,,,,,,,,,,,7,5.795,,,2018_Jun_21_1704,59.6125500796,verb_norming_oral_input,001,915,
KICK,sparka,knäa,tåa,1,sparka,knäa,tåa,Arm,arm,0,5,5,36,0,1,1,1,,,,,,,,,,,,,1,2.159,,,2018_Jun_21_1704,59.6125500796,verb_norming_oral_input,001,915,
KICK,sparka,knäa,tåa,1,sparka,knäa,tåa,,,0,5,5,36,,,,,,,,,,,,,,,,,,,return,2.24781941828,2018_Jun_21_1704,59.6125500796,verb_norming_oral_input,001,915,
GRATE,riva,hugga,rispa,1,riva,hugga,rispa,Leg,leg,0,6,6,28,0,0,0,0,,,,,,,,,,,,,2,9.769,,,2018_Jun_21_1704,59.6125500796,verb_norming_oral_input,001,915,
GRATE,riva,hugga,rispa,1,riva,hugga,rispa,Arm,arm,0,6,6,28,0,1,1,1,,,,,,,,,,,,,7,7.844,,,2018_Jun_21_1704,59.6125500796,verb_norming_oral_input,001,915,
GRATE,riva,hugga,rispa,1,riva,hugga,rispa,,,0,6,6,28,,,,,,,,,,,,,,,,,,,return,2.44898884857,2018_Jun_21_1704,59.6125500796,verb_norming_oral_input,001,915,
JUMP,hoppa,kliva,lyfta,3,kliva,lyfta,hoppa,Leg,leg,0,7,7,35,0,0,0,0,,,,,,,,,,,,,7,4.872,,,2018_Jun_21_1704,59.6125500796,verb_norming_oral_input,001,915,
JUMP,hoppa,kliva,lyfta,3,kliva,lyfta,hoppa,Arm,arm,0,7,7,35,0,1,1,1,,,,,,,,,,,,,1,1.958,,,2018_Jun_21_1704,59.6125500796,verb_norming_oral_input,001,915,
JUMP,hoppa,kliva,lyfta,3,kliva,lyfta,hoppa,,,0,7,7,35,,,,,,,,,,,,,,,,,,,return,2.48257194063,2018_Jun_21_1704,59.6125500796,verb_norming_oral_input,001,915,
POKE,peta,trycka,knuffa,1,peta,knuffa,trycka,Leg,leg,0,8,8,51,0,0,0,0,,,,,,,,,,,,,2,10.525,,,2018_Jun_21_1704,59.6125500796,verb_norming_oral_input,001,915,
POKE,peta,trycka,knuffa,1,peta,knuffa,trycka,Arm,arm,0,8,8,51,0,1,1,1,,,,,,,,,,,,,7,8.583,,,2018_Jun_21_1704,59.6125500796,verb_norming_oral_input,001,915,
POKE,peta,trycka,knuffa,1,peta,knuffa,trycka,,,0,8,8,51,,,,,,,,,,,,,,,,,,,return,2.18044027284,2018_Jun_21_1704,59.6125500796,verb_norming_oral_input,001,915,
HOP,skutta,kliva,studsa,1,skutta,kliva,studsa,Leg,leg,0,9,9,32,0,0,0,0,,,,,,,,,,,,,7,12.739,,,2018_Jun_21_1704,59.6125500796,verb_norming_oral_input,001,915,
HOP,skutta,kliva,studsa,1,skutta,kliva,studsa,Arm,arm,0,9,9,32,0,1,1,1,,,,,,,,,,,,,1,1.455,,,2018_Jun_21_1704,59.6125500796,verb_norming_oral_input,001,915,
HOP,skutta,kliva,studsa,1,skutta,kliva,studsa,,,0,9,9,32,,,,,,,,,,,,,,,,,,,return,2.44898489752,2018_Jun_21_1704,59.6125500796,verb_norming_oral_input,001,915,
CLAP,klappa,knäppa,klämma,1,klappa,knäppa,klämma,Leg,leg,0,10,10,8,0,0,0,0,,,,,,,,,,,,,1,4.119,,,2018_Jun_21_1704,59.6125500796,verb_norming_oral_input,001,915,
CLAP,klappa,knäppa,klämma,1,klappa,knäppa,klämma,Arm,arm,0,10,10,8,0,1,1,1,,,,,,,,,,,,,7,8.616,,,2018_Jun_21_1704,59.6125500796,verb_norming_oral_input,001,915,
CLAP,klappa,knäppa,klämma,1,klappa,knäppa,klämma,,,0,10,10,8,,,,,,,,,,,,,,,,,,,return,2.5327174181,2018_Jun_21_1704,59.6125500796,verb_norming_oral_input,001,915,
CREEP,krypa,knäböja,klättra,1,krypa,klättra,knäböja,Leg,leg,0,11,11,15,0,0,0,0,,,,,,,,,,,,,6,23.002,,,2018_Jun_21_1704,59.6125500796,verb_norming_oral_input,001,915,
CREEP,krypa,knäböja,klättra,1,krypa,klättra,knäböja,Arm,arm,0,11,11,15,0,1,1,1,,,,,,,,,,,,,3,11.03,,,2018_Jun_21_1704,59.6125500796,verb_norming_oral_input,001,915,
CREEP,krypa,knäböja,klättra,1,krypa,klättra,knäböja,,,0,11,11,15,,,,,,,,,,,,,,,,,,,return,2.6502673277,2018_Jun_21_1704,59.6125500796,verb_norming_oral_input,001,915,
DUNK,dunka,dumpa,dunsa,3,dumpa,dunsa,dunka,Leg,leg,0,12,12,20,0,0,0,0,,,,,,,,,,,,,1,5.085,,,2018_Jun_21_1704,59.6125500796,verb_norming_oral_input,001,915,
DUNK,dunka,dumpa,dunsa,3,dumpa,dunsa,dunka,Arm,arm,0,12,12,20,0,1,1,1,,,,,,,,,,,,,7,1.319,,,2018_Jun_21_1704,59.6125500796,verb_norming_oral_input,001,915,
DUNK,dunka,dumpa,dunsa,3,dumpa,dunsa,dunka,,,0,12,12,20,,,,,,,,,,,,,,,,,,,return,2.38182029383,2018_Jun_21_1704,59.6125500796,verb_norming_oral_input,001,915,
STOMP,stampa,stiga,kliva,1,stampa,kliva,stiga,Leg,leg,0,13,13,86,0,0,0,0,,,,,,,,,,,,,7,4.152,,,2018_Jun_21_1704,59.6125500796,verb_norming_oral_input,001,915,
STOMP,stampa,stiga,kliva,1,stampa,kliva,stiga,Arm,arm,0,13,13,86,0,1,1,1,,,,,,,,,,,,,1,1.823,,,2018_Jun_21_1704,59.6125500796,verb_norming_oral_input,001,915,
STOMP,stampa,stiga,kliva,1,stampa,kliva,stiga,,,0,13,13,86,,,,,,,,,,,,,,,,,,,return,1.86201686622,2018_Jun_21_1704,59.6125500796,verb_norming_oral_input,001,915,
SKATE,åka skridskor,åka skidor,åka kälke,1,åka skridskor,åka kälke,åka skidor,Leg,leg,0,14,14,70,0,0,0,0,,,,,,,,,,,,,7,14.583,,,2018_Jun_21_1704,59.6125500796,verb_norming_oral_input,001,915,
SKATE,åka skridskor,åka skidor,åka kälke,1,åka skridskor,åka kälke,åka skidor,Arm,arm,0,14,14,70,0,1,1,1,,,,,,,,,,,,,1,28.94,,,2018_Jun_21_1704,59.6125500796,verb_norming_oral_input,001,915,
SKATE,åka skridskor,åka skidor,åka kälke,1,åka skridskor,åka kälke,åka skidor,,,0,14,14,70,,,,,,,,,,,,,,,,,,,return,2.51573385129,2018_Jun_21_1704,59.6125500796,verb_norming_oral_input,001,915,
WASH,tvätta,skura,sopa,3,skura,sopa,tvätta,Leg,leg,0,15,15,107,0,0,0,0,,,,,,,,,,,,,1,8.362,,,2018_Jun_21_1704,59.6125500796,verb_norming_oral_input,001,915,
WASH,tvätta,skura,sopa,3,skura,sopa,tvätta,Arm,arm,0,15,15,107,0,1,1,1,,,,,,,,,,,,,7,2.612,,,2018_Jun_21_1704,59.6125500796,verb_norming_oral_input,001,915,
WASH,tvätta,skura,sopa,3,skura,sopa,tvätta,,,0,15,15,107,,,,,,,,,,,,,,,,,,,return,1.61028235748,2018_Jun_21_1704,59.6125500796,verb_norming_oral_input,001,915,
MARCH,marschera,trava,traska,1,marschera,trava,traska,Leg,leg,0,16,16,42,0,0,0,0,,,,,,,,,,,,,7,5.309,,,2018_Jun_21_1704,59.6125500796,verb_norming_oral_input,001,915,
MARCH,marschera,trava,traska,1,marschera,trava,traska,Arm,arm,0,16,16,42,0,1,1,1,,,,,,,,,,,,,1,2.478,,,2018_Jun_21_1704,59.6125500796,verb_norming_oral_input,001,915,
MARCH,marschera,trava,traska,1,marschera,trava,traska,,,0,16,16,42,,,,,,,,,,,,,,,,,,,return,2.28119547558,2018_Jun_21_1704,59.6125500796,verb_norming_oral_input,001,915,
PACE,gå fram och tillbaka,luffa runt,rusa fram,3,luffa runt,rusa fram,gå fram och tillbaka,Leg,leg,0,17,17,45,0,0,0,0,,,,,,,,,,,,,7,4.538,,,2018_Jun_21_1704,59.6125500796,verb_norming_oral_input,001,915,
PACE,gå fram och tillbaka,luffa runt,rusa fram,3,luffa runt,rusa fram,gå fram och tillbaka,Arm,arm,0,17,17,45,0,1,1,1,,,,,,,,,,,,,1,7.677,,,2018_Jun_21_1704,59.6125500796,verb_norming_oral_input,001,915,
PACE,gå fram och tillbaka,luffa runt,rusa fram,3,luffa runt,rusa fram,gå fram och tillbaka,,,0,17,17,45,,,,,,,,,,,,,,,,,,,return,29.8354946866,2018_Jun_21_1704,59.6125500796,verb_norming_oral_input,001,915,
TIPTOE,gå på tå,snava,sparka,1,gå på tå,snava,sparka,Leg,leg,0,18,18,95,0,0,0,0,,,,,,,,,,,,,7,10.893,,,2018_Jun_21_1704,59.6125500796,verb_norming_oral_input,001,915,
TIPTOE,gå på tå,snava,sparka,1,gå på tå,snava,sparka,Arm,arm,0,18,18,95,0,1,1,1,,,,,,,,,,,,,1,2.007,,,2018_Jun_21_1704,59.6125500796,verb_norming_oral_input,001,915,
TIPTOE,gå på tå,snava,sparka,1,gå på tå,snava,sparka,,,0,18,18,95,,,,,,,,,,,,,,,,,,,return,9.15732507934,2018_Jun_21_1704,59.6125500796,verb_norming_oral_input,001,915,
TRAIPSE,traska,stappla,vandra,3,vandra,stappla,traska,Leg,leg,0,19,19,97,0,0,0,0,,,,,,,,,,,,,7,14.113,,,2018_Jun_21_1704,59.6125500796,verb_norming_oral_input,001,915,
TRAIPSE,traska,stappla,vandra,3,vandra,stappla,traska,Arm,arm,0,19,19,97,0,1,1,1,,,,,,,,,,,,,1,5.663,,,2018_Jun_21_1704,59.6125500796,verb_norming_oral_input,001,915,
TRAIPSE,traska,stappla,vandra,3,vandra,stappla,traska,,,0,19,19,97,,,,,,,,,,,,,,,,,,,return,20.1421906016,2018_Jun_21_1704,59.6125500796,verb_norming_oral_input,001,915,
CLAW,klösa,nypa,rispa,3,rispa,nypa,klösa,Leg,leg,0,20,20,9,0,0,0,0,,,,,,,,,,,,,1,8.78,,,2018_Jun_21_1704,59.6125500796,verb_norming_oral_input,001,915,
CLAW,klösa,nypa,rispa,3,rispa,nypa,klösa,Arm,arm,0,20,20,9,0,1,1,1,,,,,,,,,,,,,7,1.472,,,2018_Jun_21_1704,59.6125500796,verb_norming_oral_input,001,915,
CLAW,klösa,nypa,rispa,3,rispa,nypa,klösa,,,0,20,20,9,,,,,,,,,,,,,,,,,,,return,15.1445450293,2018_Jun_21_1704,59.6125500796,verb_norming_oral_input,001,915,
TUG,rycka,pressa,slå,2,slå,rycka,pressa,Leg,leg,0,21,21,102,0,0,0,0,,,,,,,,,,,,,1,14.617,,,2018_Jun_21_1704,59.6125500796,verb_norming_oral_input,001,915,
TUG,rycka,pressa,slå,2,slå,rycka,pressa,Arm,arm,0,21,21,102,0,1,1,1,,,,,,,,,,,,,4,5.48,,,2018_Jun_21_1704,59.6125500796,verb_norming_oral_input,001,915,
TUG,rycka,pressa,slå,2,slå,rycka,pressa,,,0,21,21,102,,,,,,,,,,,,,,,,,,,return,13.6518765883,2018_Jun_21_1704,59.6125500796,verb_norming_oral_input,001,915,
SLIDE,glida,ramla,hasa,2,ramla,glida,hasa,Leg,leg,0,22,22,74,0,0,0,0,,,,,,,,,,,,,4,8.173,,,2018_Jun_21_1704,59.6125500796,verb_norming_oral_input,001,915,
SLIDE,glida,ramla,hasa,2,ramla,glida,hasa,Arm,arm,0,22,22,74,0,1,1,1,,,,,,,,,,,,,2,5.478,,,2018_Jun_21_1704,59.6125500796,verb_norming_oral_input,001,915,
SLIDE,glida,ramla,hasa,2,ramla,glida,hasa,,,0,22,22,74,,,,,,,,,,,,,,,,,,,return,9.03991701225,2018_Jun_21_1704,59.6125500796,verb_norming_oral_input,001,915,
KNEEL,knäböja,krypa,kräla,3,krypa,kräla,knäböja,Leg,leg,0,23,23,37,0,0,0,0,,,,,,,,,,,,,7,11.513,,,2018_Jun_21_1704,59.6125500796,verb_norming_oral_input,001,915,
KNEEL,knäböja,krypa,kräla,3,krypa,kräla,knäböja,Arm,arm,0,23,23,37,0,1,1,1,,,,,,,,,,,,,1,2.825,,,2018_Jun_21_1704,59.6125500796,verb_norming_oral_input,001,915,
KNEEL,knäböja,krypa,kräla,3,krypa,kräla,knäböja,,,0,23,23,37,,,,,,,,,,,,,,,,,,,return,25.8945726866,2018_Jun_21_1704,59.6125500796,verb_norming_oral_input,001,915,
CATCH,fånga,krama,omfamna,2,krama,fånga,omfamna,Leg,leg,0,24,24,6,0,0,0,0,,,,,,,,,,,,,1,6.097,,,2018_Jun_21_1704,59.6125500796,verb_norming_oral_input,001,915,
CATCH,fånga,krama,omfamna,2,krama,fånga,omfamna,Arm,arm,0,24,24,6,0,1,1,1,,,,,,,,,,,,,7,1.974,,,2018_Jun_21_1704,59.6125500796,verb_norming_oral_input,001,915,
CATCH,fånga,krama,omfamna,2,krama,fånga,omfamna,,,0,24,24,6,,,,,,,,,,,,,,,,,,,return,2.41544447676,2018_Jun_21_1704,59.6125500796,verb_norming_oral_input,001,915,
SKIP,hoppa,kliva,strutta,3,strutta,kliva,hoppa,Leg,leg,0,25,25,72,0,0,0,0,,,,,,,,,,,,,7,13.896,,,2018_Jun_21_1704,59.6125500796,verb_norming_oral_input,001,915,
SKIP,hoppa,kliva,strutta,3,strutta,kliva,hoppa,Arm,arm,0,25,25,72,0,1,1,1,,,,,,,,,,,,,2,2.796,,,2018_Jun_21_1704,59.6125500796,verb_norming_oral_input,001,915,
SKIP,hoppa,kliva,strutta,3,strutta,kliva,hoppa,,,0,25,25,72,,,,,,,,,,,,,,,,,,,return,3.87447214039,2018_Jun_21_1704,59.6125500796,verb_norming_oral_input,001,915,
PUSH,knuffa,kasta,klämma,1,knuffa,kasta,klämma,Leg,leg,0,26,26,56,0,0,0,0,,,,,,,,,,,,,2,11.481,,,2018_Jun_21_1704,59.6125500796,verb_norming_oral_input,001,915,
PUSH,knuffa,kasta,klämma,1,knuffa,kasta,klämma,Arm,arm,0,26,26,56,0,1,1,1,,,,,,,,,,,,,7,5.446,,,2018_Jun_21_1704,59.6125500796,verb_norming_oral_input,001,915,
PUSH,knuffa,kasta,klämma,1,knuffa,kasta,klämma,,,0,26,26,56,,,,,,,,,,,,,,,,,,,return,8.218073186,2018_Jun_21_1704,59.6125500796,verb_norming_oral_input,001,915,
STRUT,svassa,lunka,strosa,2,strosa,svassa,lunka,Leg,leg,0,27,27,90,0,0,0,0,,,,,,,,,,,,,7,4.286,,,2018_Jun_21_1704,59.6125500796,verb_norming_oral_input,001,915,
STRUT,svassa,lunka,strosa,2,strosa,svassa,lunka,Arm,arm,0,27,27,90,0,1,1,1,,,,,,,,,,,,,1,1.706,,,2018_Jun_21_1704,59.6125500796,verb_norming_oral_input,001,915,
STRUT,svassa,lunka,strosa,2,strosa,svassa,lunka,,,0,27,27,90,,,,,,,,,,,,,,,,,,,return,47.528765978,2018_Jun_21_1704,59.6125500796,verb_norming_oral_input,001,915,
CLIMB,klättra,kliva,krypa,2,kliva,klättra,krypa,Leg,leg,0,28,28,12,0,0,0,0,,,,,,,,,,,,,3,20.805,,,2018_Jun_21_1704,59.6125500796,verb_norming_oral_input,001,915,
CLIMB,klättra,kliva,krypa,2,kliva,klättra,krypa,Arm,arm,0,28,28,12,0,1,1,1,,,,,,,,,,,,,5,2.661,,,2018_Jun_21_1704,59.6125500796,verb_norming_oral_input,001,915,
CLIMB,klättra,kliva,krypa,2,kliva,klättra,krypa,,,0,28,28,12,,,,,,,,,,,,,,,,,,,return,3.06935427282,2018_Jun_21_1704,59.6125500796,verb_norming_oral_input,001,915,
SCRAPE,skrapa,rispa,klösa,2,rispa,skrapa,klösa,Leg,leg,0,29,29,64,0,0,0,0,,,,,,,,,,,,,1,4.805,,,2018_Jun_21_1704,59.6125500796,verb_norming_oral_input,001,915,
SCRAPE,skrapa,rispa,klösa,2,rispa,skrapa,klösa,Arm,arm,0,29,29,64,0,1,1,1,,,,,,,,,,,,,6,3.03,,,2018_Jun_21_1704,59.6125500796,verb_norming_oral_input,001,915,
SCRAPE,skrapa,rispa,klösa,2,rispa,skrapa,klösa,,,0,29,29,64,,,,,,,,,,,,,,,,,,,return,1.72770346301,2018_Jun_21_1704,59.6125500796,verb_norming_oral_input,001,915,
MOUNT,gå uppför,ströva runt,kliva över,1,gå uppför,kliva över,ströva runt,Leg,leg,0,30,30,43,0,0,0,0,,,,,,,,,,,,,6,9.097,,,2018_Jun_21_1704,59.6125500796,verb_norming_oral_input,001,915,
MOUNT,gå uppför,ströva runt,kliva över,1,gå uppför,kliva över,ströva runt,Arm,arm,0,30,30,43,0,1,1,1,,,,,,,,,,,,,2,10.173,,,2018_Jun_21_1704,59.6125500796,verb_norming_oral_input,001,915,
MOUNT,gå uppför,ströva runt,kliva över,1,gå uppför,kliva över,ströva runt,,,0,30,30,43,,,,,,,,,,,,,,,,,,,return,16.771249115,2018_Jun_21_1704,59.6125500796,verb_norming_oral_input,001,915,
THROW,kasta,greppa,träffa,1,kasta,greppa,träffa,Leg,leg,0,31,31,94,0,0,0,0,,,,,,,,,,,,,1,4.334,,,2018_Jun_21_1704,59.6125500796,verb_norming_oral_input,001,915,
THROW,kasta,greppa,träffa,1,kasta,greppa,träffa,Arm,arm,0,31,31,94,0,1,1,1,,,,,,,,,,,,,7,1.74,,,2018_Jun_21_1704,59.6125500796,verb_norming_oral_input,001,915,
THROW,kasta,greppa,träffa,1,kasta,greppa,träffa,,,0,31,31,94,,,,,,,,,,,,,,,,,,,return,1.74440176438,2018_Jun_21_1704,59.6125500796,verb_norming_oral_input,001,915,
TWINE,tvinna,binda,knyta,1,tvinna,binda,knyta,Leg,leg,0,32,32,103,0,0,0,0,,,,,,,,,,,,,2,7.689,,,2018_Jun_21_1704,59.6125500796,verb_norming_oral_input,001,915,
TWINE,tvinna,binda,knyta,1,tvinna,binda,knyta,Arm,arm,0,32,32,103,0,1,1,1,,,,,,,,,,,,,4,5.059,,,2018_Jun_21_1704,59.6125500796,verb_norming_oral_input,001,915,
TWINE,tvinna,binda,knyta,1,tvinna,binda,knyta,,,0,32,32,103,,,,,,,,,,,,,,,,,,,return,15.7817379541,2018_Jun_21_1704,59.6125500796,verb_norming_oral_input,001,915,
RUN,springa,rusa,jogga,3,jogga,rusa,springa,Leg,leg,0,33,33,61,0,0,0,0,,,,,,,,,,,,,7,3.514,,,2018_Jun_21_1704,59.6125500796,verb_norming_oral_input,001,915,
RUN,springa,rusa,jogga,3,jogga,rusa,springa,Arm,arm,0,33,33,61,0,1,1,1,,,,,,,,,,,,,1,2.191,,,2018_Jun_21_1704,59.6125500796,verb_norming_oral_input,001,915,
RUN,springa,rusa,jogga,3,jogga,rusa,springa,,,0,33,33,61,,,,,,,,,,,,,,,,,,,return,2.01293888208,2018_Jun_21_1704,59.6125500796,verb_norming_oral_input,001,915,
SNATCH,rycka till sig,knuffa ifrån sig,plocka åt sig,2,knuffa ifrån sig,rycka till sig,plocka åt sig,Leg,leg,0,34,34,77,0,0,0,0,,,,,,,,,,,,,1,12.2,,,2018_Jun_21_1704,59.6125500796,verb_norming_oral_input,001,915,
SNATCH,rycka till sig,knuffa ifrån sig,plocka åt sig,2,knuffa ifrån sig,rycka till sig,plocka åt sig,Arm,arm,0,34,34,77,0,1,1,1,,,,,,,,,,,,,7,1.62,,,2018_Jun_21_1704,59.6125500796,verb_norming_oral_input,001,915,
SNATCH,rycka till sig,knuffa ifrån sig,plocka åt sig,2,knuffa ifrån sig,rycka till sig,plocka åt sig,,,0,34,34,77,,,,,,,,,,,,,,,,,,,return,5.16583404979,2018_Jun_21_1704,59.6125500796,verb_norming_oral_input,001,915,
STROLL,strosa,trava,marschera,3,trava,marschera,strosa,Leg,leg,0,35,35,89,0,0,0,0,,,,,,,,,,,,,7,11.011,,,2018_Jun_21_1704,59.6125500796,verb_norming_oral_input,001,915,
STROLL,strosa,trava,marschera,3,trava,marschera,strosa,Arm,arm,0,35,35,89,0,1,1,1,,,,,,,,,,,,,1,1.085,,,2018_Jun_21_1704,59.6125500796,verb_norming_oral_input,001,915,
STROLL,strosa,trava,marschera,3,trava,marschera,strosa,,,0,35,35,89,,,,,,,,,,,,,,,,,,,return,18.7837620744,2018_Jun_21_1704,59.6125500796,verb_norming_oral_input,001,915,
DANCE,dansa,snurra,svänga,1,dansa,snurra,svänga,Leg,leg,0,36,36,17,0,0,0,0,,,,,,,,,,,,,7,7.805,,,2018_Jun_21_1704,59.6125500796,verb_norming_oral_input,001,915,
DANCE,dansa,snurra,svänga,1,dansa,snurra,svänga,Arm,arm,0,36,36,17,0,1,1,1,,,,,,,,,,,,,4,7.943,,,2018_Jun_21_1704,59.6125500796,verb_norming_oral_input,001,915,
DANCE,dansa,snurra,svänga,1,dansa,snurra,svänga,,,0,36,36,17,,,,,,,,,,,,,,,,,,,return,4.79687638287,2018_Jun_21_1704,59.6125500796,verb_norming_oral_input,001,915,
SWAY,vingla,tassa,ramla,2,tassa,vingla,ramla,Leg,leg,0,37,37,92,0,0,0,0,,,,,,,,,,,,,5,9.301,,,2018_Jun_21_1704,59.6125500796,verb_norming_oral_input,001,915,
SWAY,vingla,tassa,ramla,2,tassa,vingla,ramla,Arm,arm,0,37,37,92,0,1,1,1,,,,,,,,,,,,,3,4.775,,,2018_Jun_21_1704,59.6125500796,verb_norming_oral_input,001,915,
SWAY,vingla,tassa,ramla,2,tassa,vingla,ramla,,,0,37,37,92,,,,,,,,,,,,,,,,,,,return,30.6069133014,2018_Jun_21_1704,59.6125500796,verb_norming_oral_input,001,915,
STIR,röra,sleva,vispa,1,röra,sleva,vispa,Leg,leg,0,38,38,85,0,0,0,0,,,,,,,,,,,,,1,4.538,,,2018_Jun_21_1704,59.6125500796,verb_norming_oral_input,001,915,
STIR,röra,sleva,vispa,1,röra,sleva,vispa,Arm,arm,0,38,38,85,0,1,1,1,,,,,,,,,,,,,7,1.874,,,2018_Jun_21_1704,59.6125500796,verb_norming_oral_input,001,915,
STIR,röra,sleva,vispa,1,röra,sleva,vispa,,,0,38,38,85,,,,,,,,,,,,,,,,,,,return,30.2548550441,2018_Jun_21_1704,59.6125500796,verb_norming_oral_input,001,915,
SCOOP,skyffla,dika,skrapa,2,dika,skyffla,skrapa,Leg,leg,0,39,39,63,0,0,0,0,,,,,,,,,,,,,3,7.338,,,2018_Jun_21_1704,59.6125500796,verb_norming_oral_input,001,915,
SCOOP,skyffla,dika,skrapa,2,dika,skyffla,skrapa,Arm,arm,0,39,39,63,0,1,1,1,,,,,,,,,,,,,6,1.287,,,2018_Jun_21_1704,59.6125500796,verb_norming_oral_input,001,915,
SCOOP,skyffla,dika,skrapa,2,dika,skyffla,skrapa,,,0,39,39,63,,,,,,,,,,,,,,,,,,,return,8.73788965205,2018_Jun_21_1704,59.6125500796,verb_norming_oral_input,001,915,
BRAID,fläta,knyta,binda,3,knyta,binda,fläta,Leg,leg,0,40,40,3,0,0,0,0,,,,,,,,,,,,,3,30.765,,,2018_Jun_21_1704,59.6125500796,verb_norming_oral_input,001,915,
BRAID,fläta,knyta,binda,3,knyta,binda,fläta,Arm,arm,0,40,40,3,0,1,1,1,,,,,,,,,,,,,4,2.325,,,2018_Jun_21_1704,59.6125500796,verb_norming_oral_input,001,915,
BRAID,fläta,knyta,binda,3,knyta,binda,fläta,,,0,40,40,3,,,,,,,,,,,,,,,,,,,return,14.5239654584,2018_Jun_21_1704,59.6125500796,verb_norming_oral_input,001,915,
FOLD,vika ihop,knyta ihop,bunta ihop,3,knyta ihop,bunta ihop,vika ihop,Leg,leg,0,41,41,24,0,0,0,0,,,,,,,,,,,,,3,12.384,,,2018_Jun_21_1704,59.6125500796,verb_norming_oral_input,001,915,
FOLD,vika ihop,knyta ihop,bunta ihop,3,knyta ihop,bunta ihop,vika ihop,Arm,arm,0,41,41,24,0,1,1,1,,,,,,,,,,,,,6,1.738,,,2018_Jun_21_1704,59.6125500796,verb_norming_oral_input,001,915,
FOLD,vika ihop,knyta ihop,bunta ihop,3,knyta ihop,bunta ihop,vika ihop,,,0,41,41,24,,,,,,,,,,,,,,,,,,,return,5.75271752873,2018_Jun_21_1704,59.6125500796,verb_norming_oral_input,001,915,
STAMP,stampa,kliva,skutta,1,stampa,kliva,skutta,Leg,leg,0,42,42,83,0,0,0,0,,,,,,,,,,,,,2,19.564,,,2018_Jun_21_1704,59.6125500796,verb_norming_oral_input,001,915,
STAMP,stampa,kliva,skutta,1,stampa,kliva,skutta,Arm,arm,0,42,42,83,0,1,1,1,,,,,,,,,,,,,4,2.628,,,2018_Jun_21_1704,59.6125500796,verb_norming_oral_input,001,915,
STAMP,stampa,kliva,skutta,1,stampa,kliva,skutta,,,0,42,42,83,,,,,,,,,,,,,,,,,,,return,20.7122947827,2018_Jun_21_1704,59.6125500796,verb_norming_oral_input,001,915,
TRIP,snubbla,stampa,stappla,3,stampa,stappla,snubbla,Leg,leg,0,43,43,99,0,0,0,0,,,,,,,,,,,,,7,7.623,,,2018_Jun_21_1704,59.6125500796,verb_norming_oral_input,001,915,
TRIP,snubbla,stampa,stappla,3,stampa,stappla,snubbla,Arm,arm,0,43,43,99,0,1,1,1,,,,,,,,,,,,,1,5.345,,,2018_Jun_21_1704,59.6125500796,verb_norming_oral_input,001,915,
TRIP,snubbla,stampa,stappla,3,stampa,stappla,snubbla,,,0,43,43,99,,,,,,,,,,,,,,,,,,,return,3.52230839012,2018_Jun_21_1704,59.6125500796,verb_norming_oral_input,001,915,
RAMBLE,ströva,strutta,spurta,2,spurta,ströva,strutta,Leg,leg,0,44,44,57,0,0,0,0,,,,,,,,,,,,,1,10.96,,,2018_Jun_21_1704,59.6125500796,verb_norming_oral_input,001,915,
RAMBLE,ströva,strutta,spurta,2,spurta,ströva,strutta,Arm,arm,0,44,44,57,0,1,1,1,,,,,,,,,,,,,1,2.896,,,2018_Jun_21_1704,59.6125500796,verb_norming_oral_input,001,915,
RAMBLE,ströva,strutta,spurta,2,spurta,ströva,strutta,,,0,44,44,57,,,,,,,,,,,,,,,,,,,return,29.9865530135,2018_Jun_21_1704,59.6125500796,verb_norming_oral_input,001,915,
DIG,gräva,dränera,dika,1,gräva,dränera,dika,Leg,leg,0,45,45,19,0,0,0,0,,,,,,,,,,,,,1,9.903,,,2018_Jun_21_1704,59.6125500796,verb_norming_oral_input,001,915,
DIG,gräva,dränera,dika,1,gräva,dränera,dika,Arm,arm,0,45,45,19,0,1,1,1,,,,,,,,,,,,,7,6.519,,,2018_Jun_21_1704,59.6125500796,verb_norming_oral_input,001,915,
DIG,gräva,dränera,dika,1,gräva,dränera,dika,,,0,45,45,19,,,,,,,,,,,,,,,,,,,return,1.40918167537,2018_Jun_21_1704,59.6125500796,verb_norming_oral_input,001,915,
DELVE,gräva,plöja,rensa,3,plöja,rensa,gräva,Leg,leg,0,46,46,18,0,0,0,0,,,,,,,,,,,,,2,9.5,,,2018_Jun_21_1704,59.6125500796,verb_norming_oral_input,001,915,
DELVE,gräva,plöja,rensa,3,plöja,rensa,gräva,Arm,arm,0,46,46,18,0,1,1,1,,,,,,,,,,,,,2,1.872,,,2018_Jun_21_1704,59.6125500796,verb_norming_oral_input,001,915,
DELVE,gräva,plöja,rensa,3,plöja,rensa,gräva,,,0,46,46,18,,,,,,,,,,,,,,,,,,,return,39.1098833019,2018_Jun_21_1704,59.6125500796,verb_norming_oral_input,001,915,
SLITHER,hasa,glida,trilla,3,trilla,glida,hasa,Leg,leg,0,47,47,76,0,0,0,0,,,,,,,,,,,,,4,12.318,,,2018_Jun_21_1704,59.6125500796,verb_norming_oral_input,001,915,
SLITHER,hasa,glida,trilla,3,trilla,glida,hasa,Arm,arm,0,47,47,76,0,1,1,1,,,,,,,,,,,,,3,2.124,,,2018_Jun_21_1704,59.6125500796,verb_norming_oral_input,001,915,
SLITHER,hasa,glida,trilla,3,trilla,glida,hasa,,,0,47,47,76,,,,,,,,,,,,,,,,,,,return,6.02116337729,2018_Jun_21_1704,59.6125500796,verb_norming_oral_input,001,915,
SCRUB,skrubba,sopa,skrapa,1,skrubba,skrapa,sopa,Leg,leg,0,48,48,66,0,0,0,0,,,,,,,,,,,,,1,4.303,,,2018_Jun_21_1704,59.6125500796,verb_norming_oral_input,001,915,
SCRUB,skrubba,sopa,skrapa,1,skrubba,skrapa,sopa,Arm,arm,0,48,48,66,0,1,1,1,,,,,,,,,,,,,7,1.201,,,2018_Jun_21_1704,59.6125500796,verb_norming_oral_input,001,915,
SCRUB,skrubba,sopa,skrapa,1,skrubba,skrapa,sopa,,,0,48,48,66,,,,,,,,,,,,,,,,,,,return,1.39245295096,2018_Jun_21_1704,59.6125500796,verb_norming_oral_input,001,915,
CRAWL,kravla,huka,klättra,2,huka,kravla,klättra,Leg,leg,0,49,49,14,0,0,0,0,,,,,,,,,,,,,4,6.013,,,2018_Jun_21_1704,59.6125500796,verb_norming_oral_input,001,915,
CRAWL,kravla,huka,klättra,2,huka,kravla,klättra,Arm,arm,0,49,49,14,0,1,1,1,,,,,,,,,,,,,4,0.465,,,2018_Jun_21_1704,59.6125500796,verb_norming_oral_input,001,915,
CRAWL,kravla,huka,klättra,2,huka,kravla,klättra,,,0,49,49,14,,,,,,,,,,,,,,,,,,,return,6.80928819554,2018_Jun_21_1704,59.6125500796,verb_norming_oral_input,001,915,
CUT,skära,sticka,spetsa,1,skära,sticka,spetsa,Leg,leg,0,50,50,16,0,0,0,0,,,,,,,,,,,,,2,7.49,,,2018_Jun_21_1704,59.6125500796,verb_norming_oral_input,001,915,
CUT,skära,sticka,spetsa,1,skära,sticka,spetsa,Arm,arm,0,50,50,16,0,1,1,1,,,,,,,,,,,,,7,2.713,,,2018_Jun_21_1704,59.6125500796,verb_norming_oral_input,001,915,
CUT,skära,sticka,spetsa,1,skära,sticka,spetsa,,,0,50,50,16,,,,,,,,,,,,,,,,,,,return,3.58942321065,2018_Jun_21_1704,59.6125500796,verb_norming_oral_input,001,915,
SPRINT,spurta,springa,löpa,3,löpa,springa,spurta,Leg,leg,0,51,51,79,0,0,0,0,,,,,,,,,,,,,7,5.407,,,2018_Jun_21_1704,59.6125500796,verb_norming_oral_input,001,915,
SPRINT,spurta,springa,löpa,3,löpa,springa,spurta,Arm,arm,0,51,51,79,0,1,1,1,,,,,,,,,,,,,1,1.67,,,2018_Jun_21_1704,59.6125500796,verb_norming_oral_input,001,915,
SPRINT,spurta,springa,löpa,3,löpa,springa,spurta,,,0,51,51,79,,,,,,,,,,,,,,,,,,,return,3.52152173707,2018_Jun_21_1704,59.6125500796,verb_norming_oral_input,001,915,
NIP,nypa,peta,nudda,2,nudda,nypa,peta,Leg,leg,0,52,52,44,0,0,0,0,,,,,,,,,,,,,1,5.946,,,2018_Jun_21_1704,59.6125500796,verb_norming_oral_input,001,915,
NIP,nypa,peta,nudda,2,nudda,nypa,peta,Arm,arm,0,52,52,44,0,1,1,1,,,,,,,,,,,,,7,1.37,,,2018_Jun_21_1704,59.6125500796,verb_norming_oral_input,001,915,
NIP,nypa,peta,nudda,2,nudda,nypa,peta,,,0,52,52,44,,,,,,,,,,,,,,,,,,,return,1.24146811349,2018_Jun_21_1704,59.6125500796,verb_norming_oral_input,001,915,
FLEE,fly,lyfta,flyga,3,flyga,lyfta,fly,Leg,leg,0,53,53,22,0,0,0,0,,,,,,,,,,,,,7,6.349,,,2018_Jun_21_1704,59.6125500796,verb_norming_oral_input,001,915,
FLEE,fly,lyfta,flyga,3,flyga,lyfta,fly,Arm,arm,0,53,53,22,0,1,1,1,,,,,,,,,,,,,1,3.568,,,2018_Jun_21_1704,59.6125500796,verb_norming_oral_input,001,915,
FLEE,fly,lyfta,flyga,3,flyga,lyfta,fly,,,0,53,53,22,,,,,,,,,,,,,,,,,,,return,23.8148267704,2018_Jun_21_1704,59.6125500796,verb_norming_oral_input,001,915,
WADE,vada,pulsa,plöja,3,pulsa,plöja,vada,Leg,leg,0,54,54,104,0,0,0,0,,,,,,,,,,,,,2,4.737,,,2018_Jun_21_1704,59.6125500796,verb_norming_oral_input,001,915,
WADE,vada,pulsa,plöja,3,pulsa,plöja,vada,Arm,arm,0,54,54,104,0,1,1,1,,,,,,,,,,,,,4,1.017,,,2018_Jun_21_1704,59.6125500796,verb_norming_oral_input,001,915,
WADE,vada,pulsa,plöja,3,pulsa,plöja,vada,,,0,54,54,104,,,,,,,,,,,,,,,,,,,return,97.5560925904,2018_Jun_21_1704,59.6125500796,verb_norming_oral_input,001,915,
HIKE,vandra,flanera,lunka,3,flanera,lunka,vandra,Leg,leg,0,55,55,31,0,0,0,0,,,,,,,,,,,,,7,3.514,,,2018_Jun_21_1704,59.6125500796,verb_norming_oral_input,001,915,
HIKE,vandra,flanera,lunka,3,flanera,lunka,vandra,Arm,arm,0,55,55,31,0,1,1,1,,,,,,,,,,,,,1,0.616,,,2018_Jun_21_1704,59.6125500796,verb_norming_oral_input,001,915,
HIKE,vandra,flanera,lunka,3,flanera,lunka,vandra,,,0,55,55,31,,,,,,,,,,,,,,,,,,,return,31.4457252854,2018_Jun_21_1704,59.6125500796,verb_norming_oral_input,001,915,
GRASP,gripa,klämma,omfamna,1,gripa,klämma,omfamna,Leg,leg,0,56,56,27,0,0,0,0,,,,,,,,,,,,,1,3.864,,,2018_Jun_21_1704,59.6125500796,verb_norming_oral_input,001,915,
GRASP,gripa,klämma,omfamna,1,gripa,klämma,omfamna,Arm,arm,0,56,56,27,0,1,1,1,,,,,,,,,,,,,7,0.783,,,2018_Jun_21_1704,59.6125500796,verb_norming_oral_input,001,915,
GRASP,gripa,klämma,omfamna,1,gripa,klämma,omfamna,,,0,56,56,27,,,,,,,,,,,,,,,,,,,return,6.60800339474,2018_Jun_21_1704,59.6125500796,verb_norming_oral_input,001,915,
CLICK,klicka,klappa,klämma,3,klappa,klämma,klicka,Leg,leg,0,57,57,11,0,0,0,0,,,,,,,,,,,,,1,8.579,,,2018_Jun_21_1704,59.6125500796,verb_norming_oral_input,001,915,
CLICK,klicka,klappa,klämma,3,klappa,klämma,klicka,Arm,arm,0,57,57,11,0,1,1,1,,,,,,,,,,,,,6,1.739,,,2018_Jun_21_1704,59.6125500796,verb_norming_oral_input,001,915,
CLICK,klicka,klappa,klämma,3,klappa,klämma,klicka,,,0,57,57,11,,,,,,,,,,,,,,,,,,,return,1.14084606097,2018_Jun_21_1704,59.6125500796,verb_norming_oral_input,001,915,
PLOD,lunka,pulsa,vingla,1,lunka,pulsa,vingla,Leg,leg,0,58,58,49,0,0,0,0,,,,,,,,,,,,,5,4.838,,,2018_Jun_21_1704,59.6125500796,verb_norming_oral_input,001,915,
PLOD,lunka,pulsa,vingla,1,lunka,pulsa,vingla,Arm,arm,0,58,58,49,0,1,1,1,,,,,,,,,,,,,1,2.611,,,2018_Jun_21_1704,59.6125500796,verb_norming_oral_input,001,915,
PLOD,lunka,pulsa,vingla,1,lunka,pulsa,vingla,,,0,58,58,49,,,,,,,,,,,,,,,,,,,return,50.3632456412,2018_Jun_21_1704,59.6125500796,verb_norming_oral_input,001,915,
STUMBLE,snubbla,glida,svaja,3,glida,svaja,snubbla,Leg,leg,0,59,59,91,0,0,0,0,,,,,,,,,,,,,7,6.028,,,2018_Jun_21_1704,59.6125500796,verb_norming_oral_input,001,915,
STUMBLE,snubbla,glida,svaja,3,glida,svaja,snubbla,Arm,arm,0,59,59,91,0,1,1,1,,,,,,,,,,,,,1,1.47,,,2018_Jun_21_1704,59.6125500796,verb_norming_oral_input,001,915,
STUMBLE,snubbla,glida,svaja,3,glida,svaja,snubbla,,,0,59,59,91,,,,,,,,,,,,,,,,,,,return,3.60618551895,2018_Jun_21_1704,59.6125500796,verb_norming_oral_input,001,915,
PLUCK,plocka,rensa,picka,1,plocka,rensa,picka,Leg,leg,0,60,60,50,0,0,0,0,,,,,,,,,,,,,1,8.31,,,2018_Jun_21_1704,59.6125500796,verb_norming_oral_input,001,915,
PLUCK,plocka,rensa,picka,1,plocka,rensa,picka,Arm,arm,0,60,60,50,0,1,1,1,,,,,,,,,,,,,7,1.32,,,2018_Jun_21_1704,59.6125500796,verb_norming_oral_input,001,915,
PLUCK,plocka,rensa,picka,1,plocka,rensa,picka,,,0,60,60,50,,,,,,,,,,,,,,,,,,,return,13.1990575968,2018_Jun_21_1704,59.6125500796,verb_norming_oral_input,001,915,
FLIT,rusa,hasa,svassa,1,rusa,hasa,svassa,Leg,leg,0,61,61,23,0,0,0,0,,,,,,,,,,,,,3,9.469,,,2018_Jun_21_1704,59.6125500796,verb_norming_oral_input,001,915,
FLIT,rusa,hasa,svassa,1,rusa,hasa,svassa,Arm,arm,0,61,61,23,0,1,1,1,,,,,,,,,,,,,4,2.729,,,2018_Jun_21_1704,59.6125500796,verb_norming_oral_input,001,915,
FLIT,rusa,hasa,svassa,1,rusa,hasa,svassa,,,0,61,61,23,,,,,,,,,,,,,,,,,,,return,33.1395536742,2018_Jun_21_1704,59.6125500796,verb_norming_oral_input,001,915,
SNEAK,smyga,hasa,glida,1,smyga,glida,hasa,Leg,leg,0,62,62,78,0,0,0,0,,,,,,,,,,,,,6,5.978,,,2018_Jun_21_1704,59.6125500796,verb_norming_oral_input,001,915,
SNEAK,smyga,hasa,glida,1,smyga,glida,hasa,Arm,arm,0,62,62,78,0,1,1,1,,,,,,,,,,,,,1,1.568,,,2018_Jun_21_1704,59.6125500796,verb_norming_oral_input,001,915,
SNEAK,smyga,hasa,glida,1,smyga,glida,hasa,,,0,62,62,78,,,,,,,,,,,,,,,,,,,return,13.2506183385,2018_Jun_21_1704,59.6125500796,verb_norming_oral_input,001,915,
SLAP,smälla till,knäppa fast,klämma åt,1,smälla till,klämma åt,knäppa fast,Leg,leg,0,63,63,73,0,0,0,0,,,,,,,,,,,,,1,2.726,,,2018_Jun_21_1704,59.6125500796,verb_norming_oral_input,001,915,
SLAP,smälla till,knäppa fast,klämma åt,1,smälla till,klämma åt,knäppa fast,Arm,arm,0,63,63,73,0,1,1,1,,,,,,,,,,,,,7,0.818,,,2018_Jun_21_1704,59.6125500796,verb_norming_oral_input,001,915,
SLAP,smälla till,knäppa fast,klämma åt,1,smälla till,klämma åt,knäppa fast,,,0,63,63,73,,,,,,,,,,,,,,,,,,,return,7.17827312468,2018_Jun_21_1704,59.6125500796,verb_norming_oral_input,001,915,
BASH,slå,knuffa,trycka,2,knuffa,slå,trycka,Leg,leg,0,64,64,0,0,0,0,0,,,,,,,,,,,,,2,5.192,,,2018_Jun_21_1704,59.6125500796,verb_norming_oral_input,001,915,
BASH,slå,knuffa,trycka,2,knuffa,slå,trycka,Arm,arm,0,64,64,0,0,1,1,1,,,,,,,,,,,,,7,1.79,,,2018_Jun_21_1704,59.6125500796,verb_norming_oral_input,001,915,
BASH,slå,knuffa,trycka,2,knuffa,slå,trycka,,,0,64,64,0,,,,,,,,,,,,,,,,,,,return,7.48040637288,2018_Jun_21_1704,59.6125500796,verb_norming_oral_input,001,915,
CLUTCH,gripa tag i,sätta ihop,dra ut,3,sätta ihop,dra ut,gripa tag i,Leg,leg,0,65,65,13,0,0,0,0,,,,,,,,,,,,,1,5.777,,,2018_Jun_21_1704,59.6125500796,verb_norming_oral_input,001,915,
CLUTCH,gripa tag i,sätta ihop,dra ut,3,sätta ihop,dra ut,gripa tag i,Arm,arm,0,65,65,13,0,1,1,1,,,,,,,,,,,,,7,1.353,,,2018_Jun_21_1704,59.6125500796,verb_norming_oral_input,001,915,
CLUTCH,gripa tag i,sätta ihop,dra ut,3,sätta ihop,dra ut,gripa tag i,,,0,65,65,13,,,,,,,,,,,,,,,,,,,return,11.9917138685,2018_Jun_21_1704,59.6125500796,verb_norming_oral_input,001,915,
BOUNCE,studsa,dunka,kasta,1,studsa,dunka,kasta,Leg,leg,0,66,66,2,0,0,0,0,,,,,,,,,,,,,7,9.818,,,2018_Jun_21_1704,59.6125500796,verb_norming_oral_input,001,915,
BOUNCE,studsa,dunka,kasta,1,studsa,dunka,kasta,Arm,arm,0,66,66,2,0,1,1,1,,,,,,,,,,,,,1,0.648,,,2018_Jun_21_1704,59.6125500796,verb_norming_oral_input,001,915,
BOUNCE,studsa,dunka,kasta,1,studsa,dunka,kasta,,,0,66,66,2,,,,,,,,,,,,,,,,,,,return,8.60384650032,2018_Jun_21_1704,59.6125500796,verb_norming_oral_input,001,915,
SWITCH,slå på/av,knäppa,nypa,2,knäppa,slå på/av,nypa,Leg,leg,0,67,67,93,0,0,0,0,,,,,,,,,,,,,2,11.01,,,2018_Jun_21_1704,59.6125500796,verb_norming_oral_input,001,915,
SWITCH,slå på/av,knäppa,nypa,2,knäppa,slå på/av,nypa,Arm,arm,0,67,67,93,0,1,1,1,,,,,,,,,,,,,6,5.026,,,2018_Jun_21_1704,59.6125500796,verb_norming_oral_input,001,915,
SWITCH,slå på/av,knäppa,nypa,2,knäppa,slå på/av,nypa,,,0,67,67,93,,,,,,,,,,,,,,,,,,,return,40.7366711498,2018_Jun_21_1704,59.6125500796,verb_norming_oral_input,001,915,
WANDER,vandra,marschera,spatsera,3,spatsera,marschera,vandra,Leg,leg,0,68,68,106,0,0,0,0,,,,,,,,,,,,,7,5.39,,,2018_Jun_21_1704,59.6125500796,verb_norming_oral_input,001,915,
WANDER,vandra,marschera,spatsera,3,spatsera,marschera,vandra,Arm,arm,0,68,68,106,0,1,1,1,,,,,,,,,,,,,1,2.693,,,2018_Jun_21_1704,59.6125500796,verb_norming_oral_input,001,915,
WANDER,vandra,marschera,spatsera,3,spatsera,marschera,vandra,,,0,68,68,106,,,,,,,,,,,,,,,,,,,return,1.32496041053,2018_Jun_21_1704,59.6125500796,verb_norming_oral_input,001,915,
PEEL,skala,rensa,plocka,1,skala,plocka,rensa,Leg,leg,0,69,69,47,0,0,0,0,,,,,,,,,,,,,1,3.833,,,2018_Jun_21_1704,59.6125500796,verb_norming_oral_input,001,915,
PEEL,skala,rensa,plocka,1,skala,plocka,rensa,Arm,arm,0,69,69,47,0,1,1,1,,,,,,,,,,,,,7,0.616,,,2018_Jun_21_1704,59.6125500796,verb_norming_oral_input,001,915,
PEEL,skala,rensa,plocka,1,skala,plocka,rensa,,,0,69,69,47,,,,,,,,,,,,,,,,,,,return,4.26000246545,2018_Jun_21_1704,59.6125500796,verb_norming_oral_input,001,915,
GRIP,gripa om,hålla om,kasta om,1,gripa om,kasta om,hålla om,Leg,leg,0,70,70,29,0,0,0,0,,,,,,,,,,,,,1,2.492,,,2018_Jun_21_1704,59.6125500796,verb_norming_oral_input,001,915,
GRIP,gripa om,hålla om,kasta om,1,gripa om,kasta om,hålla om,Arm,arm,0,70,70,29,0,1,1,1,,,,,,,,,,,,,7,0.6,,,2018_Jun_21_1704,59.6125500796,verb_norming_oral_input,001,915,
GRIP,gripa om,hålla om,kasta om,1,gripa om,kasta om,hålla om,,,0,70,70,29,,,,,,,,,,,,,,,,,,,return,13.1655491794,2018_Jun_21_1704,59.6125500796,verb_norming_oral_input,001,915,
WALK,gå,promenera,marschera,2,marschera,gå,promenera,Leg,leg,0,71,71,105,0,0,0,0,,,,,,,,,,,,,7,8.663,,,2018_Jun_21_1704,59.6125500796,verb_norming_oral_input,001,915,
WALK,gå,promenera,marschera,2,marschera,gå,promenera,Arm,arm,0,71,71,105,0,1,1,1,,,,,,,,,,,,,1,1.152,,,2018_Jun_21_1704,59.6125500796,verb_norming_oral_input,001,915,
WALK,gå,promenera,marschera,2,marschera,gå,promenera,,,0,71,71,105,,,,,,,,,,,,,,,,,,,return,1.89517838178,2018_Jun_21_1704,59.6125500796,verb_norming_oral_input,001,915,
SCRATCH,repa,riva,klösa,2,klösa,repa,riva,Leg,leg,0,72,72,65,0,0,0,0,,,,,,,,,,,,,1,3.277,,,2018_Jun_21_1704,59.6125500796,verb_norming_oral_input,001,915,
SCRATCH,repa,riva,klösa,2,klösa,repa,riva,Arm,arm,0,72,72,65,0,1,1,1,,,,,,,,,,,,,7,1.52,,,2018_Jun_21_1704,59.6125500796,verb_norming_oral_input,001,915,
SCRATCH,repa,riva,klösa,2,klösa,repa,riva,,,0,72,72,65,,,,,,,,,,,,,,,,,,,return,4.27709152517,2018_Jun_21_1704,59.6125500796,verb_norming_oral_input,001,915,
PUNCH,slå,knuffa,kasta,2,knuffa,slå,kasta,Leg,leg,0,73,73,55,0,0,0,0,,,,,,,,,,,,,1,2.238,,,2018_Jun_21_1704,59.6125500796,verb_norming_oral_input,001,915,
PUNCH,slå,knuffa,kasta,2,knuffa,slå,kasta,Arm,arm,0,73,73,55,0,1,1,1,,,,,,,,,,,,,7,0.782,,,2018_Jun_21_1704,59.6125500796,verb_norming_oral_input,001,915,
PUNCH,slå,knuffa,kasta,2,knuffa,slå,kasta,,,0,73,73,55,,,,,,,,,,,,,,,,,,,return,18.3141784039,2018_Jun_21_1704,59.6125500796,verb_norming_oral_input,001,915,
WIPE,torka,putsa,gnugga,1,torka,putsa,gnugga,Leg,leg,0,74,74,109,0,0,0,0,,,,,,,,,,,,,1,2.19,,,2018_Jun_21_1704,59.6125500796,verb_norming_oral_input,001,915,
WIPE,torka,putsa,gnugga,1,torka,putsa,gnugga,Arm,arm,0,74,74,109,0,1,1,1,,,,,,,,,,,,,7,0.666,,,2018_Jun_21_1704,59.6125500796,verb_norming_oral_input,001,915,
WIPE,torka,putsa,gnugga,1,torka,putsa,gnugga,,,0,74,74,109,,,,,,,,,,,,,,,,,,,return,9.8112696446,2018_Jun_21_1704,59.6125500796,verb_norming_oral_input,001,915,
INCH,röra sig långsamt framåt,dra sig snabbt tillbaka,hasa sig bakåt,2,dra sig snabbt tillbaka,röra sig långsamt framåt,hasa sig bakåt,Leg,leg,0,75,75,33,0,0,0,0,,,,,,,,,,,,,2,11.06,,,2018_Jun_21_1704,59.6125500796,verb_norming_oral_input,001,915,
INCH,röra sig långsamt framåt,dra sig snabbt tillbaka,hasa sig bakåt,2,dra sig snabbt tillbaka,röra sig långsamt framåt,hasa sig bakåt,Arm,arm,0,75,75,33,0,1,1,1,,,,,,,,,,,,,5,1.0,,,2018_Jun_21_1704,59.6125500796,verb_norming_oral_input,001,915,
INCH,röra sig långsamt framåt,dra sig snabbt tillbaka,hasa sig bakåt,2,dra sig snabbt tillbaka,röra sig långsamt framåt,hasa sig bakåt,,,0,75,75,33,,,,,,,,,,,,,,,,,,,return,15.563789226,2018_Jun_21_1704,59.6125500796,verb_norming_oral_input,001,915,
RUB,gnugga,riva,klappa,3,riva,klappa,gnugga,Leg,leg,0,76,76,60,0,0,0,0,,,,,,,,,,,,,2,4.571,,,2018_Jun_21_1704,59.6125500796,verb_norming_oral_input,001,915,
RUB,gnugga,riva,klappa,3,riva,klappa,gnugga,Arm,arm,0,76,76,60,0,1,1,1,,,,,,,,,,,,,7,2.16,,,2018_Jun_21_1704,59.6125500796,verb_norming_oral_input,001,915,
RUB,gnugga,riva,klappa,3,riva,klappa,gnugga,,,0,76,76,60,,,,,,,,,,,,,,,,,,,return,55.7299583244,2018_Jun_21_1704,59.6125500796,verb_norming_oral_input,001,915,
POLISH,polera,sopa,tvätta,1,polera,tvätta,sopa,Leg,leg,0,77,77,52,0,0,0,0,,,,,,,,,,,,,1,4.469,,,2018_Jun_21_1704,59.6125500796,verb_norming_oral_input,001,915,
POLISH,polera,sopa,tvätta,1,polera,tvätta,sopa,Arm,arm,0,77,77,52,0,1,1,1,,,,,,,,,,,,,7,0.447,,,2018_Jun_21_1704,59.6125500796,verb_norming_oral_input,001,915,
POLISH,polera,sopa,tvätta,1,polera,tvätta,sopa,,,0,77,77,52,,,,,,,,,,,,,,,,,,,return,26.3976959876,2018_Jun_21_1704,59.6125500796,verb_norming_oral_input,001,915,
SLIP,halka,snava,ramla,3,snava,ramla,halka,Leg,leg,0,78,78,75,0,0,0,0,,,,,,,,,,,,,7,7.506,,,2018_Jun_21_1704,59.6125500796,verb_norming_oral_input,001,915,
SLIP,halka,snava,ramla,3,snava,ramla,halka,Arm,arm,0,78,78,75,0,1,1,1,,,,,,,,,,,,,3,1.974,,,2018_Jun_21_1704,59.6125500796,verb_norming_oral_input,001,915,
SLIP,halka,snava,ramla,3,snava,ramla,halka,,,0,78,78,75,,,,,,,,,,,,,,,,,,,return,15.4630115023,2018_Jun_21_1704,59.6125500796,verb_norming_oral_input,001,915,
PULL,dra,slänga,släpa,3,slänga,släpa,dra,Leg,leg,0,79,79,54,0,0,0,0,,,,,,,,,,,,,2,5.393,,,2018_Jun_21_1704,59.6125500796,verb_norming_oral_input,001,915,
PULL,dra,slänga,släpa,3,slänga,släpa,dra,Arm,arm,0,79,79,54,0,1,1,1,,,,,,,,,,,,,7,1.673,,,2018_Jun_21_1704,59.6125500796,verb_norming_oral_input,001,915,
PULL,dra,slänga,släpa,3,slänga,släpa,dra,,,0,79,79,54,,,,,,,,,,,,,,,,,,,return,8.41932124208,2018_Jun_21_1704,59.6125500796,verb_norming_oral_input,001,915,
ROAM,ströva omkring,ta sig fram,luffa runt,1,ströva omkring,ta sig fram,luffa runt,Leg,leg,0,80,80,58,0,0,0,0,,,,,,,,,,,,,7,8.63,,,2018_Jun_21_1704,59.6125500796,verb_norming_oral_input,001,915,
ROAM,ströva omkring,ta sig fram,luffa runt,1,ströva omkring,ta sig fram,luffa runt,Arm,arm,0,80,80,58,0,1,1,1,,,,,,,,,,,,,1,0.432,,,2018_Jun_21_1704,59.6125500796,verb_norming_oral_input,001,915,
ROAM,ströva omkring,ta sig fram,luffa runt,1,ströva omkring,ta sig fram,luffa runt,,,0,80,80,58,,,,,,,,,,,,,,,,,,,return,10.0461418836,2018_Jun_21_1704,59.6125500796,verb_norming_oral_input,001,915,
CARVE,tälja,hacka,riva,3,hacka,riva,tälja,Leg,leg,0,81,81,5,0,0,0,0,,,,,,,,,,,,,2,4.772,,,2018_Jun_21_1704,59.6125500796,verb_norming_oral_input,001,915,
CARVE,tälja,hacka,riva,3,hacka,riva,tälja,Arm,arm,0,81,81,5,0,1,1,1,,,,,,,,,,,,,6,1.555,,,2018_Jun_21_1704,59.6125500796,verb_norming_oral_input,001,915,
CARVE,tälja,hacka,riva,3,hacka,riva,tälja,,,0,81,81,5,,,,,,,,,,,,,,,,,,,return,47.5455729331,2018_Jun_21_1704,59.6125500796,verb_norming_oral_input,001,915,
TREAD,trampa,stampa,klampa,3,klampa,stampa,trampa,Leg,leg,0,82,82,98,0,0,0,0,,,,,,,,,,,,,6,26.455,,,2018_Jun_21_1704,59.6125500796,verb_norming_oral_input,001,915,
TREAD,trampa,stampa,klampa,3,klampa,stampa,trampa,Arm,arm,0,82,82,98,0,1,1,1,,,,,,,,,,,,,1,1.419,,,2018_Jun_21_1704,59.6125500796,verb_norming_oral_input,001,915,
TREAD,trampa,stampa,klampa,3,klampa,stampa,trampa,,,0,82,82,98,,,,,,,,,,,,,,,,,,,return,2.61665736854,2018_Jun_21_1704,59.6125500796,verb_norming_oral_input,001,915,
KNOCK,knacka,krocka,klicka,3,klicka,krocka,knacka,Leg,leg,0,83,83,38,0,0,0,0,,,,,,,,,,,,,1,5.039,,,2018_Jun_21_1704,59.6125500796,verb_norming_oral_input,001,915,
KNOCK,knacka,krocka,klicka,3,klicka,krocka,knacka,Arm,arm,0,83,83,38,0,1,1,1,,,,,,,,,,,,,7,1.201,,,2018_Jun_21_1704,59.6125500796,verb_norming_oral_input,001,915,
KNOCK,knacka,krocka,klicka,3,klicka,krocka,knacka,,,0,83,83,38,,,,,,,,,,,,,,,,,,,return,6.10501561453,2018_Jun_21_1704,59.6125500796,verb_norming_oral_input,001,915,
BRUSH,borsta,skrubba,putsa,3,putsa,skrubba,borsta,Leg,leg,0,84,84,4,0,0,0,0,,,,,,,,,,,,,1,10.859,,,2018_Jun_21_1704,59.6125500796,verb_norming_oral_input,001,915,
BRUSH,borsta,skrubba,putsa,3,putsa,skrubba,borsta,Arm,arm,0,84,84,4,0,1,1,1,,,,,,,,,,,,,7,0.683,,,2018_Jun_21_1704,59.6125500796,verb_norming_oral_input,001,915,
BRUSH,borsta,skrubba,putsa,3,putsa,skrubba,borsta,,,0,84,84,4,,,,,,,,,,,,,,,,,,,return,46.0530601634,2018_Jun_21_1704,59.6125500796,verb_norming_oral_input,001,915,
STAGGER,ragla,lunka,halka,3,halka,lunka,ragla,Leg,leg,0,85,85,82,0,0,0,0,,,,,,,,,,,,,7,3.412,,,2018_Jun_21_1704,59.6125500796,verb_norming_oral_input,001,915,
STAGGER,ragla,lunka,halka,3,halka,lunka,ragla,Arm,arm,0,85,85,82,0,1,1,1,,,,,,,,,,,,,1,2.04,,,2018_Jun_21_1704,59.6125500796,verb_norming_oral_input,001,915,
STAGGER,ragla,lunka,halka,3,halka,lunka,ragla,,,0,85,85,82,,,,,,,,,,,,,,,,,,,return,62.7232241633,2018_Jun_21_1704,59.6125500796,verb_norming_oral_input,001,915,
STAB,sticka,hacka,skära,1,sticka,skära,hacka,Leg,leg,0,86,86,81,0,0,0,0,,,,,,,,,,,,,1,4.604,,,2018_Jun_21_1704,59.6125500796,verb_norming_oral_input,001,915,
STAB,sticka,hacka,skära,1,sticka,skära,hacka,Arm,arm,0,86,86,81,0,1,1,1,,,,,,,,,,,,,7,0.465,,,2018_Jun_21_1704,59.6125500796,verb_norming_oral_input,001,915,
STAB,sticka,hacka,skära,1,sticka,skära,hacka,,,0,86,86,81,,,,,,,,,,,,,,,,,,,return,5.08195336503,2018_Jun_21_1704,59.6125500796,verb_norming_oral_input,001,915,
GLIDE,glida,hasa,snava,3,hasa,snava,glida,Leg,leg,0,87,87,25,0,0,0,0,,,,,,,,,,,,,6,5.844,,,2018_Jun_21_1704,59.6125500796,verb_norming_oral_input,001,915,
GLIDE,glida,hasa,snava,3,hasa,snava,glida,Arm,arm,0,87,87,25,0,1,1,1,,,,,,,,,,,,,1,2.694,,,2018_Jun_21_1704,59.6125500796,verb_norming_oral_input,001,915,
GLIDE,glida,hasa,snava,3,hasa,snava,glida,,,0,87,87,25,,,,,,,,,,,,,,,,,,,return,1.54327382006,2018_Jun_21_1704,59.6125500796,verb_norming_oral_input,001,915,
WRAP,slå in,slå ihop,slå till,2,slå till,slå in,slå ihop,Leg,leg,0,88,88,111,0,0,0,0,,,,,,,,,,,,,2,9.485,,,2018_Jun_21_1704,59.6125500796,verb_norming_oral_input,001,915,
WRAP,slå in,slå ihop,slå till,2,slå till,slå in,slå ihop,Arm,arm,0,88,88,111,0,1,1,1,,,,,,,,,,,,,6,0.851,,,2018_Jun_21_1704,59.6125500796,verb_norming_oral_input,001,915,
WRAP,slå in,slå ihop,slå till,2,slå till,slå in,slå ihop,,,0,88,88,111,,,,,,,,,,,,,,,,,,,return,5.04851013996,2018_Jun_21_1704,59.6125500796,verb_norming_oral_input,001,915,
FILE,fila,putsa,riva,1,fila,putsa,riva,Leg,leg,0,89,89,21,0,0,0,0,,,,,,,,,,,,,1,14.397,,,2018_Jun_21_1704,59.6125500796,verb_norming_oral_input,001,915,
FILE,fila,putsa,riva,1,fila,putsa,riva,Arm,arm,0,89,89,21,0,1,1,1,,,,,,,,,,,,,6,1.136,,,2018_Jun_21_1704,59.6125500796,verb_norming_oral_input,001,915,
FILE,fila,putsa,riva,1,fila,putsa,riva,,,0,89,89,21,,,,,,,,,,,,,,,,,,,return,20.5446819725,2018_Jun_21_1704,59.6125500796,verb_norming_oral_input,001,915,
STRAY,ströva,vandra,promenera,3,vandra,promenera,ströva,Leg,leg,0,90,90,87,0,0,0,0,,,,,,,,,,,,,7,8.076,,,2018_Jun_21_1704,59.6125500796,verb_norming_oral_input,001,915,
STRAY,ströva,vandra,promenera,3,vandra,promenera,ströva,Arm,arm,0,90,90,87,0,1,1,1,,,,,,,,,,,,,1,0.833,,,2018_Jun_21_1704,59.6125500796,verb_norming_oral_input,001,915,
STRAY,ströva,vandra,promenera,3,vandra,promenera,ströva,,,0,90,90,87,,,,,,,,,,,,,,,,,,,return,36.0073801569,2018_Jun_21_1704,59.6125500796,verb_norming_oral_input,001,915,
PRANCE,kråma sig,promenera,traska,2,traska,kråma sig,promenera,Leg,leg,0,91,91,53,0,0,0,0,,,,,,,,,,,,,7,7.973,,,2018_Jun_21_1704,59.6125500796,verb_norming_oral_input,001,915,
PRANCE,kråma sig,promenera,traska,2,traska,kråma sig,promenera,Arm,arm,0,91,91,53,0,1,1,1,,,,,,,,,,,,,1,3.364,,,2018_Jun_21_1704,59.6125500796,verb_norming_oral_input,001,915,
PRANCE,kråma sig,promenera,traska,2,traska,kråma sig,promenera,,,0,91,91,53,,,,,,,,,,,,,,,,,,,return,14.121340147,2018_Jun_21_1704,59.6125500796,verb_norming_oral_input,001,915,
ROLL,vingla,snubbla,svassa,2,svassa,vingla,snubbla,Leg,leg,0,92,92,59,0,0,0,0,,,,,,,,,,,,,2,9.669,,,2018_Jun_21_1704,59.6125500796,verb_norming_oral_input,001,915,
ROLL,vingla,snubbla,svassa,2,svassa,vingla,snubbla,Arm,arm,0,92,92,59,0,1,1,1,,,,,,,,,,,,,4,3.416,,,2018_Jun_21_1704,59.6125500796,verb_norming_oral_input,001,915,
ROLL,vingla,snubbla,svassa,2,svassa,vingla,snubbla,,,0,92,92,59,,,,,,,,,,,,,,,,,,,return,2.43213843197,2018_Jun_21_1704,59.6125500796,verb_norming_oral_input,001,915,
JOG,jogga,spurta,rusa,2,rusa,jogga,spurta,Leg,leg,0,93,93,34,0,0,0,0,,,,,,,,,,,,,7,6.652,,,2018_Jun_21_1704,59.6125500796,verb_norming_oral_input,001,915,
JOG,jogga,spurta,rusa,2,rusa,jogga,spurta,Arm,arm,0,93,93,34,0,1,1,1,,,,,,,,,,,,,1,1.237,,,2018_Jun_21_1704,59.6125500796,verb_norming_oral_input,001,915,
JOG,jogga,spurta,rusa,2,rusa,jogga,spurta,,,0,93,93,34,,,,,,,,,,,,,,,,,,,return,1.69427643723,2018_Jun_21_1704,59.6125500796,verb_norming_oral_input,001,915,
STRIDE,kliva,tassa,lunka,3,lunka,tassa,kliva,Leg,leg,0,94,94,88,0,0,0,0,,,,,,,,,,,,,6,5.055,,,2018_Jun_21_1704,59.6125500796,verb_norming_oral_input,001,915,
STRIDE,kliva,tassa,lunka,3,lunka,tassa,kliva,Arm,arm,0,94,94,88,0,1,1,1,,,,,,,,,,,,,1,1.1,,,2018_Jun_21_1704,59.6125500796,verb_norming_oral_input,001,915,
STRIDE,kliva,tassa,lunka,3,lunka,tassa,kliva,,,0,94,94,88,,,,,,,,,,,,,,,,,,,return,21.9366410428,2018_Jun_21_1704,59.6125500796,verb_norming_oral_input,001,915,
SEIZE,fånga,klämma,fästa,1,fånga,fästa,klämma,Leg,leg,0,95,95,68,0,0,0,0,,,,,,,,,,,,,1,10.571,,,2018_Jun_21_1704,59.6125500796,verb_norming_oral_input,001,915,
SEIZE,fånga,klämma,fästa,1,fånga,fästa,klämma,Arm,arm,0,95,95,68,0,1,1,1,,,,,,,,,,,,,5,14.702,,,2018_Jun_21_1704,59.6125500796,verb_norming_oral_input,001,915,
SEIZE,fånga,klämma,fästa,1,fånga,fästa,klämma,,,0,95,95,68,,,,,,,,,,,,,,,,,,,return,33.7265315831,2018_Jun_21_1704,59.6125500796,verb_norming_oral_input,001,915,
TRUDGE,släpa sig fram,kasta sig fram,ta sig fram,3,ta sig fram,kasta sig fram,släpa sig fram,Leg,leg,0,96,96,101,0,0,0,0,,,,,,,,,,,,,6,3.311,,,2018_Jun_21_1704,59.6125500796,verb_norming_oral_input,001,915,
TRUDGE,släpa sig fram,kasta sig fram,ta sig fram,3,ta sig fram,kasta sig fram,släpa sig fram,Arm,arm,0,96,96,101,0,1,1,1,,,,,,,,,,,,,1,0.949,,,2018_Jun_21_1704,59.6125500796,verb_norming_oral_input,001,915,
TRUDGE,släpa sig fram,kasta sig fram,ta sig fram,3,ta sig fram,kasta sig fram,släpa sig fram,,,0,96,96,101,,,,,,,,,,,,,,,,,,,return,30.2046755876,2018_Jun_21_1704,59.6125500796,verb_norming_oral_input,001,915,
HACK,hacka,skära,kåpa,1,hacka,kåpa,skära,Leg,leg,0,97,97,30,0,0,0,0,,,,,,,,,,,,,1,2.607,,,2018_Jun_21_1704,59.6125500796,verb_norming_oral_input,001,915,
HACK,hacka,skära,kåpa,1,hacka,kåpa,skära,Arm,arm,0,97,97,30,0,1,1,1,,,,,,,,,,,,,7,1.556,,,2018_Jun_21_1704,59.6125500796,verb_norming_oral_input,001,915,
HACK,hacka,skära,kåpa,1,hacka,kåpa,skära,,,0,97,97,30,,,,,,,,,,,,,,,,,,,return,1.47618626174,2018_Jun_21_1704,59.6125500796,verb_norming_oral_input,001,915,
SCUFF,hasa sig fram,dra sig fram,kasta sig fram,3,dra sig fram,kasta sig fram,hasa sig fram,Leg,leg,0,98,98,67,0,0,0,0,,,,,,,,,,,,,4,19.631,,,2018_Jun_21_1704,59.6125500796,verb_norming_oral_input,001,915,
SCUFF,hasa sig fram,dra sig fram,kasta sig fram,3,dra sig fram,kasta sig fram,hasa sig fram,Arm,arm,0,98,98,67,0,1,1,1,,,,,,,,,,,,,4,0.699,,,2018_Jun_21_1704,59.6125500796,verb_norming_oral_input,001,915,
SCUFF,hasa sig fram,dra sig fram,kasta sig fram,3,dra sig fram,kasta sig fram,hasa sig fram,,,0,98,98,67,,,,,,,,,,,,,,,,,,,return,62.8070491384,2018_Jun_21_1704,59.6125500796,verb_norming_oral_input,001,915,
LIFT,lyfta,pressa,öka,3,öka,pressa,lyfta,Leg,leg,0,99,99,40,0,0,0,0,,,,,,,,,,,,,3,5.191,,,2018_Jun_21_1704,59.6125500796,verb_norming_oral_input,001,915,
LIFT,lyfta,pressa,öka,3,öka,pressa,lyfta,Arm,arm,0,99,99,40,0,1,1,1,,,,,,,,,,,,,6,0.801,,,2018_Jun_21_1704,59.6125500796,verb_norming_oral_input,001,915,
LIFT,lyfta,pressa,öka,3,öka,pressa,lyfta,,,0,99,99,40,,,,,,,,,,,,,,,,,,,return,1.34211545269,2018_Jun_21_1704,59.6125500796,verb_norming_oral_input,001,915,
PAT,klappa,slå,borsta,2,borsta,klappa,slå,Leg,leg,0,100,100,46,0,0,0,0,,,,,,,,,,,,,1,3.833,,,2018_Jun_21_1704,59.6125500796,verb_norming_oral_input,001,915,
PAT,klappa,slå,borsta,2,borsta,klappa,slå,Arm,arm,0,100,100,46,0,1,1,1,,,,,,,,,,,,,7,0.75,,,2018_Jun_21_1704,59.6125500796,verb_norming_oral_input,001,915,
PAT,klappa,slå,borsta,2,borsta,klappa,slå,,,0,100,100,46,,,,,,,,,,,,,,,,,,,return,18.196774683,2018_Jun_21_1704,59.6125500796,verb_norming_oral_input,001,915,
SQUEEZE,klämma,knuffa,knäppa,2,knäppa,klämma,knuffa,Leg,leg,0,101,101,80,0,0,0,0,,,,,,,,,,,,,2,3.256,,,2018_Jun_21_1704,59.6125500796,verb_norming_oral_input,001,915,
SQUEEZE,klämma,knuffa,knäppa,2,knäppa,klämma,knuffa,Arm,arm,0,101,101,80,0,1,1,1,,,,,,,,,,,,,7,1.283,,,2018_Jun_21_1704,59.6125500796,verb_norming_oral_input,001,915,
SQUEEZE,klämma,knuffa,knäppa,2,knäppa,klämma,knuffa,,,0,101,101,80,,,,,,,,,,,,,,,,,,,return,4.36085407369,2018_Jun_21_1704,59.6125500796,verb_norming_oral_input,001,915,
TROT,trava,promenera,flanera,2,flanera,trava,promenera,Leg,leg,0,102,102,100,0,0,0,0,,,,,,,,,,,,,6,3.968,,,2018_Jun_21_1704,59.6125500796,verb_norming_oral_input,001,915,
TROT,trava,promenera,flanera,2,flanera,trava,promenera,Arm,arm,0,102,102,100,0,1,1,1,,,,,,,,,,,,,1,1.572,,,2018_Jun_21_1704,59.6125500796,verb_norming_oral_input,001,915,
TROT,trava,promenera,flanera,2,flanera,trava,promenera,,,0,102,102,100,,,,,,,,,,,,,,,,,,,return,14.9768480618,2018_Jun_21_1704,59.6125500796,verb_norming_oral_input,001,915,
SHAKE,skaka,röra,vispa,2,vispa,skaka,röra,Leg,leg,0,103,103,69,0,0,0,0,,,,,,,,,,,,,2,4.923,,,2018_Jun_21_1704,59.6125500796,verb_norming_oral_input,001,915,
SHAKE,skaka,röra,vispa,2,vispa,skaka,röra,Arm,arm,0,103,103,69,0,1,1,1,,,,,,,,,,,,,7,1.32,,,2018_Jun_21_1704,59.6125500796,verb_norming_oral_input,001,915,
SHAKE,skaka,röra,vispa,2,vispa,skaka,röra,,,0,103,103,69,,,,,,,,,,,,,,,,,,,return,4.00864014514,2018_Jun_21_1704,59.6125500796,verb_norming_oral_input,001,915,
WHIP,piska,klappa,slå,2,klappa,piska,slå,Leg,leg,0,104,104,108,0,0,0,0,,,,,,,,,,,,,1,3.028,,,2018_Jun_21_1704,59.6125500796,verb_norming_oral_input,001,915,
WHIP,piska,klappa,slå,2,klappa,piska,slå,Arm,arm,0,104,104,108,0,1,1,1,,,,,,,,,,,,,6,1.084,,,2018_Jun_21_1704,59.6125500796,verb_norming_oral_input,001,915,
WHIP,piska,klappa,slå,2,klappa,piska,slå,,,0,104,104,108,,,,,,,,,,,,,,,,,,,return,7.99993243713,2018_Jun_21_1704,59.6125500796,verb_norming_oral_input,001,915,
PINCH,nypa,plocka,pensla,1,nypa,pensla,plocka,Leg,leg,0,105,105,48,0,0,0,0,,,,,,,,,,,,,1,3.496,,,2018_Jun_21_1704,59.6125500796,verb_norming_oral_input,001,915,
PINCH,nypa,plocka,pensla,1,nypa,pensla,plocka,Arm,arm,0,105,105,48,0,1,1,1,,,,,,,,,,,,,7,1.217,,,2018_Jun_21_1704,59.6125500796,verb_norming_oral_input,001,915,
PINCH,nypa,plocka,pensla,1,nypa,pensla,plocka,,,0,105,105,48,,,,,,,,,,,,,,,,,,,return,1.72780539997,2018_Jun_21_1704,59.6125500796,verb_norming_oral_input,001,915,
STEP,gå,klampa,traska,2,klampa,gå,traska,Leg,leg,0,106,106,84,0,0,0,0,,,,,,,,,,,,,7,3.883,,,2018_Jun_21_1704,59.6125500796,verb_norming_oral_input,001,915,
STEP,gå,klampa,traska,2,klampa,gå,traska,Arm,arm,0,106,106,84,0,1,1,1,,,,,,,,,,,,,1,1.471,,,2018_Jun_21_1704,59.6125500796,verb_norming_oral_input,001,915,
STEP,gå,klampa,traska,2,klampa,gå,traska,,,0,106,106,84,,,,,,,,,,,,,,,,,,,return,33.2904748998,2018_Jun_21_1704,59.6125500796,verb_norming_oral_input,001,915,
BIND,binda,linda,vinda,2,vinda,binda,linda,Leg,leg,0,107,107,1,0,0,0,0,,,,,,,,,,,,,3,6.112,,,2018_Jun_21_1704,59.6125500796,verb_norming_oral_input,001,915,
BIND,binda,linda,vinda,2,vinda,binda,linda,Arm,arm,0,107,107,1,0,1,1,1,,,,,,,,,,,,,6,1.352,,,2018_Jun_21_1704,59.6125500796,verb_norming_oral_input,001,915,
BIND,binda,linda,vinda,2,vinda,binda,linda,,,0,107,107,1,,,,,,,,,,,,,,,,,,,return,2.16389527202,2018_Jun_21_1704,59.6125500796,verb_norming_oral_input,001,915,
CHOP,hacka,tälja,riva,1,hacka,tälja,riva,Leg,leg,0,108,108,7,0,0,0,0,,,,,,,,,,,,,2,12.051,,,2018_Jun_21_1704,59.6125500796,verb_norming_oral_input,001,915,
CHOP,hacka,tälja,riva,1,hacka,tälja,riva,Arm,arm,0,108,108,7,0,1,1,1,,,,,,,,,,,,,7,0.884,,,2018_Jun_21_1704,59.6125500796,verb_norming_oral_input,001,915,
CHOP,hacka,tälja,riva,1,hacka,tälja,riva,,,0,108,108,7,,,,,,,,,,,,,,,,,,,return,2.28127489158,2018_Jun_21_1704,59.6125500796,verb_norming_oral_input,001,915,
CLEAN,rengöra,rensa,plocka,2,rensa,rengöra,plocka,Leg,leg,0,109,109,10,0,0,0,0,,,,,,,,,,,,,1,5.643,,,2018_Jun_21_1704,59.6125500796,verb_norming_oral_input,001,915,
CLEAN,rengöra,rensa,plocka,2,rensa,rengöra,plocka,Arm,arm,0,109,109,10,0,1,1,1,,,,,,,,,,,,,7,2.676,,,2018_Jun_21_1704,59.6125500796,verb_norming_oral_input,001,915,
CLEAN,rengöra,rensa,plocka,2,rensa,rengöra,plocka,,,0,109,109,10,,,,,,,,,,,,,,,,,,,return,2.86827255572,2018_Jun_21_1704,59.6125500796,verb_norming_oral_input,001,915,
RUSH,rusa,springa,löpa,1,rusa,löpa,springa,Leg,leg,0,110,110,62,0,0,0,0,,,,,,,,,,,,,7,3.917,,,2018_Jun_21_1704,59.6125500796,verb_norming_oral_input,001,915,
RUSH,rusa,springa,löpa,1,rusa,löpa,springa,Arm,arm,0,110,110,62,0,1,1,1,,,,,,,,,,,,,1,0.767,,,2018_Jun_21_1704,59.6125500796,verb_norming_oral_input,001,915,
RUSH,rusa,springa,löpa,1,rusa,löpa,springa,,,0,110,110,62,,,,,,,,,,,,,,,,,,,return,4.15960048614,2018_Jun_21_1704,59.6125500796,verb_norming_oral_input,001,915,
LEAP,hoppa,stega,kliva,2,stega,hoppa,kliva,Leg,leg,0,111,111,39,0,0,0,0,,,,,,,,,,,,,7,6.533,,,2018_Jun_21_1704,59.6125500796,verb_norming_oral_input,001,915,
LEAP,hoppa,stega,kliva,2,stega,hoppa,kliva,Arm,arm,0,111,111,39,0,1,1,1,,,,,,,,,,,,,1,0.935,,,2018_Jun_21_1704,59.6125500796,verb_norming_oral_input,001,915,
LEAP,hoppa,stega,kliva,2,stega,hoppa,kliva,,,0,111,111,39,,,,,,,,,,,,,,,,,,,return,13.2158368945,2018_Jun_21_1704,59.6125500796,verb_norming_oral_input,001,915,
