word,target,distrOne,distrTwo,corrAns,w1,w2,w3,category,category_lowercase,trials.thisRepN,trials.thisTrialN,trials.thisN,trials.thisIndex,armleg_loop.thisRepN,armleg_loop.thisTrialN,armleg_loop.thisN,armleg_loop.thisIndex,key_resp_9.keys,key_resp_9.rt,key_resp_2.keys,key_resp_2.rt,key_resp_3.keys,key_resp_3.rt,key_resp_4.keys,key_resp_4.rt,key_resp_6.keys,key_resp_6.rt,key_resp_5.keys,key_resp_5.rt,rating.response,rating.rt,key_resp_7.keys,key_resp_7.rt,date,frameRate,expName,session,participant,
,,,,,,,,,,,,,,,,,,space,234.423942801,,,,,,,,,,,,,,,2018_Jun_26_1723,59.6338733696,verb_norming_oral_input,001,916,
,,,,,,,,,,,,,,,,,,,,space,24.9724068801,,,,,,,,,,,,,2018_Jun_26_1723,59.6338733696,verb_norming_oral_input,001,916,
,,,,,,,,,,,,,,,,,,,,,,space,30.3221990733,,,,,,,,,,,2018_Jun_26_1723,59.6338733696,verb_norming_oral_input,001,916,
,,,,,,,,,,,,,,,,,,,,,,,,space,14.2052986281,,,,,,,,,2018_Jun_26_1723,59.6338733696,verb_norming_oral_input,001,916,
,,,,,,,,,,,,,,,,,,,,,,,,,,space,14.3394644792,,,,,,,2018_Jun_26_1723,59.6338733696,verb_norming_oral_input,001,916,
,,,,,,,,,,,,,,,,,,,,,,,,,,,,space,7.07747504205,,,,,2018_Jun_26_1723,59.6338733696,verb_norming_oral_input,001,916,
STRUT,svassa,lunka,strosa,2,lunka,svassa,strosa,Arm,arm,0,0,0,90,0,0,0,0,,,,,,,,,,,,,1,9.91,,,2018_Jun_26_1723,59.6338733696,verb_norming_oral_input,001,916,
STRUT,svassa,lunka,strosa,2,lunka,svassa,strosa,Leg,leg,0,0,0,90,0,1,1,1,,,,,,,,,,,,,7,2.829,,,2018_Jun_26_1723,59.6338733696,verb_norming_oral_input,001,916,
STRUT,svassa,lunka,strosa,2,lunka,svassa,strosa,,,0,0,0,90,,,,,,,,,,,,,,,,,,,return,68.7780543091,2018_Jun_26_1723,59.6338733696,verb_norming_oral_input,001,916,
GRIP,gripa om,hålla om,kasta om,2,kasta om,gripa om,hålla om,Arm,arm,0,1,1,29,0,0,0,0,,,,,,,,,,,,,7,6.078,,,2018_Jun_26_1723,59.6338733696,verb_norming_oral_input,001,916,
GRIP,gripa om,hålla om,kasta om,2,kasta om,gripa om,hålla om,Leg,leg,0,1,1,29,0,1,1,1,,,,,,,,,,,,,4,10.746,,,2018_Jun_26_1723,59.6338733696,verb_norming_oral_input,001,916,
GRIP,gripa om,hålla om,kasta om,2,kasta om,gripa om,hålla om,,,0,1,1,29,,,,,,,,,,,,,,,,,,,return,7.84922975776,2018_Jun_26_1723,59.6338733696,verb_norming_oral_input,001,916,
CATCH,fånga,krama,omfamna,3,krama,omfamna,fånga,Arm,arm,0,2,2,6,0,0,0,0,,,,,,,,,,,,,7,5.929,,,2018_Jun_26_1723,59.6338733696,verb_norming_oral_input,001,916,
CATCH,fånga,krama,omfamna,3,krama,omfamna,fånga,Leg,leg,0,2,2,6,0,1,1,1,,,,,,,,,,,,,3,1.169,,,2018_Jun_26_1723,59.6338733696,verb_norming_oral_input,001,916,
CATCH,fånga,krama,omfamna,3,krama,omfamna,fånga,,,0,2,2,6,,,,,,,,,,,,,,,,,,,return,1.8618743819,2018_Jun_26_1723,59.6338733696,verb_norming_oral_input,001,916,
TRAIPSE,traska,stappla,vandra,3,stappla,vandra,traska,Arm,arm,0,3,3,97,0,0,0,0,,,,,,,,,,,,,1,15.135,,,2018_Jun_26_1723,59.6338733696,verb_norming_oral_input,001,916,
TRAIPSE,traska,stappla,vandra,3,stappla,vandra,traska,Leg,leg,0,3,3,97,0,1,1,1,,,,,,,,,,,,,7,4.59,,,2018_Jun_26_1723,59.6338733696,verb_norming_oral_input,001,916,
TRAIPSE,traska,stappla,vandra,3,stappla,vandra,traska,,,0,3,3,97,,,,,,,,,,,,,,,,,,,return,20.2766874348,2018_Jun_26_1723,59.6338733696,verb_norming_oral_input,001,916,
PLOD,lunka,pulsa,vingla,3,vingla,pulsa,lunka,Arm,arm,0,4,4,49,0,0,0,0,,,,,,,,,,,,,1,20.468,,,2018_Jun_26_1723,59.6338733696,verb_norming_oral_input,001,916,
PLOD,lunka,pulsa,vingla,3,vingla,pulsa,lunka,Leg,leg,0,4,4,49,0,1,1,1,,,,,,,,,,,,,7,0.851,,,2018_Jun_26_1723,59.6338733696,verb_norming_oral_input,001,916,
PLOD,lunka,pulsa,vingla,3,vingla,pulsa,lunka,,,0,4,4,49,,,,,,,,,,,,,,,,,,,return,19.7230427068,2018_Jun_26_1723,59.6338733696,verb_norming_oral_input,001,916,
FOLD,vika ihop,knyta ihop,bunta ihop,1,vika ihop,knyta ihop,bunta ihop,Arm,arm,0,5,5,24,0,0,0,0,,,,,,,,,,,,,7,9.049,,,2018_Jun_26_1723,59.6338733696,verb_norming_oral_input,001,916,
FOLD,vika ihop,knyta ihop,bunta ihop,1,vika ihop,knyta ihop,bunta ihop,Leg,leg,0,5,5,24,0,1,1,1,,,,,,,,,,,,,7,3.266,,,2018_Jun_26_1723,59.6338733696,verb_norming_oral_input,001,916,
FOLD,vika ihop,knyta ihop,bunta ihop,1,vika ihop,knyta ihop,bunta ihop,,,0,5,5,24,,,,,,,,,,,,,,,,,,,return,2.01305553591,2018_Jun_26_1723,59.6338733696,verb_norming_oral_input,001,916,
STRAY,ströva,vandra,promenera,1,ströva,vandra,promenera,Arm,arm,0,6,6,87,0,0,0,0,,,,,,,,,,,,,1,13.979,,,2018_Jun_26_1723,59.6338733696,verb_norming_oral_input,001,916,
STRAY,ströva,vandra,promenera,1,ströva,vandra,promenera,Leg,leg,0,6,6,87,0,1,1,1,,,,,,,,,,,,,7,2.594,,,2018_Jun_26_1723,59.6338733696,verb_norming_oral_input,001,916,
STRAY,ströva,vandra,promenera,1,ströva,vandra,promenera,,,0,6,6,87,,,,,,,,,,,,,,,,,,,return,5.83671670439,2018_Jun_26_1723,59.6338733696,verb_norming_oral_input,001,916,
ROLL,vingla,snubbla,svassa,1,vingla,svassa,snubbla,Arm,arm,0,7,7,59,0,0,0,0,,,,,,,,,,,,,7,12.068,,,2018_Jun_26_1723,59.6338733696,verb_norming_oral_input,001,916,
ROLL,vingla,snubbla,svassa,1,vingla,svassa,snubbla,Leg,leg,0,7,7,59,0,1,1,1,,,,,,,,,,,,,1,1.169,,,2018_Jun_26_1723,59.6338733696,verb_norming_oral_input,001,916,
ROLL,vingla,snubbla,svassa,1,vingla,svassa,snubbla,,,0,7,7,59,,,,,,,,,,,,,,,,,,,return,2.31616222638,2018_Jun_26_1723,59.6338733696,verb_norming_oral_input,001,916,
FILE,fila,putsa,riva,3,putsa,riva,fila,Arm,arm,0,8,8,21,0,0,0,0,,,,,,,,,,,,,7,8.965,,,2018_Jun_26_1723,59.6338733696,verb_norming_oral_input,001,916,
FILE,fila,putsa,riva,3,putsa,riva,fila,Leg,leg,0,8,8,21,0,1,1,1,,,,,,,,,,,,,1,1.287,,,2018_Jun_26_1723,59.6338733696,verb_norming_oral_input,001,916,
FILE,fila,putsa,riva,3,putsa,riva,fila,,,0,8,8,21,,,,,,,,,,,,,,,,,,,return,1.57689877781,2018_Jun_26_1723,59.6338733696,verb_norming_oral_input,001,916,
PAT,klappa,slå,borsta,3,borsta,slå,klappa,Arm,arm,0,9,9,46,0,0,0,0,,,,,,,,,,,,,7,5.209,,,2018_Jun_26_1723,59.6338733696,verb_norming_oral_input,001,916,
PAT,klappa,slå,borsta,3,borsta,slå,klappa,Leg,leg,0,9,9,46,0,1,1,1,,,,,,,,,,,,,1,2.294,,,2018_Jun_26_1723,59.6338733696,verb_norming_oral_input,001,916,
PAT,klappa,slå,borsta,3,borsta,slå,klappa,,,0,9,9,46,,,,,,,,,,,,,,,,,,,return,1.91230273766,2018_Jun_26_1723,59.6338733696,verb_norming_oral_input,001,916,
GRAB,gripa tag i,fästa ihop,smälla till,1,gripa tag i,fästa ihop,smälla till,Arm,arm,0,10,10,26,0,0,0,0,,,,,,,,,,,,,7,8.378,,,2018_Jun_26_1723,59.6338733696,verb_norming_oral_input,001,916,
GRAB,gripa tag i,fästa ihop,smälla till,1,gripa tag i,fästa ihop,smälla till,Leg,leg,0,10,10,26,0,1,1,1,,,,,,,,,,,,,5,5.379,,,2018_Jun_26_1723,59.6338733696,verb_norming_oral_input,001,916,
GRAB,gripa tag i,fästa ihop,smälla till,1,gripa tag i,fästa ihop,smälla till,,,0,10,10,26,,,,,,,,,,,,,,,,,,,return,3.06950335387,2018_Jun_26_1723,59.6338733696,verb_norming_oral_input,001,916,
PEEL,skala,rensa,plocka,2,plocka,skala,rensa,Arm,arm,0,11,11,47,0,0,0,0,,,,,,,,,,,,,7,4.772,,,2018_Jun_26_1723,59.6338733696,verb_norming_oral_input,001,916,
PEEL,skala,rensa,plocka,2,plocka,skala,rensa,Leg,leg,0,11,11,47,0,1,1,1,,,,,,,,,,,,,1,3.082,,,2018_Jun_26_1723,59.6338733696,verb_norming_oral_input,001,916,
PEEL,skala,rensa,plocka,2,plocka,skala,rensa,,,0,11,11,47,,,,,,,,,,,,,,,,,,,return,2.39862431484,2018_Jun_26_1723,59.6338733696,verb_norming_oral_input,001,916,
RUSH,rusa,springa,löpa,3,löpa,springa,rusa,Arm,arm,0,12,12,62,0,0,0,0,,,,,,,,,,,,,2,6.802,,,2018_Jun_26_1723,59.6338733696,verb_norming_oral_input,001,916,
RUSH,rusa,springa,löpa,3,löpa,springa,rusa,Leg,leg,0,12,12,62,0,1,1,1,,,,,,,,,,,,,7,2.167,,,2018_Jun_26_1723,59.6338733696,verb_norming_oral_input,001,916,
RUSH,rusa,springa,löpa,3,löpa,springa,rusa,,,0,12,12,62,,,,,,,,,,,,,,,,,,,return,3.20358228133,2018_Jun_26_1723,59.6338733696,verb_norming_oral_input,001,916,
SWITCH,slå på/av,knäppa,nypa,2,knäppa,slå på/av,nypa,Arm,arm,0,13,13,93,0,0,0,0,,,,,,,,,,,,,7,10.214,,,2018_Jun_26_1723,59.6338733696,verb_norming_oral_input,001,916,
SWITCH,slå på/av,knäppa,nypa,2,knäppa,slå på/av,nypa,Leg,leg,0,13,13,93,0,1,1,1,,,,,,,,,,,,,3,2.41,,,2018_Jun_26_1723,59.6338733696,verb_norming_oral_input,001,916,
SWITCH,slå på/av,knäppa,nypa,2,knäppa,slå på/av,nypa,,,0,13,13,93,,,,,,,,,,,,,,,,,,,return,2.23083284307,2018_Jun_26_1723,59.6338733696,verb_norming_oral_input,001,916,
CARVE,tälja,hacka,riva,3,hacka,riva,tälja,Arm,arm,0,14,14,5,0,0,0,0,,,,,,,,,,,,,7,5.108,,,2018_Jun_26_1723,59.6338733696,verb_norming_oral_input,001,916,
CARVE,tälja,hacka,riva,3,hacka,riva,tälja,Leg,leg,0,14,14,5,0,1,1,1,,,,,,,,,,,,,1,1.471,,,2018_Jun_26_1723,59.6338733696,verb_norming_oral_input,001,916,
CARVE,tälja,hacka,riva,3,hacka,riva,tälja,,,0,14,14,5,,,,,,,,,,,,,,,,,,,return,2.06318835128,2018_Jun_26_1723,59.6338733696,verb_norming_oral_input,001,916,
THROW,kasta,greppa,träffa,3,greppa,träffa,kasta,Arm,arm,0,15,15,94,0,0,0,0,,,,,,,,,,,,,7,4.52,,,2018_Jun_26_1723,59.6338733696,verb_norming_oral_input,001,916,
THROW,kasta,greppa,träffa,3,greppa,träffa,kasta,Leg,leg,0,15,15,94,0,1,1,1,,,,,,,,,,,,,1,1.119,,,2018_Jun_26_1723,59.6338733696,verb_norming_oral_input,001,916,
THROW,kasta,greppa,träffa,3,greppa,träffa,kasta,,,0,15,15,94,,,,,,,,,,,,,,,,,,,return,1.76119941983,2018_Jun_26_1723,59.6338733696,verb_norming_oral_input,001,916,
STAB,sticka,hacka,skära,2,skära,sticka,hacka,Arm,arm,0,16,16,81,0,0,0,0,,,,,,,,,,,,,7,7.305,,,2018_Jun_26_1723,59.6338733696,verb_norming_oral_input,001,916,
STAB,sticka,hacka,skära,2,skära,sticka,hacka,Leg,leg,0,16,16,81,0,1,1,1,,,,,,,,,,,,,1,1.321,,,2018_Jun_26_1723,59.6338733696,verb_norming_oral_input,001,916,
STAB,sticka,hacka,skära,2,skära,sticka,hacka,,,0,16,16,81,,,,,,,,,,,,,,,,,,,return,3.94147984339,2018_Jun_26_1723,59.6338733696,verb_norming_oral_input,001,916,
CLICK,klicka,klappa,klämma,2,klämma,klicka,klappa,Arm,arm,0,17,17,11,0,0,0,0,,,,,,,,,,,,,7,3.229,,,2018_Jun_26_1723,59.6338733696,verb_norming_oral_input,001,916,
CLICK,klicka,klappa,klämma,2,klämma,klicka,klappa,Leg,leg,0,17,17,11,0,1,1,1,,,,,,,,,,,,,1,1.186,,,2018_Jun_26_1723,59.6338733696,verb_norming_oral_input,001,916,
CLICK,klicka,klappa,klämma,2,klämma,klicka,klappa,,,0,17,17,11,,,,,,,,,,,,,,,,,,,return,2.33155521805,2018_Jun_26_1723,59.6338733696,verb_norming_oral_input,001,916,
GRASP,gripa,klämma,omfamna,3,klämma,omfamna,gripa,Arm,arm,0,18,18,27,0,0,0,0,,,,,,,,,,,,,7,6.5,,,2018_Jun_26_1723,59.6338733696,verb_norming_oral_input,001,916,
GRASP,gripa,klämma,omfamna,3,klämma,omfamna,gripa,Leg,leg,0,18,18,27,0,1,1,1,,,,,,,,,,,,,3,0.582,,,2018_Jun_26_1723,59.6338733696,verb_norming_oral_input,001,916,
GRASP,gripa,klämma,omfamna,3,klämma,omfamna,gripa,,,0,18,18,27,,,,,,,,,,,,,,,,,,,return,3.38806427766,2018_Jun_26_1723,59.6338733696,verb_norming_oral_input,001,916,
WANDER,vandra,marschera,spatsera,1,vandra,marschera,spatsera,Arm,arm,0,19,19,106,0,0,0,0,,,,,,,,,,,,,1,10.171,,,2018_Jun_26_1723,59.6338733696,verb_norming_oral_input,001,916,
WANDER,vandra,marschera,spatsera,1,vandra,marschera,spatsera,Leg,leg,0,19,19,106,0,1,1,1,,,,,,,,,,,,,7,1.555,,,2018_Jun_26_1723,59.6338733696,verb_norming_oral_input,001,916,
WANDER,vandra,marschera,spatsera,1,vandra,marschera,spatsera,,,0,19,19,106,,,,,,,,,,,,,,,,,,,return,1.69428639048,2018_Jun_26_1723,59.6338733696,verb_norming_oral_input,001,916,
SCRUB,skrubba,sopa,skrapa,2,sopa,skrubba,skrapa,Arm,arm,0,20,20,66,0,0,0,0,,,,,,,,,,,,,7,5.04,,,2018_Jun_26_1723,59.6338733696,verb_norming_oral_input,001,916,
SCRUB,skrubba,sopa,skrapa,2,sopa,skrubba,skrapa,Leg,leg,0,20,20,66,0,1,1,1,,,,,,,,,,,,,1,1.957,,,2018_Jun_26_1723,59.6338733696,verb_norming_oral_input,001,916,
SCRUB,skrubba,sopa,skrapa,2,sopa,skrubba,skrapa,,,0,20,20,66,,,,,,,,,,,,,,,,,,,return,1.62698062433,2018_Jun_26_1723,59.6338733696,verb_norming_oral_input,001,916,
PACE,gå fram och tillbaka,luffa runt,rusa fram,3,luffa runt,rusa fram,gå fram och tillbaka,Arm,arm,0,21,21,45,0,0,0,0,,,,,,,,,,,,,3,7.053,,,2018_Jun_26_1723,59.6338733696,verb_norming_oral_input,001,916,
PACE,gå fram och tillbaka,luffa runt,rusa fram,3,luffa runt,rusa fram,gå fram och tillbaka,Leg,leg,0,21,21,45,0,1,1,1,,,,,,,,,,,,,7,3.853,,,2018_Jun_26_1723,59.6338733696,verb_norming_oral_input,001,916,
PACE,gå fram och tillbaka,luffa runt,rusa fram,3,luffa runt,rusa fram,gå fram och tillbaka,,,0,21,21,45,,,,,,,,,,,,,,,,,,,return,3.28745490342,2018_Jun_26_1723,59.6338733696,verb_norming_oral_input,001,916,
BRUSH,borsta,skrubba,putsa,3,skrubba,putsa,borsta,Arm,arm,0,22,22,4,0,0,0,0,,,,,,,,,,,,,7,5.645,,,2018_Jun_26_1723,59.6338733696,verb_norming_oral_input,001,916,
BRUSH,borsta,skrubba,putsa,3,skrubba,putsa,borsta,Leg,leg,0,22,22,4,0,1,1,1,,,,,,,,,,,,,1,1.924,,,2018_Jun_26_1723,59.6338733696,verb_norming_oral_input,001,916,
BRUSH,borsta,skrubba,putsa,3,skrubba,putsa,borsta,,,0,22,22,4,,,,,,,,,,,,,,,,,,,return,2.0462481188,2018_Jun_26_1723,59.6338733696,verb_norming_oral_input,001,916,
SLITHER,hasa,glida,trilla,1,hasa,glida,trilla,Arm,arm,0,23,23,76,0,0,0,0,,,,,,,,,,,,,3,8.912,,,2018_Jun_26_1723,59.6338733696,verb_norming_oral_input,001,916,
SLITHER,hasa,glida,trilla,1,hasa,glida,trilla,Leg,leg,0,23,23,76,0,1,1,1,,,,,,,,,,,,,3,0.497,,,2018_Jun_26_1723,59.6338733696,verb_norming_oral_input,001,916,
SLITHER,hasa,glida,trilla,1,hasa,glida,trilla,,,0,23,23,76,,,,,,,,,,,,,,,,,,,return,2.58316755283,2018_Jun_26_1723,59.6338733696,verb_norming_oral_input,001,916,
POLISH,polera,sopa,tvätta,2,sopa,polera,tvätta,Arm,arm,0,24,24,52,0,0,0,0,,,,,,,,,,,,,7,4.051,,,2018_Jun_26_1723,59.6338733696,verb_norming_oral_input,001,916,
POLISH,polera,sopa,tvätta,2,sopa,polera,tvätta,Leg,leg,0,24,24,52,0,1,1,1,,,,,,,,,,,,,1,0.8,,,2018_Jun_26_1723,59.6338733696,verb_norming_oral_input,001,916,
POLISH,polera,sopa,tvätta,2,sopa,polera,tvätta,,,0,24,24,52,,,,,,,,,,,,,,,,,,,return,2.08009578985,2018_Jun_26_1723,59.6338733696,verb_norming_oral_input,001,916,
KNOCK,knacka,krocka,klicka,1,knacka,klicka,krocka,Arm,arm,0,25,25,38,0,0,0,0,,,,,,,,,,,,,7,3.364,,,2018_Jun_26_1723,59.6338733696,verb_norming_oral_input,001,916,
KNOCK,knacka,krocka,klicka,1,knacka,klicka,krocka,Leg,leg,0,25,25,38,0,1,1,1,,,,,,,,,,,,,1,1.453,,,2018_Jun_26_1723,59.6338733696,verb_norming_oral_input,001,916,
KNOCK,knacka,krocka,klicka,1,knacka,klicka,krocka,,,0,25,25,38,,,,,,,,,,,,,,,,,,,return,4.14284912782,2018_Jun_26_1723,59.6338733696,verb_norming_oral_input,001,916,
STEP,gå,klampa,traska,2,traska,gå,klampa,Arm,arm,0,26,26,84,0,0,0,0,,,,,,,,,,,,,1,9.515,,,2018_Jun_26_1723,59.6338733696,verb_norming_oral_input,001,916,
STEP,gå,klampa,traska,2,traska,gå,klampa,Leg,leg,0,26,26,84,0,1,1,1,,,,,,,,,,,,,7,1.589,,,2018_Jun_26_1723,59.6338733696,verb_norming_oral_input,001,916,
STEP,gå,klampa,traska,2,traska,gå,klampa,,,0,26,26,84,,,,,,,,,,,,,,,,,,,return,2.41541085052,2018_Jun_26_1723,59.6338733696,verb_norming_oral_input,001,916,
CREEP,krypa,knäböja,klättra,3,knäböja,klättra,krypa,Arm,arm,0,27,27,15,0,0,0,0,,,,,,,,,,,,,2,8.412,,,2018_Jun_26_1723,59.6338733696,verb_norming_oral_input,001,916,
CREEP,krypa,knäböja,klättra,3,knäböja,klättra,krypa,Leg,leg,0,27,27,15,0,1,1,1,,,,,,,,,,,,,7,2.327,,,2018_Jun_26_1723,59.6338733696,verb_norming_oral_input,001,916,
CREEP,krypa,knäböja,klättra,3,knäböja,klättra,krypa,,,0,27,27,15,,,,,,,,,,,,,,,,,,,return,2.38173584142,2018_Jun_26_1723,59.6338733696,verb_norming_oral_input,001,916,
SNATCH,rycka till sig,knuffa ifrån sig,plocka åt sig,1,rycka till sig,knuffa ifrån sig,plocka åt sig,Arm,arm,0,28,28,77,0,0,0,0,,,,,,,,,,,,,7,7.891,,,2018_Jun_26_1723,59.6338733696,verb_norming_oral_input,001,916,
SNATCH,rycka till sig,knuffa ifrån sig,plocka åt sig,1,rycka till sig,knuffa ifrån sig,plocka åt sig,Leg,leg,0,28,28,77,0,1,1,1,,,,,,,,,,,,,1,2.745,,,2018_Jun_26_1723,59.6338733696,verb_norming_oral_input,001,916,
SNATCH,rycka till sig,knuffa ifrån sig,plocka åt sig,1,rycka till sig,knuffa ifrån sig,plocka åt sig,,,0,28,28,77,,,,,,,,,,,,,,,,,,,return,3.33764817024,2018_Jun_26_1723,59.6338733696,verb_norming_oral_input,001,916,
TRUDGE,släpa sig fram,kasta sig fram,ta sig fram,1,släpa sig fram,ta sig fram,kasta sig fram,Arm,arm,0,29,29,101,0,0,0,0,,,,,,,,,,,,,1,16.31,,,2018_Jun_26_1723,59.6338733696,verb_norming_oral_input,001,916,
TRUDGE,släpa sig fram,kasta sig fram,ta sig fram,1,släpa sig fram,ta sig fram,kasta sig fram,Leg,leg,0,29,29,101,0,1,1,1,,,,,,,,,,,,,7,0.85,,,2018_Jun_26_1723,59.6338733696,verb_norming_oral_input,001,916,
TRUDGE,släpa sig fram,kasta sig fram,ta sig fram,1,släpa sig fram,ta sig fram,kasta sig fram,,,0,29,29,101,,,,,,,,,,,,,,,,,,,return,8.01681063724,2018_Jun_26_1723,59.6338733696,verb_norming_oral_input,001,916,
FLEE,fly,lyfta,flyga,2,lyfta,fly,flyga,Arm,arm,0,30,30,22,0,0,0,0,,,,,,,,,,,,,1,5.041,,,2018_Jun_26_1723,59.6338733696,verb_norming_oral_input,001,916,
FLEE,fly,lyfta,flyga,2,lyfta,fly,flyga,Leg,leg,0,30,30,22,0,1,1,1,,,,,,,,,,,,,7,0.583,,,2018_Jun_26_1723,59.6338733696,verb_norming_oral_input,001,916,
FLEE,fly,lyfta,flyga,2,lyfta,fly,flyga,,,0,30,30,22,,,,,,,,,,,,,,,,,,,return,1.57673520332,2018_Jun_26_1723,59.6338733696,verb_norming_oral_input,001,916,
KNEEL,knäböja,krypa,kräla,3,kräla,krypa,knäböja,Arm,arm,0,31,31,37,0,0,0,0,,,,,,,,,,,,,1,3.313,,,2018_Jun_26_1723,59.6338733696,verb_norming_oral_input,001,916,
KNEEL,knäböja,krypa,kräla,3,kräla,krypa,knäböja,Leg,leg,0,31,31,37,0,1,1,1,,,,,,,,,,,,,7,1.136,,,2018_Jun_26_1723,59.6338733696,verb_norming_oral_input,001,916,
KNEEL,knäböja,krypa,kräla,3,kräla,krypa,knäböja,,,0,31,31,37,,,,,,,,,,,,,,,,,,,return,2.5999165533,2018_Jun_26_1723,59.6338733696,verb_norming_oral_input,001,916,
WRAP,slå in,slå ihop,slå till,2,slå ihop,slå in,slå till,Arm,arm,0,32,32,111,0,0,0,0,,,,,,,,,,,,,7,5.259,,,2018_Jun_26_1723,59.6338733696,verb_norming_oral_input,001,916,
WRAP,slå in,slå ihop,slå till,2,slå ihop,slå in,slå till,Leg,leg,0,32,32,111,0,1,1,1,,,,,,,,,,,,,7,3.065,,,2018_Jun_26_1723,59.6338733696,verb_norming_oral_input,001,916,
WRAP,slå in,slå ihop,slå till,2,slå ihop,slå in,slå till,,,0,32,32,111,,,,,,,,,,,,,,,,,,,return,15.2619605944,2018_Jun_26_1723,59.6338733696,verb_norming_oral_input,001,916,
TOSS,slänga,fånga,gripa,3,gripa,fånga,slänga,Arm,arm,0,33,33,96,0,0,0,0,,,,,,,,,,,,,7,2.442,,,2018_Jun_26_1723,59.6338733696,verb_norming_oral_input,001,916,
TOSS,slänga,fånga,gripa,3,gripa,fånga,slänga,Leg,leg,0,33,33,96,0,1,1,1,,,,,,,,,,,,,1,0.968,,,2018_Jun_26_1723,59.6338733696,verb_norming_oral_input,001,916,
TOSS,slänga,fånga,gripa,3,gripa,fånga,slänga,,,0,33,33,96,,,,,,,,,,,,,,,,,,,return,1.44272067838,2018_Jun_26_1723,59.6338733696,verb_norming_oral_input,001,916,
INCH,röra sig långsamt framåt,dra sig snabbt tillbaka,hasa sig bakåt,2,hasa sig bakåt,röra sig långsamt framåt,dra sig snabbt tillbaka,Arm,arm,0,34,34,33,0,0,0,0,,,,,,,,,,,,,3,26.441,,,2018_Jun_26_1723,59.6338733696,verb_norming_oral_input,001,916,
INCH,röra sig långsamt framåt,dra sig snabbt tillbaka,hasa sig bakåt,2,hasa sig bakåt,röra sig långsamt framåt,dra sig snabbt tillbaka,Leg,leg,0,34,34,33,0,1,1,1,,,,,,,,,,,,,3,1.136,,,2018_Jun_26_1723,59.6338733696,verb_norming_oral_input,001,916,
INCH,röra sig långsamt framåt,dra sig snabbt tillbaka,hasa sig bakåt,2,hasa sig bakåt,röra sig långsamt framåt,dra sig snabbt tillbaka,,,0,34,34,33,,,,,,,,,,,,,,,,,,,return,8.28530156775,2018_Jun_26_1723,59.6338733696,verb_norming_oral_input,001,916,
BASH,slå,knuffa,trycka,2,trycka,slå,knuffa,Arm,arm,0,35,35,0,0,0,0,0,,,,,,,,,,,,,7,6.365,,,2018_Jun_26_1723,59.6338733696,verb_norming_oral_input,001,916,
BASH,slå,knuffa,trycka,2,trycka,slå,knuffa,Leg,leg,0,35,35,0,0,1,1,1,,,,,,,,,,,,,2,1.774,,,2018_Jun_26_1723,59.6338733696,verb_norming_oral_input,001,916,
BASH,slå,knuffa,trycka,2,trycka,slå,knuffa,,,0,35,35,0,,,,,,,,,,,,,,,,,,,return,2.56637825139,2018_Jun_26_1723,59.6338733696,verb_norming_oral_input,001,916,
STIR,röra,sleva,vispa,2,sleva,röra,vispa,Arm,arm,0,36,36,85,0,0,0,0,,,,,,,,,,,,,7,2.441,,,2018_Jun_26_1723,59.6338733696,verb_norming_oral_input,001,916,
STIR,röra,sleva,vispa,2,sleva,röra,vispa,Leg,leg,0,36,36,85,0,1,1,1,,,,,,,,,,,,,1,0.732,,,2018_Jun_26_1723,59.6338733696,verb_norming_oral_input,001,916,
STIR,röra,sleva,vispa,2,sleva,röra,vispa,,,0,36,36,85,,,,,,,,,,,,,,,,,,,return,1.40911165223,2018_Jun_26_1723,59.6338733696,verb_norming_oral_input,001,916,
STROLL,strosa,trava,marschera,1,strosa,trava,marschera,Arm,arm,0,37,37,89,0,0,0,0,,,,,,,,,,,,,1,4.403,,,2018_Jun_26_1723,59.6338733696,verb_norming_oral_input,001,916,
STROLL,strosa,trava,marschera,1,strosa,trava,marschera,Leg,leg,0,37,37,89,0,1,1,1,,,,,,,,,,,,,7,1.336,,,2018_Jun_26_1723,59.6338733696,verb_norming_oral_input,001,916,
STROLL,strosa,trava,marschera,1,strosa,trava,marschera,,,0,37,37,89,,,,,,,,,,,,,,,,,,,return,4.02525131798,2018_Jun_26_1723,59.6338733696,verb_norming_oral_input,001,916,
DANCE,dansa,snurra,svänga,3,svänga,snurra,dansa,Arm,arm,0,38,38,17,0,0,0,0,,,,,,,,,,,,,5,4.185,,,2018_Jun_26_1723,59.6338733696,verb_norming_oral_input,001,916,
DANCE,dansa,snurra,svänga,3,svänga,snurra,dansa,Leg,leg,0,38,38,17,0,1,1,1,,,,,,,,,,,,,7,1.052,,,2018_Jun_26_1723,59.6338733696,verb_norming_oral_input,001,916,
DANCE,dansa,snurra,svänga,3,svänga,snurra,dansa,,,0,38,38,17,,,,,,,,,,,,,,,,,,,return,1.86205771177,2018_Jun_26_1723,59.6338733696,verb_norming_oral_input,001,916,
POKE,peta,trycka,knuffa,3,trycka,knuffa,peta,Arm,arm,0,39,39,51,0,0,0,0,,,,,,,,,,,,,7,3.8,,,2018_Jun_26_1723,59.6338733696,verb_norming_oral_input,001,916,
POKE,peta,trycka,knuffa,3,trycka,knuffa,peta,Leg,leg,0,39,39,51,0,1,1,1,,,,,,,,,,,,,3,2.646,,,2018_Jun_26_1723,59.6338733696,verb_norming_oral_input,001,916,
POKE,peta,trycka,knuffa,3,trycka,knuffa,peta,,,0,39,39,51,,,,,,,,,,,,,,,,,,,return,1.72788119276,2018_Jun_26_1723,59.6338733696,verb_norming_oral_input,001,916,
JOG,jogga,spurta,rusa,1,jogga,rusa,spurta,Arm,arm,0,40,40,34,0,0,0,0,,,,,,,,,,,,,3,4.466,,,2018_Jun_26_1723,59.6338733696,verb_norming_oral_input,001,916,
JOG,jogga,spurta,rusa,1,jogga,rusa,spurta,Leg,leg,0,40,40,34,0,1,1,1,,,,,,,,,,,,,7,1.571,,,2018_Jun_26_1723,59.6338733696,verb_norming_oral_input,001,916,
JOG,jogga,spurta,rusa,1,jogga,rusa,spurta,,,0,40,40,34,,,,,,,,,,,,,,,,,,,return,1.22453364478,2018_Jun_26_1723,59.6338733696,verb_norming_oral_input,001,916,
CHOP,hacka,tälja,riva,1,hacka,tälja,riva,Arm,arm,0,41,41,7,0,0,0,0,,,,,,,,,,,,,7,6.03,,,2018_Jun_26_1723,59.6338733696,verb_norming_oral_input,001,916,
CHOP,hacka,tälja,riva,1,hacka,tälja,riva,Leg,leg,0,41,41,7,0,1,1,1,,,,,,,,,,,,,1,1.404,,,2018_Jun_26_1723,59.6338733696,verb_norming_oral_input,001,916,
CHOP,hacka,tälja,riva,1,hacka,tälja,riva,,,0,41,41,7,,,,,,,,,,,,,,,,,,,return,1.44260886297,2018_Jun_26_1723,59.6338733696,verb_norming_oral_input,001,916,
SKIP,hoppa,kliva,strutta,2,strutta,hoppa,kliva,Arm,arm,0,42,42,72,0,0,0,0,,,,,,,,,,,,,2,8.345,,,2018_Jun_26_1723,59.6338733696,verb_norming_oral_input,001,916,
SKIP,hoppa,kliva,strutta,2,strutta,hoppa,kliva,Leg,leg,0,42,42,72,0,1,1,1,,,,,,,,,,,,,7,2.612,,,2018_Jun_26_1723,59.6338733696,verb_norming_oral_input,001,916,
SKIP,hoppa,kliva,strutta,2,strutta,hoppa,kliva,,,0,42,42,72,,,,,,,,,,,,,,,,,,,return,2.54944157487,2018_Jun_26_1723,59.6338733696,verb_norming_oral_input,001,916,
BIND,binda,linda,vinda,3,vinda,linda,binda,Arm,arm,0,43,43,1,0,0,0,0,,,,,,,,,,,,,7,4.337,,,2018_Jun_26_1723,59.6338733696,verb_norming_oral_input,001,916,
BIND,binda,linda,vinda,3,vinda,linda,binda,Leg,leg,0,43,43,1,0,1,1,1,,,,,,,,,,,,,1,2.478,,,2018_Jun_26_1723,59.6338733696,verb_norming_oral_input,001,916,
BIND,binda,linda,vinda,3,vinda,linda,binda,,,0,43,43,1,,,,,,,,,,,,,,,,,,,return,1.74457724885,2018_Jun_26_1723,59.6338733696,verb_norming_oral_input,001,916,
CRAWL,kravla,huka,klättra,3,huka,klättra,kravla,Arm,arm,0,44,44,14,0,0,0,0,,,,,,,,,,,,,7,10.474,,,2018_Jun_26_1723,59.6338733696,verb_norming_oral_input,001,916,
CRAWL,kravla,huka,klättra,3,huka,klättra,kravla,Leg,leg,0,44,44,14,0,1,1,1,,,,,,,,,,,,,7,0.582,,,2018_Jun_26_1723,59.6338733696,verb_norming_oral_input,001,916,
CRAWL,kravla,huka,klättra,3,huka,klättra,kravla,,,0,44,44,14,,,,,,,,,,,,,,,,,,,return,1.77812779909,2018_Jun_26_1723,59.6338733696,verb_norming_oral_input,001,916,
PUNCH,slå,knuffa,kasta,3,kasta,knuffa,slå,Arm,arm,0,45,45,55,0,0,0,0,,,,,,,,,,,,,7,4.118,,,2018_Jun_26_1723,59.6338733696,verb_norming_oral_input,001,916,
PUNCH,slå,knuffa,kasta,3,kasta,knuffa,slå,Leg,leg,0,45,45,55,0,1,1,1,,,,,,,,,,,,,1,1.924,,,2018_Jun_26_1723,59.6338733696,verb_norming_oral_input,001,916,
PUNCH,slå,knuffa,kasta,3,kasta,knuffa,slå,,,0,45,45,55,,,,,,,,,,,,,,,,,,,return,2.39853739119,2018_Jun_26_1723,59.6338733696,verb_norming_oral_input,001,916,
BOUNCE,studsa,dunka,kasta,1,studsa,kasta,dunka,Arm,arm,0,46,46,2,0,0,0,0,,,,,,,,,,,,,1,5.174,,,2018_Jun_26_1723,59.6338733696,verb_norming_oral_input,001,916,
BOUNCE,studsa,dunka,kasta,1,studsa,kasta,dunka,Leg,leg,0,46,46,2,0,1,1,1,,,,,,,,,,,,,7,1.017,,,2018_Jun_26_1723,59.6338733696,verb_norming_oral_input,001,916,
BOUNCE,studsa,dunka,kasta,1,studsa,kasta,dunka,,,0,46,46,2,,,,,,,,,,,,,,,,,,,return,1.49291592074,2018_Jun_26_1723,59.6338733696,verb_norming_oral_input,001,916,
PINCH,nypa,plocka,pensla,2,plocka,nypa,pensla,Arm,arm,0,47,47,48,0,0,0,0,,,,,,,,,,,,,7,2.642,,,2018_Jun_26_1723,59.6338733696,verb_norming_oral_input,001,916,
PINCH,nypa,plocka,pensla,2,plocka,nypa,pensla,Leg,leg,0,47,47,48,0,1,1,1,,,,,,,,,,,,,3,1.572,,,2018_Jun_26_1723,59.6338733696,verb_norming_oral_input,001,916,
PINCH,nypa,plocka,pensla,2,plocka,nypa,pensla,,,0,47,47,48,,,,,,,,,,,,,,,,,,,return,1.62713590156,2018_Jun_26_1723,59.6338733696,verb_norming_oral_input,001,916,
HACK,hacka,skära,kåpa,1,hacka,skära,kåpa,Arm,arm,0,48,48,30,0,0,0,0,,,,,,,,,,,,,7,11.229,,,2018_Jun_26_1723,59.6338733696,verb_norming_oral_input,001,916,
HACK,hacka,skära,kåpa,1,hacka,skära,kåpa,Leg,leg,0,48,48,30,0,1,1,1,,,,,,,,,,,,,1,0.817,,,2018_Jun_26_1723,59.6338733696,verb_norming_oral_input,001,916,
HACK,hacka,skära,kåpa,1,hacka,skära,kåpa,,,0,48,48,30,,,,,,,,,,,,,,,,,,,return,1.25820312238,2018_Jun_26_1723,59.6338733696,verb_norming_oral_input,001,916,
NIP,nypa,peta,nudda,1,nypa,peta,nudda,Arm,arm,0,49,49,44,0,0,0,0,,,,,,,,,,,,,7,22.115,,,2018_Jun_26_1723,59.6338733696,verb_norming_oral_input,001,916,
NIP,nypa,peta,nudda,1,nypa,peta,nudda,Leg,leg,0,49,49,44,0,1,1,1,,,,,,,,,,,,,1,0.9,,,2018_Jun_26_1723,59.6338733696,verb_norming_oral_input,001,916,
NIP,nypa,peta,nudda,1,nypa,peta,nudda,,,0,49,49,44,,,,,,,,,,,,,,,,,,,return,11.4382168484,2018_Jun_26_1723,59.6338733696,verb_norming_oral_input,001,916,
SEIZE,fånga,klämma,fästa,1,fånga,fästa,klämma,Arm,arm,0,50,50,68,0,0,0,0,,,,,,,,,,,,,7,4.433,,,2018_Jun_26_1723,59.6338733696,verb_norming_oral_input,001,916,
SEIZE,fånga,klämma,fästa,1,fånga,fästa,klämma,Leg,leg,0,50,50,68,0,1,1,1,,,,,,,,,,,,,2,0.9,,,2018_Jun_26_1723,59.6338733696,verb_norming_oral_input,001,916,
SEIZE,fånga,klämma,fästa,1,fånga,fästa,klämma,,,0,50,50,68,,,,,,,,,,,,,,,,,,,return,1.56011421767,2018_Jun_26_1723,59.6338733696,verb_norming_oral_input,001,916,
PULL,dra,slänga,släpa,3,slänga,släpa,dra,Arm,arm,0,51,51,54,0,0,0,0,,,,,,,,,,,,,7,7.171,,,2018_Jun_26_1723,59.6338733696,verb_norming_oral_input,001,916,
PULL,dra,slänga,släpa,3,slänga,släpa,dra,Leg,leg,0,51,51,54,0,1,1,1,,,,,,,,,,,,,4,0.549,,,2018_Jun_26_1723,59.6338733696,verb_norming_oral_input,001,916,
PULL,dra,slänga,släpa,3,slänga,släpa,dra,,,0,51,51,54,,,,,,,,,,,,,,,,,,,return,2.81794949499,2018_Jun_26_1723,59.6338733696,verb_norming_oral_input,001,916,
FLIT,rusa,hasa,svassa,1,rusa,hasa,svassa,Arm,arm,0,52,52,23,0,0,0,0,,,,,,,,,,,,,3,10.222,,,2018_Jun_26_1723,59.6338733696,verb_norming_oral_input,001,916,
FLIT,rusa,hasa,svassa,1,rusa,hasa,svassa,Leg,leg,0,52,52,23,0,1,1,1,,,,,,,,,,,,,7,0.515,,,2018_Jun_26_1723,59.6338733696,verb_norming_oral_input,001,916,
FLIT,rusa,hasa,svassa,1,rusa,hasa,svassa,,,0,52,52,23,,,,,,,,,,,,,,,,,,,return,1.81172852798,2018_Jun_26_1723,59.6338733696,verb_norming_oral_input,001,916,
KICK,sparka,knäa,tåa,3,knäa,tåa,sparka,Arm,arm,0,53,53,36,0,0,0,0,,,,,,,,,,,,,1,5.324,,,2018_Jun_26_1723,59.6338733696,verb_norming_oral_input,001,916,
KICK,sparka,knäa,tåa,3,knäa,tåa,sparka,Leg,leg,0,53,53,36,0,1,1,1,,,,,,,,,,,,,7,0.985,,,2018_Jun_26_1723,59.6338733696,verb_norming_oral_input,001,916,
KICK,sparka,knäa,tåa,3,knäa,tåa,sparka,,,0,53,53,36,,,,,,,,,,,,,,,,,,,return,1.76128199729,2018_Jun_26_1723,59.6338733696,verb_norming_oral_input,001,916,
SCOOP,skyffla,dika,skrapa,1,skyffla,skrapa,dika,Arm,arm,0,54,54,63,0,0,0,0,,,,,,,,,,,,,7,3.246,,,2018_Jun_26_1723,59.6338733696,verb_norming_oral_input,001,916,
SCOOP,skyffla,dika,skrapa,1,skyffla,skrapa,dika,Leg,leg,0,54,54,63,0,1,1,1,,,,,,,,,,,,,3,2.595,,,2018_Jun_26_1723,59.6338733696,verb_norming_oral_input,001,916,
SCOOP,skyffla,dika,skrapa,1,skyffla,skrapa,dika,,,0,54,54,63,,,,,,,,,,,,,,,,,,,return,1.47622579127,2018_Jun_26_1723,59.6338733696,verb_norming_oral_input,001,916,
SCRAPE,skrapa,rispa,klösa,1,skrapa,klösa,rispa,Arm,arm,0,55,55,64,0,0,0,0,,,,,,,,,,,,,7,2.877,,,2018_Jun_26_1723,59.6338733696,verb_norming_oral_input,001,916,
SCRAPE,skrapa,rispa,klösa,1,skrapa,klösa,rispa,Leg,leg,0,55,55,64,0,1,1,1,,,,,,,,,,,,,1,0.817,,,2018_Jun_26_1723,59.6338733696,verb_norming_oral_input,001,916,
SCRAPE,skrapa,rispa,klösa,1,skrapa,klösa,rispa,,,0,55,55,64,,,,,,,,,,,,,,,,,,,return,1.44256184518,2018_Jun_26_1723,59.6338733696,verb_norming_oral_input,001,916,
ROAM,ströva omkring,ta sig fram,luffa runt,2,luffa runt,ströva omkring,ta sig fram,Arm,arm,0,56,56,58,0,0,0,0,,,,,,,,,,,,,2,25.314,,,2018_Jun_26_1723,59.6338733696,verb_norming_oral_input,001,916,
ROAM,ströva omkring,ta sig fram,luffa runt,2,luffa runt,ströva omkring,ta sig fram,Leg,leg,0,56,56,58,0,1,1,1,,,,,,,,,,,,,7,0.866,,,2018_Jun_26_1723,59.6338733696,verb_norming_oral_input,001,916,
ROAM,ströva omkring,ta sig fram,luffa runt,2,luffa runt,ströva omkring,ta sig fram,,,0,56,56,58,,,,,,,,,,,,,,,,,,,return,11.5723708463,2018_Jun_26_1723,59.6338733696,verb_norming_oral_input,001,916,
DIG,gräva,dränera,dika,2,dränera,gräva,dika,Arm,arm,0,57,57,19,0,0,0,0,,,,,,,,,,,,,7,3.129,,,2018_Jun_26_1723,59.6338733696,verb_norming_oral_input,001,916,
DIG,gräva,dränera,dika,2,dränera,gräva,dika,Leg,leg,0,57,57,19,0,1,1,1,,,,,,,,,,,,,1,2.412,,,2018_Jun_26_1723,59.6338733696,verb_norming_oral_input,001,916,
DIG,gräva,dränera,dika,2,dränera,gräva,dika,,,0,57,57,19,,,,,,,,,,,,,,,,,,,return,1.52645975416,2018_Jun_26_1723,59.6338733696,verb_norming_oral_input,001,916,
SKIM,skumma,vispa,sleva,2,sleva,skumma,vispa,Arm,arm,0,58,58,71,0,0,0,0,,,,,,,,,,,,,7,13.844,,,2018_Jun_26_1723,59.6338733696,verb_norming_oral_input,001,916,
SKIM,skumma,vispa,sleva,2,sleva,skumma,vispa,Leg,leg,0,58,58,71,0,1,1,1,,,,,,,,,,,,,3,0.512,,,2018_Jun_26_1723,59.6338733696,verb_norming_oral_input,001,916,
SKIM,skumma,vispa,sleva,2,sleva,skumma,vispa,,,0,58,58,71,,,,,,,,,,,,,,,,,,,return,3.69005478955,2018_Jun_26_1723,59.6338733696,verb_norming_oral_input,001,916,
LEAP,hoppa,stega,kliva,2,stega,hoppa,kliva,Arm,arm,0,59,59,39,0,0,0,0,,,,,,,,,,,,,1,5.695,,,2018_Jun_26_1723,59.6338733696,verb_norming_oral_input,001,916,
LEAP,hoppa,stega,kliva,2,stega,hoppa,kliva,Leg,leg,0,59,59,39,0,1,1,1,,,,,,,,,,,,,7,2.025,,,2018_Jun_26_1723,59.6338733696,verb_norming_oral_input,001,916,
LEAP,hoppa,stega,kliva,2,stega,hoppa,kliva,,,0,59,59,39,,,,,,,,,,,,,,,,,,,return,3.97516196443,2018_Jun_26_1723,59.6338733696,verb_norming_oral_input,001,916,
SWAY,vingla,tassa,ramla,2,ramla,vingla,tassa,Arm,arm,0,60,60,92,0,0,0,0,,,,,,,,,,,,,3,14.969,,,2018_Jun_26_1723,59.6338733696,verb_norming_oral_input,001,916,
SWAY,vingla,tassa,ramla,2,ramla,vingla,tassa,Leg,leg,0,60,60,92,0,1,1,1,,,,,,,,,,,,,6,0.482,,,2018_Jun_26_1723,59.6338733696,verb_norming_oral_input,001,916,
SWAY,vingla,tassa,ramla,2,ramla,vingla,tassa,,,0,60,60,92,,,,,,,,,,,,,,,,,,,return,4.47821910843,2018_Jun_26_1723,59.6338733696,verb_norming_oral_input,001,916,
PLUCK,plocka,rensa,picka,3,picka,rensa,plocka,Arm,arm,0,61,61,50,0,0,0,0,,,,,,,,,,,,,7,2.407,,,2018_Jun_26_1723,59.6338733696,verb_norming_oral_input,001,916,
PLUCK,plocka,rensa,picka,3,picka,rensa,plocka,Leg,leg,0,61,61,50,0,1,1,1,,,,,,,,,,,,,1,1.924,,,2018_Jun_26_1723,59.6338733696,verb_norming_oral_input,001,916,
PLUCK,plocka,rensa,picka,3,picka,rensa,plocka,,,0,61,61,50,,,,,,,,,,,,,,,,,,,return,5.55084894765,2018_Jun_26_1723,59.6338733696,verb_norming_oral_input,001,916,
HOP,skutta,kliva,studsa,3,kliva,studsa,skutta,Arm,arm,0,62,62,32,0,0,0,0,,,,,,,,,,,,,1,3.114,,,2018_Jun_26_1723,59.6338733696,verb_norming_oral_input,001,916,
HOP,skutta,kliva,studsa,3,kliva,studsa,skutta,Leg,leg,0,62,62,32,0,1,1,1,,,,,,,,,,,,,7,1.288,,,2018_Jun_26_1723,59.6338733696,verb_norming_oral_input,001,916,
HOP,skutta,kliva,studsa,3,kliva,studsa,skutta,,,0,62,62,32,,,,,,,,,,,,,,,,,,,return,1.19116523908,2018_Jun_26_1723,59.6338733696,verb_norming_oral_input,001,916,
PRANCE,kråma sig,promenera,traska,2,traska,kråma sig,promenera,Arm,arm,0,63,63,53,0,0,0,0,,,,,,,,,,,,,2,6.281,,,2018_Jun_26_1723,59.6338733696,verb_norming_oral_input,001,916,
PRANCE,kråma sig,promenera,traska,2,traska,kråma sig,promenera,Leg,leg,0,63,63,53,0,1,1,1,,,,,,,,,,,,,7,0.749,,,2018_Jun_26_1723,59.6338733696,verb_norming_oral_input,001,916,
PRANCE,kråma sig,promenera,traska,2,traska,kråma sig,promenera,,,0,63,63,53,,,,,,,,,,,,,,,,,,,return,10.2474471119,2018_Jun_26_1723,59.6338733696,verb_norming_oral_input,001,916,
SLIP,halka,snava,ramla,2,snava,halka,ramla,Arm,arm,0,64,64,75,0,0,0,0,,,,,,,,,,,,,1,4.621,,,2018_Jun_26_1723,59.6338733696,verb_norming_oral_input,001,916,
SLIP,halka,snava,ramla,2,snava,halka,ramla,Leg,leg,0,64,64,75,0,1,1,1,,,,,,,,,,,,,7,1.019,,,2018_Jun_26_1723,59.6338733696,verb_norming_oral_input,001,916,
SLIP,halka,snava,ramla,2,snava,halka,ramla,,,0,64,64,75,,,,,,,,,,,,,,,,,,,return,1.27498017548,2018_Jun_26_1723,59.6338733696,verb_norming_oral_input,001,916,
STOMP,stampa,stiga,kliva,2,kliva,stampa,stiga,Arm,arm,0,65,65,86,0,0,0,0,,,,,,,,,,,,,1,3.278,,,2018_Jun_26_1723,59.6338733696,verb_norming_oral_input,001,916,
STOMP,stampa,stiga,kliva,2,kliva,stampa,stiga,Leg,leg,0,65,65,86,0,1,1,1,,,,,,,,,,,,,7,0.614,,,2018_Jun_26_1723,59.6338733696,verb_norming_oral_input,001,916,
STOMP,stampa,stiga,kliva,2,kliva,stampa,stiga,,,0,65,65,86,,,,,,,,,,,,,,,,,,,return,1.61046236661,2018_Jun_26_1723,59.6338733696,verb_norming_oral_input,001,916,
STAGGER,ragla,lunka,halka,2,lunka,ragla,halka,Arm,arm,0,66,66,82,0,0,0,0,,,,,,,,,,,,,2,7.589,,,2018_Jun_26_1723,59.6338733696,verb_norming_oral_input,001,916,
STAGGER,ragla,lunka,halka,2,lunka,ragla,halka,Leg,leg,0,66,66,82,0,1,1,1,,,,,,,,,,,,,7,1.403,,,2018_Jun_26_1723,59.6338733696,verb_norming_oral_input,001,916,
STAGGER,ragla,lunka,halka,2,lunka,ragla,halka,,,0,66,66,82,,,,,,,,,,,,,,,,,,,return,11.7568643007,2018_Jun_26_1723,59.6338733696,verb_norming_oral_input,001,916,
HIKE,vandra,flanera,lunka,2,lunka,vandra,flanera,Arm,arm,0,67,67,31,0,0,0,0,,,,,,,,,,,,,3,10.625,,,2018_Jun_26_1723,59.6338733696,verb_norming_oral_input,001,916,
HIKE,vandra,flanera,lunka,2,lunka,vandra,flanera,Leg,leg,0,67,67,31,0,1,1,1,,,,,,,,,,,,,7,1.387,,,2018_Jun_26_1723,59.6338733696,verb_norming_oral_input,001,916,
HIKE,vandra,flanera,lunka,2,lunka,vandra,flanera,,,0,67,67,31,,,,,,,,,,,,,,,,,,,return,6.23921228215,2018_Jun_26_1723,59.6338733696,verb_norming_oral_input,001,916,
WASH,tvätta,skura,sopa,3,skura,sopa,tvätta,Arm,arm,0,68,68,107,0,0,0,0,,,,,,,,,,,,,7,2.894,,,2018_Jun_26_1723,59.6338733696,verb_norming_oral_input,001,916,
WASH,tvätta,skura,sopa,3,skura,sopa,tvätta,Leg,leg,0,68,68,107,0,1,1,1,,,,,,,,,,,,,1,4.993,,,2018_Jun_26_1723,59.6338733696,verb_norming_oral_input,001,916,
WASH,tvätta,skura,sopa,3,skura,sopa,tvätta,,,0,68,68,107,,,,,,,,,,,,,,,,,,,return,1.89559008707,2018_Jun_26_1723,59.6338733696,verb_norming_oral_input,001,916,
STUMBLE,snubbla,glida,svaja,2,svaja,snubbla,glida,Arm,arm,0,69,69,91,0,0,0,0,,,,,,,,,,,,,1,11.83,,,2018_Jun_26_1723,59.6338733696,verb_norming_oral_input,001,916,
STUMBLE,snubbla,glida,svaja,2,svaja,snubbla,glida,Leg,leg,0,69,69,91,0,1,1,1,,,,,,,,,,,,,7,0.998,,,2018_Jun_26_1723,59.6338733696,verb_norming_oral_input,001,916,
STUMBLE,snubbla,glida,svaja,2,svaja,snubbla,glida,,,0,69,69,91,,,,,,,,,,,,,,,,,,,return,3.5558699733,2018_Jun_26_1723,59.6338733696,verb_norming_oral_input,001,916,
TUG,rycka,pressa,slå,2,slå,rycka,pressa,Arm,arm,0,70,70,102,0,0,0,0,,,,,,,,,,,,,7,4.957,,,2018_Jun_26_1723,59.6338733696,verb_norming_oral_input,001,916,
TUG,rycka,pressa,slå,2,slå,rycka,pressa,Leg,leg,0,70,70,102,0,1,1,1,,,,,,,,,,,,,2,0.717,,,2018_Jun_26_1723,59.6338733696,verb_norming_oral_input,001,916,
TUG,rycka,pressa,slå,2,slå,rycka,pressa,,,0,70,70,102,,,,,,,,,,,,,,,,,,,return,1.45944952838,2018_Jun_26_1723,59.6338733696,verb_norming_oral_input,001,916,
SNEAK,smyga,hasa,glida,3,glida,hasa,smyga,Arm,arm,0,71,71,78,0,0,0,0,,,,,,,,,,,,,3,5.627,,,2018_Jun_26_1723,59.6338733696,verb_norming_oral_input,001,916,
SNEAK,smyga,hasa,glida,3,glida,hasa,smyga,Leg,leg,0,71,71,78,0,1,1,1,,,,,,,,,,,,,7,1.052,,,2018_Jun_26_1723,59.6338733696,verb_norming_oral_input,001,916,
SNEAK,smyga,hasa,glida,3,glida,hasa,smyga,,,0,71,71,78,,,,,,,,,,,,,,,,,,,return,1.62718173402,2018_Jun_26_1723,59.6338733696,verb_norming_oral_input,001,916,
CLIMB,klättra,kliva,krypa,3,kliva,krypa,klättra,Arm,arm,0,72,72,12,0,0,0,0,,,,,,,,,,,,,7,4.066,,,2018_Jun_26_1723,59.6338733696,verb_norming_oral_input,001,916,
CLIMB,klättra,kliva,krypa,3,kliva,krypa,klättra,Leg,leg,0,72,72,12,0,1,1,1,,,,,,,,,,,,,7,2.308,,,2018_Jun_26_1723,59.6338733696,verb_norming_oral_input,001,916,
CLIMB,klättra,kliva,krypa,3,kliva,krypa,klättra,,,0,72,72,12,,,,,,,,,,,,,,,,,,,return,2.96891096925,2018_Jun_26_1723,59.6338733696,verb_norming_oral_input,001,916,
CLUTCH,gripa tag i,sätta ihop,dra ut,2,dra ut,gripa tag i,sätta ihop,Arm,arm,0,73,73,13,0,0,0,0,,,,,,,,,,,,,7,8.209,,,2018_Jun_26_1723,59.6338733696,verb_norming_oral_input,001,916,
CLUTCH,gripa tag i,sätta ihop,dra ut,2,dra ut,gripa tag i,sätta ihop,Leg,leg,0,73,73,13,0,1,1,1,,,,,,,,,,,,,5,1.018,,,2018_Jun_26_1723,59.6338733696,verb_norming_oral_input,001,916,
CLUTCH,gripa tag i,sätta ihop,dra ut,2,dra ut,gripa tag i,sätta ihop,,,0,73,73,13,,,,,,,,,,,,,,,,,,,return,3.10304126068,2018_Jun_26_1723,59.6338733696,verb_norming_oral_input,001,916,
LIFT,lyfta,pressa,öka,3,öka,pressa,lyfta,Arm,arm,0,74,74,40,0,0,0,0,,,,,,,,,,,,,7,5.007,,,2018_Jun_26_1723,59.6338733696,verb_norming_oral_input,001,916,
LIFT,lyfta,pressa,öka,3,öka,pressa,lyfta,Leg,leg,0,74,74,40,0,1,1,1,,,,,,,,,,,,,7,1.79,,,2018_Jun_26_1723,59.6338733696,verb_norming_oral_input,001,916,
LIFT,lyfta,pressa,öka,3,öka,pressa,lyfta,,,0,74,74,40,,,,,,,,,,,,,,,,,,,return,1.52660199285,2018_Jun_26_1723,59.6338733696,verb_norming_oral_input,001,916,
SLIDE,glida,ramla,hasa,3,hasa,ramla,glida,Arm,arm,0,75,75,74,0,0,0,0,,,,,,,,,,,,,1,16.143,,,2018_Jun_26_1723,59.6338733696,verb_norming_oral_input,001,916,
SLIDE,glida,ramla,hasa,3,hasa,ramla,glida,Leg,leg,0,75,75,74,0,1,1,1,,,,,,,,,,,,,7,0.648,,,2018_Jun_26_1723,59.6338733696,verb_norming_oral_input,001,916,
SLIDE,glida,ramla,hasa,3,hasa,ramla,glida,,,0,75,75,74,,,,,,,,,,,,,,,,,,,return,4.99825362501,2018_Jun_26_1723,59.6338733696,verb_norming_oral_input,001,916,
LIMP,halta,hasa,halka,1,halta,hasa,halka,Arm,arm,0,76,76,41,0,0,0,0,,,,,,,,,,,,,1,6.297,,,2018_Jun_26_1723,59.6338733696,verb_norming_oral_input,001,916,
LIMP,halta,hasa,halka,1,halta,hasa,halka,Leg,leg,0,76,76,41,0,1,1,1,,,,,,,,,,,,,7,1.085,,,2018_Jun_26_1723,59.6338733696,verb_norming_oral_input,001,916,
LIMP,halta,hasa,halka,1,halta,hasa,halka,,,0,76,76,41,,,,,,,,,,,,,,,,,,,return,1.66158492618,2018_Jun_26_1723,59.6338733696,verb_norming_oral_input,001,916,
TROT,trava,promenera,flanera,1,trava,flanera,promenera,Arm,arm,0,77,77,100,0,0,0,0,,,,,,,,,,,,,1,10.022,,,2018_Jun_26_1723,59.6338733696,verb_norming_oral_input,001,916,
TROT,trava,promenera,flanera,1,trava,flanera,promenera,Leg,leg,0,77,77,100,0,1,1,1,,,,,,,,,,,,,7,0.431,,,2018_Jun_26_1723,59.6338733696,verb_norming_oral_input,001,916,
TROT,trava,promenera,flanera,1,trava,flanera,promenera,,,0,77,77,100,,,,,,,,,,,,,,,,,,,return,7.53059178801,2018_Jun_26_1723,59.6338733696,verb_norming_oral_input,001,916,
SLAP,smälla till,knäppa fast,klämma åt,3,klämma åt,knäppa fast,smälla till,Arm,arm,0,78,78,73,0,0,0,0,,,,,,,,,,,,,7,5.997,,,2018_Jun_26_1723,59.6338733696,verb_norming_oral_input,001,916,
SLAP,smälla till,knäppa fast,klämma åt,3,klämma åt,knäppa fast,smälla till,Leg,leg,0,78,78,73,0,1,1,1,,,,,,,,,,,,,1,5.698,,,2018_Jun_26_1723,59.6338733696,verb_norming_oral_input,001,916,
SLAP,smälla till,knäppa fast,klämma åt,3,klämma åt,knäppa fast,smälla till,,,0,78,78,73,,,,,,,,,,,,,,,,,,,return,8.18459894814,2018_Jun_26_1723,59.6338733696,verb_norming_oral_input,001,916,
SCUFF,hasa sig fram,dra sig fram,kasta sig fram,1,hasa sig fram,dra sig fram,kasta sig fram,Arm,arm,0,79,79,67,0,0,0,0,,,,,,,,,,,,,7,10.088,,,2018_Jun_26_1723,59.6338733696,verb_norming_oral_input,001,916,
SCUFF,hasa sig fram,dra sig fram,kasta sig fram,1,hasa sig fram,dra sig fram,kasta sig fram,Leg,leg,0,79,79,67,0,1,1,1,,,,,,,,,,,,,3,0.599,,,2018_Jun_26_1723,59.6338733696,verb_norming_oral_input,001,916,
SCUFF,hasa sig fram,dra sig fram,kasta sig fram,1,hasa sig fram,dra sig fram,kasta sig fram,,,0,79,79,67,,,,,,,,,,,,,,,,,,,return,5.04845202823,2018_Jun_26_1723,59.6338733696,verb_norming_oral_input,001,916,
TRIP,snubbla,stampa,stappla,3,stappla,stampa,snubbla,Arm,arm,0,80,80,99,0,0,0,0,,,,,,,,,,,,,1,4.856,,,2018_Jun_26_1723,59.6338733696,verb_norming_oral_input,001,916,
TRIP,snubbla,stampa,stappla,3,stappla,stampa,snubbla,Leg,leg,0,80,80,99,0,1,1,1,,,,,,,,,,,,,7,0.55,,,2018_Jun_26_1723,59.6338733696,verb_norming_oral_input,001,916,
TRIP,snubbla,stampa,stappla,3,stappla,stampa,snubbla,,,0,80,80,99,,,,,,,,,,,,,,,,,,,return,3.03547669913,2018_Jun_26_1723,59.6338733696,verb_norming_oral_input,001,916,
STAMP,stampa,kliva,skutta,3,kliva,skutta,stampa,Arm,arm,0,81,81,83,0,0,0,0,,,,,,,,,,,,,7,10.974,,,2018_Jun_26_1723,59.6338733696,verb_norming_oral_input,001,916,
STAMP,stampa,kliva,skutta,3,kliva,skutta,stampa,Leg,leg,0,81,81,83,0,1,1,1,,,,,,,,,,,,,1,1.0,,,2018_Jun_26_1723,59.6338733696,verb_norming_oral_input,001,916,
STAMP,stampa,kliva,skutta,3,kliva,skutta,stampa,,,0,81,81,83,,,,,,,,,,,,,,,,,,,return,1.96259715199,2018_Jun_26_1723,59.6338733696,verb_norming_oral_input,001,916,
WOBBLE,vingla,ramla,glida,2,glida,vingla,ramla,Arm,arm,0,82,82,110,0,0,0,0,,,,,,,,,,,,,1,12.436,,,2018_Jun_26_1723,59.6338733696,verb_norming_oral_input,001,916,
WOBBLE,vingla,ramla,glida,2,glida,vingla,ramla,Leg,leg,0,82,82,110,0,1,1,1,,,,,,,,,,,,,7,0.917,,,2018_Jun_26_1723,59.6338733696,verb_norming_oral_input,001,916,
WOBBLE,vingla,ramla,glida,2,glida,vingla,ramla,,,0,82,82,110,,,,,,,,,,,,,,,,,,,return,11.8575037031,2018_Jun_26_1723,59.6338733696,verb_norming_oral_input,001,916,
SHAKE,skaka,röra,vispa,1,skaka,vispa,röra,Arm,arm,0,83,83,69,0,0,0,0,,,,,,,,,,,,,7,2.759,,,2018_Jun_26_1723,59.6338733696,verb_norming_oral_input,001,916,
SHAKE,skaka,röra,vispa,1,skaka,vispa,röra,Leg,leg,0,83,83,69,0,1,1,1,,,,,,,,,,,,,7,1.119,,,2018_Jun_26_1723,59.6338733696,verb_norming_oral_input,001,916,
SHAKE,skaka,röra,vispa,1,skaka,vispa,röra,,,0,83,83,69,,,,,,,,,,,,,,,,,,,return,1.52654944355,2018_Jun_26_1723,59.6338733696,verb_norming_oral_input,001,916,
TIPTOE,gå på tå,snava,sparka,1,gå på tå,snava,sparka,Arm,arm,0,84,84,95,0,0,0,0,,,,,,,,,,,,,1,5.895,,,2018_Jun_26_1723,59.6338733696,verb_norming_oral_input,001,916,
TIPTOE,gå på tå,snava,sparka,1,gå på tå,snava,sparka,Leg,leg,0,84,84,95,0,1,1,1,,,,,,,,,,,,,7,0.934,,,2018_Jun_26_1723,59.6338733696,verb_norming_oral_input,001,916,
TIPTOE,gå på tå,snava,sparka,1,gå på tå,snava,sparka,,,0,84,84,95,,,,,,,,,,,,,,,,,,,return,6.49077759915,2018_Jun_26_1723,59.6338733696,verb_norming_oral_input,001,916,
CLAP,klappa,knäppa,klämma,1,klappa,klämma,knäppa,Arm,arm,0,85,85,8,0,0,0,0,,,,,,,,,,,,,7,2.224,,,2018_Jun_26_1723,59.6338733696,verb_norming_oral_input,001,916,
CLAP,klappa,knäppa,klämma,1,klappa,klämma,knäppa,Leg,leg,0,85,85,8,0,1,1,1,,,,,,,,,,,,,1,0.868,,,2018_Jun_26_1723,59.6338733696,verb_norming_oral_input,001,916,
CLAP,klappa,knäppa,klämma,1,klappa,klämma,knäppa,,,0,85,85,8,,,,,,,,,,,,,,,,,,,return,1.27486085303,2018_Jun_26_1723,59.6338733696,verb_norming_oral_input,001,916,
RAMBLE,ströva,strutta,spurta,1,ströva,spurta,strutta,Arm,arm,0,86,86,57,0,0,0,0,,,,,,,,,,,,,1,22.261,,,2018_Jun_26_1723,59.6338733696,verb_norming_oral_input,001,916,
RAMBLE,ströva,strutta,spurta,1,ströva,spurta,strutta,Leg,leg,0,86,86,57,0,1,1,1,,,,,,,,,,,,,7,1.134,,,2018_Jun_26_1723,59.6338733696,verb_norming_oral_input,001,916,
RAMBLE,ströva,strutta,spurta,1,ströva,spurta,strutta,,,0,86,86,57,,,,,,,,,,,,,,,,,,,return,6.70881291148,2018_Jun_26_1723,59.6338733696,verb_norming_oral_input,001,916,
TWINE,tvinna,binda,knyta,1,tvinna,knyta,binda,Arm,arm,0,87,87,103,0,0,0,0,,,,,,,,,,,,,7,16.378,,,2018_Jun_26_1723,59.6338733696,verb_norming_oral_input,001,916,
TWINE,tvinna,binda,knyta,1,tvinna,knyta,binda,Leg,leg,0,87,87,103,0,1,1,1,,,,,,,,,,,,,7,1.37,,,2018_Jun_26_1723,59.6338733696,verb_norming_oral_input,001,916,
TWINE,tvinna,binda,knyta,1,tvinna,knyta,binda,,,0,87,87,103,,,,,,,,,,,,,,,,,,,return,3.80728277881,2018_Jun_26_1723,59.6338733696,verb_norming_oral_input,001,916,
RUN,springa,rusa,jogga,2,jogga,springa,rusa,Arm,arm,0,88,88,61,0,0,0,0,,,,,,,,,,,,,2,3.935,,,2018_Jun_26_1723,59.6338733696,verb_norming_oral_input,001,916,
RUN,springa,rusa,jogga,2,jogga,springa,rusa,Leg,leg,0,88,88,61,0,1,1,1,,,,,,,,,,,,,7,0.466,,,2018_Jun_26_1723,59.6338733696,verb_norming_oral_input,001,916,
RUN,springa,rusa,jogga,2,jogga,springa,rusa,,,0,88,88,61,,,,,,,,,,,,,,,,,,,return,2.09679895786,2018_Jun_26_1723,59.6338733696,verb_norming_oral_input,001,916,
CLAW,klösa,nypa,rispa,2,rispa,klösa,nypa,Arm,arm,0,89,89,9,0,0,0,0,,,,,,,,,,,,,7,28.956,,,2018_Jun_26_1723,59.6338733696,verb_norming_oral_input,001,916,
CLAW,klösa,nypa,rispa,2,rispa,klösa,nypa,Leg,leg,0,89,89,9,0,1,1,1,,,,,,,,,,,,,1,1.706,,,2018_Jun_26_1723,59.6338733696,verb_norming_oral_input,001,916,
CLAW,klösa,nypa,rispa,2,rispa,klösa,nypa,,,0,89,89,9,,,,,,,,,,,,,,,,,,,return,6.77592230923,2018_Jun_26_1723,59.6338733696,verb_norming_oral_input,001,916,
MOUNT,gå uppför,ströva runt,kliva över,1,gå uppför,kliva över,ströva runt,Arm,arm,0,90,90,43,0,0,0,0,,,,,,,,,,,,,3,13.34,,,2018_Jun_26_1723,59.6338733696,verb_norming_oral_input,001,916,
MOUNT,gå uppför,ströva runt,kliva över,1,gå uppför,kliva över,ströva runt,Leg,leg,0,90,90,43,0,1,1,1,,,,,,,,,,,,,5,3.164,,,2018_Jun_26_1723,59.6338733696,verb_norming_oral_input,001,916,
MOUNT,gå uppför,ströva runt,kliva över,1,gå uppför,kliva över,ströva runt,,,0,90,90,43,,,,,,,,,,,,,,,,,,,return,6.67529396983,2018_Jun_26_1723,59.6338733696,verb_norming_oral_input,001,916,
GRATE,riva,hugga,rispa,3,hugga,rispa,riva,Arm,arm,0,91,91,28,0,0,0,0,,,,,,,,,,,,,7,5.04,,,2018_Jun_26_1723,59.6338733696,verb_norming_oral_input,001,916,
GRATE,riva,hugga,rispa,3,hugga,rispa,riva,Leg,leg,0,91,91,28,0,1,1,1,,,,,,,,,,,,,1,0.515,,,2018_Jun_26_1723,59.6338733696,verb_norming_oral_input,001,916,
GRATE,riva,hugga,rispa,3,hugga,rispa,riva,,,0,91,91,28,,,,,,,,,,,,,,,,,,,return,2.26453116351,2018_Jun_26_1723,59.6338733696,verb_norming_oral_input,001,916,
TREAD,trampa,stampa,klampa,2,stampa,trampa,klampa,Arm,arm,0,92,92,98,0,0,0,0,,,,,,,,,,,,,1,8.026,,,2018_Jun_26_1723,59.6338733696,verb_norming_oral_input,001,916,
TREAD,trampa,stampa,klampa,2,stampa,trampa,klampa,Leg,leg,0,92,92,98,0,1,1,1,,,,,,,,,,,,,7,0.934,,,2018_Jun_26_1723,59.6338733696,verb_norming_oral_input,001,916,
TREAD,trampa,stampa,klampa,2,stampa,trampa,klampa,,,0,92,92,98,,,,,,,,,,,,,,,,,,,return,1.82860554328,2018_Jun_26_1723,59.6338733696,verb_norming_oral_input,001,916,
SKATE,åka skridskor,åka skidor,åka kälke,2,åka kälke,åka skridskor,åka skidor,Arm,arm,0,93,93,70,0,0,0,0,,,,,,,,,,,,,1,9.216,,,2018_Jun_26_1723,59.6338733696,verb_norming_oral_input,001,916,
SKATE,åka skridskor,åka skidor,åka kälke,2,åka kälke,åka skridskor,åka skidor,Leg,leg,0,93,93,70,0,1,1,1,,,,,,,,,,,,,7,0.75,,,2018_Jun_26_1723,59.6338733696,verb_norming_oral_input,001,916,
SKATE,åka skridskor,åka skidor,åka kälke,2,åka kälke,åka skridskor,åka skidor,,,0,93,93,70,,,,,,,,,,,,,,,,,,,return,3.77387525746,2018_Jun_26_1723,59.6338733696,verb_norming_oral_input,001,916,
MARCH,marschera,trava,traska,2,trava,marschera,traska,Arm,arm,0,94,94,42,0,0,0,0,,,,,,,,,,,,,5,4.234,,,2018_Jun_26_1723,59.6338733696,verb_norming_oral_input,001,916,
MARCH,marschera,trava,traska,2,trava,marschera,traska,Leg,leg,0,94,94,42,0,1,1,1,,,,,,,,,,,,,7,0.716,,,2018_Jun_26_1723,59.6338733696,verb_norming_oral_input,001,916,
MARCH,marschera,trava,traska,2,trava,marschera,traska,,,0,94,94,42,,,,,,,,,,,,,,,,,,,return,1.20792530256,2018_Jun_26_1723,59.6338733696,verb_norming_oral_input,001,916,
SCRATCH,repa,riva,klösa,1,repa,riva,klösa,Arm,arm,0,95,95,65,0,0,0,0,,,,,,,,,,,,,7,2.826,,,2018_Jun_26_1723,59.6338733696,verb_norming_oral_input,001,916,
SCRATCH,repa,riva,klösa,1,repa,riva,klösa,Leg,leg,0,95,95,65,0,1,1,1,,,,,,,,,,,,,1,0.833,,,2018_Jun_26_1723,59.6338733696,verb_norming_oral_input,001,916,
SCRATCH,repa,riva,klösa,1,repa,riva,klösa,,,0,95,95,65,,,,,,,,,,,,,,,,,,,return,1.45933968851,2018_Jun_26_1723,59.6338733696,verb_norming_oral_input,001,916,
GLIDE,glida,hasa,snava,1,glida,hasa,snava,Arm,arm,0,96,96,25,0,0,0,0,,,,,,,,,,,,,3,5.644,,,2018_Jun_26_1723,59.6338733696,verb_norming_oral_input,001,916,
GLIDE,glida,hasa,snava,1,glida,hasa,snava,Leg,leg,0,96,96,25,0,1,1,1,,,,,,,,,,,,,7,0.767,,,2018_Jun_26_1723,59.6338733696,verb_norming_oral_input,001,916,
GLIDE,glida,hasa,snava,1,glida,hasa,snava,,,0,96,96,25,,,,,,,,,,,,,,,,,,,return,1.04013975741,2018_Jun_26_1723,59.6338733696,verb_norming_oral_input,001,916,
SQUEEZE,klämma,knuffa,knäppa,2,knäppa,klämma,knuffa,Arm,arm,0,97,97,80,0,0,0,0,,,,,,,,,,,,,7,4.045,,,2018_Jun_26_1723,59.6338733696,verb_norming_oral_input,001,916,
SQUEEZE,klämma,knuffa,knäppa,2,knäppa,klämma,knuffa,Leg,leg,0,97,97,80,0,1,1,1,,,,,,,,,,,,,5,3.078,,,2018_Jun_26_1723,59.6338733696,verb_norming_oral_input,001,916,
SQUEEZE,klämma,knuffa,knäppa,2,knäppa,klämma,knuffa,,,0,97,97,80,,,,,,,,,,,,,,,,,,,return,2.01296308076,2018_Jun_26_1723,59.6338733696,verb_norming_oral_input,001,916,
DELVE,gräva,plöja,rensa,3,plöja,rensa,gräva,Arm,arm,0,98,98,18,0,0,0,0,,,,,,,,,,,,,4,10.173,,,2018_Jun_26_1723,59.6338733696,verb_norming_oral_input,001,916,
DELVE,gräva,plöja,rensa,3,plöja,rensa,gräva,Leg,leg,0,98,98,18,0,1,1,1,,,,,,,,,,,,,4,0.447,,,2018_Jun_26_1723,59.6338733696,verb_norming_oral_input,001,916,
DELVE,gräva,plöja,rensa,3,plöja,rensa,gräva,,,0,98,98,18,,,,,,,,,,,,,,,,,,,return,1.89553398181,2018_Jun_26_1723,59.6338733696,verb_norming_oral_input,001,916,
STRIDE,kliva,tassa,lunka,1,kliva,lunka,tassa,Arm,arm,0,99,99,88,0,0,0,0,,,,,,,,,,,,,4,10.792,,,2018_Jun_26_1723,59.6338733696,verb_norming_oral_input,001,916,
STRIDE,kliva,tassa,lunka,1,kliva,lunka,tassa,Leg,leg,0,99,99,88,0,1,1,1,,,,,,,,,,,,,5,1.705,,,2018_Jun_26_1723,59.6338733696,verb_norming_oral_input,001,916,
STRIDE,kliva,tassa,lunka,1,kliva,lunka,tassa,,,0,99,99,88,,,,,,,,,,,,,,,,,,,return,2.09680527958,2018_Jun_26_1723,59.6338733696,verb_norming_oral_input,001,916,
CLEAN,rengöra,rensa,plocka,1,rengöra,plocka,rensa,Arm,arm,0,100,100,10,0,0,0,0,,,,,,,,,,,,,7,4.168,,,2018_Jun_26_1723,59.6338733696,verb_norming_oral_input,001,916,
CLEAN,rengöra,rensa,plocka,1,rengöra,plocka,rensa,Leg,leg,0,100,100,10,0,1,1,1,,,,,,,,,,,,,3,1.354,,,2018_Jun_26_1723,59.6338733696,verb_norming_oral_input,001,916,
CLEAN,rengöra,rensa,plocka,1,rengöra,plocka,rensa,,,0,100,100,10,,,,,,,,,,,,,,,,,,,return,1.32532832442,2018_Jun_26_1723,59.6338733696,verb_norming_oral_input,001,916,
BRAID,fläta,knyta,binda,2,knyta,fläta,binda,Arm,arm,0,101,101,3,0,0,0,0,,,,,,,,,,,,,7,2.843,,,2018_Jun_26_1723,59.6338733696,verb_norming_oral_input,001,916,
BRAID,fläta,knyta,binda,2,knyta,fläta,binda,Leg,leg,0,101,101,3,0,1,1,1,,,,,,,,,,,,,1,0.616,,,2018_Jun_26_1723,59.6338733696,verb_norming_oral_input,001,916,
BRAID,fläta,knyta,binda,2,knyta,fläta,binda,,,0,101,101,3,,,,,,,,,,,,,,,,,,,return,1.54312736249,2018_Jun_26_1723,59.6338733696,verb_norming_oral_input,001,916,
RUB,gnugga,riva,klappa,1,gnugga,riva,klappa,Arm,arm,0,102,102,60,0,0,0,0,,,,,,,,,,,,,7,5.26,,,2018_Jun_26_1723,59.6338733696,verb_norming_oral_input,001,916,
RUB,gnugga,riva,klappa,1,gnugga,riva,klappa,Leg,leg,0,102,102,60,0,1,1,1,,,,,,,,,,,,,5,2.411,,,2018_Jun_26_1723,59.6338733696,verb_norming_oral_input,001,916,
RUB,gnugga,riva,klappa,1,gnugga,riva,klappa,,,0,102,102,60,,,,,,,,,,,,,,,,,,,return,1.62721571327,2018_Jun_26_1723,59.6338733696,verb_norming_oral_input,001,916,
SPRINT,spurta,springa,löpa,1,spurta,löpa,springa,Arm,arm,0,103,103,79,0,0,0,0,,,,,,,,,,,,,2,6.365,,,2018_Jun_26_1723,59.6338733696,verb_norming_oral_input,001,916,
SPRINT,spurta,springa,löpa,1,spurta,löpa,springa,Leg,leg,0,103,103,79,0,1,1,1,,,,,,,,,,,,,7,0.851,,,2018_Jun_26_1723,59.6338733696,verb_norming_oral_input,001,916,
SPRINT,spurta,springa,löpa,1,spurta,löpa,springa,,,0,103,103,79,,,,,,,,,,,,,,,,,,,return,1.19114666903,2018_Jun_26_1723,59.6338733696,verb_norming_oral_input,001,916,
WADE,vada,pulsa,plöja,1,vada,plöja,pulsa,Arm,arm,0,104,104,104,0,0,0,0,,,,,,,,,,,,,2,3.364,,,2018_Jun_26_1723,59.6338733696,verb_norming_oral_input,001,916,
WADE,vada,pulsa,plöja,1,vada,plöja,pulsa,Leg,leg,0,104,104,104,0,1,1,1,,,,,,,,,,,,,7,0.933,,,2018_Jun_26_1723,59.6338733696,verb_norming_oral_input,001,916,
WADE,vada,pulsa,plöja,1,vada,plöja,pulsa,,,0,104,104,104,,,,,,,,,,,,,,,,,,,return,1.0065963191,2018_Jun_26_1723,59.6338733696,verb_norming_oral_input,001,916,
DUNK,dunka,dumpa,dunsa,2,dumpa,dunka,dunsa,Arm,arm,0,105,105,20,0,0,0,0,,,,,,,,,,,,,7,7.775,,,2018_Jun_26_1723,59.6338733696,verb_norming_oral_input,001,916,
DUNK,dunka,dumpa,dunsa,2,dumpa,dunka,dunsa,Leg,leg,0,105,105,20,0,1,1,1,,,,,,,,,,,,,3,0.818,,,2018_Jun_26_1723,59.6338733696,verb_norming_oral_input,001,916,
DUNK,dunka,dumpa,dunsa,2,dumpa,dunka,dunsa,,,0,105,105,20,,,,,,,,,,,,,,,,,,,return,2.23092490311,2018_Jun_26_1723,59.6338733696,verb_norming_oral_input,001,916,
JUMP,hoppa,kliva,lyfta,3,kliva,lyfta,hoppa,Arm,arm,0,106,106,35,0,0,0,0,,,,,,,,,,,,,1,2.59,,,2018_Jun_26_1723,59.6338733696,verb_norming_oral_input,001,916,
JUMP,hoppa,kliva,lyfta,3,kliva,lyfta,hoppa,Leg,leg,0,106,106,35,0,1,1,1,,,,,,,,,,,,,7,0.832,,,2018_Jun_26_1723,59.6338733696,verb_norming_oral_input,001,916,
JUMP,hoppa,kliva,lyfta,3,kliva,lyfta,hoppa,,,0,106,106,35,,,,,,,,,,,,,,,,,,,return,1.15764985339,2018_Jun_26_1723,59.6338733696,verb_norming_oral_input,001,916,
PUSH,knuffa,kasta,klämma,1,knuffa,klämma,kasta,Arm,arm,0,107,107,56,0,0,0,0,,,,,,,,,,,,,7,2.76,,,2018_Jun_26_1723,59.6338733696,verb_norming_oral_input,001,916,
PUSH,knuffa,kasta,klämma,1,knuffa,klämma,kasta,Leg,leg,0,107,107,56,0,1,1,1,,,,,,,,,,,,,2,2.294,,,2018_Jun_26_1723,59.6338733696,verb_norming_oral_input,001,916,
PUSH,knuffa,kasta,klämma,1,knuffa,klämma,kasta,,,0,107,107,56,,,,,,,,,,,,,,,,,,,return,2.61670427431,2018_Jun_26_1723,59.6338733696,verb_norming_oral_input,001,916,
WALK,gå,promenera,marschera,1,gå,promenera,marschera,Arm,arm,0,108,108,105,0,0,0,0,,,,,,,,,,,,,1,3.196,,,2018_Jun_26_1723,59.6338733696,verb_norming_oral_input,001,916,
WALK,gå,promenera,marschera,1,gå,promenera,marschera,Leg,leg,0,108,108,105,0,1,1,1,,,,,,,,,,,,,7,1.371,,,2018_Jun_26_1723,59.6338733696,verb_norming_oral_input,001,916,
WALK,gå,promenera,marschera,1,gå,promenera,marschera,,,0,108,108,105,,,,,,,,,,,,,,,,,,,return,1.74457369288,2018_Jun_26_1723,59.6338733696,verb_norming_oral_input,001,916,
CUT,skära,sticka,spetsa,2,spetsa,skära,sticka,Arm,arm,0,109,109,16,0,0,0,0,,,,,,,,,,,,,7,2.995,,,2018_Jun_26_1723,59.6338733696,verb_norming_oral_input,001,916,
CUT,skära,sticka,spetsa,2,spetsa,skära,sticka,Leg,leg,0,109,109,16,0,1,1,1,,,,,,,,,,,,,1,0.717,,,2018_Jun_26_1723,59.6338733696,verb_norming_oral_input,001,916,
CUT,skära,sticka,spetsa,2,spetsa,skära,sticka,,,0,109,109,16,,,,,,,,,,,,,,,,,,,return,1.47614597956,2018_Jun_26_1723,59.6338733696,verb_norming_oral_input,001,916,
WHIP,piska,klappa,slå,3,klappa,slå,piska,Arm,arm,0,110,110,108,0,0,0,0,,,,,,,,,,,,,7,23.136,,,2018_Jun_26_1723,59.6338733696,verb_norming_oral_input,001,916,
WHIP,piska,klappa,slå,3,klappa,slå,piska,Leg,leg,0,110,110,108,0,1,1,1,,,,,,,,,,,,,1,1.287,,,2018_Jun_26_1723,59.6338733696,verb_norming_oral_input,001,916,
WHIP,piska,klappa,slå,3,klappa,slå,piska,,,0,110,110,108,,,,,,,,,,,,,,,,,,,return,6.84304514063,2018_Jun_26_1723,59.6338733696,verb_norming_oral_input,001,916,
WIPE,torka,putsa,gnugga,1,torka,gnugga,putsa,Arm,arm,0,111,111,109,0,0,0,0,,,,,,,,,,,,,7,4.136,,,2018_Jun_26_1723,59.6338733696,verb_norming_oral_input,001,916,
WIPE,torka,putsa,gnugga,1,torka,gnugga,putsa,Leg,leg,0,111,111,109,0,1,1,1,,,,,,,,,,,,,1,0.633,,,2018_Jun_26_1723,59.6338733696,verb_norming_oral_input,001,916,
WIPE,torka,putsa,gnugga,1,torka,gnugga,putsa,,,0,111,111,109,,,,,,,,,,,,,,,,,,,return,1.30853546702,2018_Jun_26_1723,59.6338733696,verb_norming_oral_input,001,916,
